Time_ms,GyroX_degps,GyroY_degps,GyroZ_degps,AccelX_g,AccelY_g,AccelZ_g,MagX_uT,MagY_uT,MagZ_uT,Temp_C
1318,-1.64,-0.34,-1.95,60.059,36.621,1019.043,-23.55,-11.25,-31.80,16.72
1333,0.68,-0.95,-2.37,172.852,0.488,1109.375,-23.70,-8.70,-31.65,16.77
1343,-1.43,-1.61,-1.41,136.230,0.488,913.574,-24.75,-11.25,-31.50,16.82
1353,-0.34,0.17,-2.53,17.578,9.766,1101.563,-25.50,-11.25,-33.00,16.96
1363,-0.82,0.44,-2.60,135.254,42.480,1016.113,-24.30,-12.90,-31.80,16.77
1373,-2.13,-0.63,0.69,163.086,20.996,1019.531,-24.30,-12.90,-31.80,16.82
1383,-1.71,2.60,-1.24,-14.160,82.031,954.590,-22.95,-10.65,-30.90,16.91
1393,-0.37,-1.36,0.98,120.117,34.180,1047.852,-22.35,-10.95,-29.55,16.72
1405,-1.54,-0.47,-1.79,161.621,28.320,1014.648,-22.80,-10.95,-29.10,16.72
1415,1.08,3.08,0.36,-9.277,48.340,965.820,-21.30,-11.25,-27.30,16.43
1425,-1.61,0.45,-0.18,127.930,11.719,1117.188,-21.30,-11.25,-27.30,17.01
1435,1.53,3.91,0.66,227.051,44.434,973.145,-20.55,-11.25,-27.30,16.77
1444,0.07,1.40,-0.07,71.777,16.113,1073.242,-18.90,-10.95,-26.85,16.91
1454,-0.73,-1.48,-2.90,99.121,52.246,1106.934,-18.90,-10.95,-26.85,16.48
1464,0.07,-0.17,0.04,341.309,70.801,1062.500,-18.75,-9.90,-28.65,16.58
1476,-0.18,-2.51,-3.63,-31.738,14.648,1066.406,-21.30,-10.50,-29.10,16.48
1486,1.26,-0.70,-0.71,190.918,-18.555,996.582,-22.35,-10.50,-30.75,16.72
1496,-2.19,-0.73,-8.32,208.496,1.465,979.492,-22.95,-10.35,-32.40,16.77
1506,-0.23,-0.03,-2.07,0.000,107.910,1157.715,-22.95,-10.35,-32.40,16.72
1516,1.24,-2.87,2.56,335.937,-60.059,862.305,-24.90,-9.45,-32.40,16.82
1526,1.74,1.08,-4.94,-14.648,12.695,1200.195,-26.25,-10.95,-32.55,16.77
1536,-0.66,-0.09,-3.19,257.324,104.980,968.262,-26.25,-10.95,-32.55,16.58
1548,2.22,0.33,-5.51,97.168,50.293,992.676,-24.90,-11.55,-30.45,16.77
1558,1.03,-1.39,-0.56,111.328,44.922,1246.582,-22.65,-10.35,-29.70,17.01
1568,3.66,0.85,-0.60,188.477,-99.609,676.758,-21.90,-11.10,-29.40,16.77
1578,1.99,2.37,-4.66,-2.441,-91.309,1265.625,-20.70,-12.30,-28.65,16.77
1588,1.79,1.19,-0.89,253.418,-33.691,526.367,-20.70,-12.30,-28.65,16.91
1598,-0.54,-1.18,2.46,201.172,-78.125,1385.254,-18.75,-9.15,-27.90,16.77
1608,1.79,-1.26,-1.71,204.102,46.387,663.086,-20.10,-10.95,-28.05,16.96
1620,2.05,-0.40,-5.44,112.305,10.254,1480.469,-21.60,-10.50,-30.75,16.91
1630,2.96,0.28,-3.50,158.691,25.879,541.504,-22.95,-9.90,-32.40,16.91
1640,0.61,-0.32,-3.45,41.504,65.430,1346.680,-24.75,-10.50,-33.00,16.62
1650,-2.72,0.07,-2.07,172.363,81.543,645.020,-26.40,-10.65,-33.90,16.91
1660,0.74,-1.33,-0.82,157.227,-0.977,1347.656,-25.65,-11.10,-32.70,16.91
1670,-0.43,1.33,-5.44,246.094,49.316,717.773,-25.65,-11.10,-32.70,16.96
1680,0.69,0.54,-3.13,157.715,-24.414,1354.004,-22.20,-10.65,-28.20,16.77
1692,-1.19,0.08,-3.16,169.434,109.863,657.227,-21.00,-11.55,-28.65,17.01
1702,-0.03,-4.37,-0.76,223.145,-123.535,1098.633,-18.90,-11.70,-27.30,16.82
1712,-1.06,0.97,-0.99,211.426,78.125,829.102,-18.60,-10.05,-29.55,16.91
1722,-0.15,-2.72,-0.88,128.906,-52.246,865.234,-18.60,-10.05,-29.55,16.62
1732,0.98,1.34,-2.67,137.207,-8.301,1110.352,-21.90,-9.15,-31.65,16.77
1742,-0.72,-2.28,-2.79,144.043,71.289,927.246,-23.55,-8.10,-33.75,17.01
1752,0.29,-3.22,-5.35,325.684,-99.609,993.164,-23.55,-8.10,-33.75,16.72
1764,-2.09,0.69,-3.10,279.297,-22.461,871.582,-24.15,-10.35,-31.20,16.82
1774,-0.67,-1.58,-3.78,68.359,102.051,959.473,-23.40,-10.35,-29.70,16.96
1784,-2.18,-4.46,-2.15,183.105,-73.730,1091.309,-19.65,-11.25,-28.35,17.01
1794,-1.20,-2.63,-4.66,238.770,104.980,919.922,-19.65,-11.25,-28.35,16.82
1804,0.06,-2.51,-6.92,84.961,-72.266,959.473,-19.95,-10.35,-29.40,16.72
1814,0.12,-2.10,-3.73,55.176,8.301,1121.094,-22.35,-9.75,-31.80,16.82
1824,-0.95,-0.99,-6.73,195.312,-24.902,1123.047,-22.35,-9.75,-31.80,17.15
1849,-1.11,2.73,-5.35,195.801,-92.285,1123.047,-25.35,-10.65,-31.95,16.91
1858,0.89,-2.15,2.96,145.996,-269.531,1011.230,-24.30,-12.45,-30.75,16.72
1868,-1.92,-1.42,-6.42,215.820,-65.430,804.199,-20.85,-11.70,-28.80,16.91
1878,-3.66,-1.57,-3.56,244.629,-77.148,1352.539,-20.85,-11.70,-28.80,17.01
1888,-0.86,1.31,-5.36,280.273,43.945,1153.320,-18.75,-9.90,-28.65,17.15
1898,2.04,0.21,-6.08,143.066,-54.688,925.781,-21.45,-9.90,-31.65,17.10
1910,-3.27,-1.87,-4.25,180.664,-30.762,1377.441,-23.70,-10.35,-34.20,16.96
1920,-2.59,-0.53,-3.34,187.500,34.668,930.176,-26.10,-10.35,-33.90,17.10
1930,-0.53,0.32,-5.62,184.570,49.805,1163.574,-26.10,-10.35,-33.90,16.82
1940,2.20,2.36,-7.10,225.098,-146.973,860.352,-22.80,-10.05,-29.55,16.91
1950,-1.76,-3.95,-7.04,204.590,42.969,848.633,-20.85,-11.25,-28.80,16.96
1960,-3.46,0.95,-4.79,211.426,46.875,1164.063,-20.85,-11.25,-28.80,17.15
1970,-0.56,0.01,-4.53,165.039,72.754,873.047,-20.10,-10.50,-31.05,16.91
1982,-1.93,0.06,-5.89,180.176,51.758,1267.578,-23.40,-8.25,-33.45,17.01
1992,-1.18,2.46,-11.13,67.871,53.223,778.809,-26.10,-7.95,-34.20,16.96
2002,-0.46,-0.54,-7.69,378.906,-17.578,844.727,-23.70,-9.45,-33.15,17.10
2012,-2.12,1.62,-9.90,220.703,45.898,1319.336,-23.70,-9.45,-33.15,16.82
2022,-0.39,0.43,-9.24,155.273,81.543,1104.492,-19.20,-9.90,-27.90,16.82
2032,1.59,-1.42,-6.04,233.398,-83.984,948.242,-18.90,-8.55,-29.55,16.91
2042,0.98,0.87,-9.52,111.816,4.883,1019.531,-18.90,-8.55,-29.55,17.10
2054,-2.33,2.06,-6.72,154.785,13.672,1153.809,-24.60,-9.90,-33.90,16.91
2064,-2.27,-0.04,-8.21,266.113,-89.844,1015.137,-23.25,-9.75,-30.30,16.91
2074,-2.40,-0.87,-8.31,270.020,30.762,881.836,-18.60,-10.50,-28.35,16.91
2084,0.79,-2.49,-4.89,113.281,-28.320,1161.621,-18.60,-10.50,-28.35,16.96
2094,0.72,-0.64,-9.77,281.250,-240.723,1023.437,-19.50,-9.45,-31.65,16.77
2104,-3.17,2.29,-9.68,195.312,-226.074,996.582,-24.00,-10.05,-33.75,17.01
2116,1.37,0.32,-8.58,25.391,15.625,1254.395,-23.40,-10.35,-33.45,16.77
2126,1.93,0.37,-8.56,216.797,30.762,963.379,-22.05,-10.05,-30.30,17.01
2136,1.44,0.95,-11.94,310.547,-121.582,1028.809,-18.45,-10.35,-28.65,17.10
2146,2.54,1.79,-7.08,-56.152,-6.348,1078.125,-16.80,-7.95,-28.65,17.25
2156,0.70,1.18,-10.65,228.516,-60.059,1133.301,-22.20,-8.25,-31.20,16.77
2166,-0.18,3.27,-13.43,284.180,134.766,1006.836,-22.20,-8.25,-31.20,16.91
2176,0.81,-0.03,-11.69,19.531,-24.414,1183.105,-24.00,-10.50,-31.80,16.82
2188,-0.21,0.88,-9.87,211.426,15.137,795.410,-19.35,-11.70,-28.80,17.10
2198,1.09,3.77,-10.50,197.266,-194.336,867.676,-17.85,-8.85,-28.05,16.91
2208,-0.27,1.66,-12.11,221.191,-125.977,1167.969,-19.35,-8.85,-30.30,17.15
2218,0.69,-1.27,-12.57,363.770,-124.023,1039.063,-19.35,-8.85,-30.30,17.15
2228,0.73,0.34,-14.68,115.234,-140.625,1301.270,-24.60,-10.35,-32.70,16.82
2238,-1.71,-2.21,-10.27,166.992,-91.797,848.633,-20.85,-10.50,-28.80,17.25
2248,-4.15,0.61,-14.34,228.027,-41.504,879.883,-20.85,-10.50,-28.80,17.01
2260,0.50,4.17,-18.89,56.641,94.727,893.555,-19.65,-8.85,-29.85,16.91
2270,-0.72,2.85,-13.05,320.312,154.297,770.020,-21.90,-8.25,-32.70,17.01
2280,0.98,-3.60,-14.86,200.195,4.883,1342.773,-24.00,-11.25,-33.00,17.01
2290,1.45,-3.16,-17.76,284.668,-77.637,1300.293,-20.55,-11.25,-28.35,17.25
2300,0.26,-4.22,-13.36,67.383,94.238,1148.926,-20.55,-11.25,-28.35,17.15
2310,0.67,-1.49,-9.79,147.949,15.625,1014.160,-18.00,-8.70,-30.45,17.01
2320,4.80,1.12,-18.73,277.344,-98.633,1397.949,-22.20,-7.95,-32.70,17.15
2332,2.61,0.18,-15.79,180.664,-123.047,1319.336,-22.80,-9.30,-32.55,17.01
2342,-2.46,0.13,-18.31,261.719,-4.883,725.098,-17.25,-10.35,-26.40,16.91
2352,0.19,-7.17,-16.46,39.551,18.066,1237.305,-16.50,-7.05,-27.90,17.25
2368,-3.53,-5.12,-16.72,140.137,196.289,740.723,-23.25,-9.75,-32.25,17.10
2377,-0.11,-5.28,-19.53,148.926,114.258,1363.281,-23.25,-9.75,-32.25,17.01
2387,4.14,-5.05,-17.58,465.332,135.254,975.098,-17.40,-10.05,-26.55,17.15
2397,3.36,-2.63,-15.95,153.320,-33.691,669.922,-18.90,-8.55,-29.55,17.15
2411,2.02,-1.82,-14.44,290.039,96.680,522.949,-22.35,-9.30,-32.55,16.91
2421,-0.17,1.57,-10.85,54.688,-200.195,799.805,-22.20,-9.90,-30.15,17.10
2431,0.32,0.39,-15.52,236.816,154.297,424.316,-22.20,-9.90,-30.15,17.25
2441,-2.18,3.13,-13.49,208.008,-207.031,1172.363,-18.00,-8.70,-27.45,16.96
2451,-5.49,4.38,-15.76,135.254,109.375,712.402,-22.20,-6.75,-29.70,17.10
2461,-5.24,7.61,-12.22,177.734,-142.090,784.668,-22.20,-6.75,-29.70,16.82
2471,-2.22,-1.43,-15.47,500.977,-48.828,804.687,-18.15,-11.70,-25.35,16.96
2483,2.16,4.56,-16.93,130.371,-3.906,770.996,-17.85,-8.55,-25.80,16.72
2493,-0.22,2.11,-12.89,70.801,1.953,678.711,-22.65,-8.70,-30.90,16.82
2503,2.82,-0.12,-15.82,69.824,-429.199,1208.496,-23.40,-10.65,-29.40,17.01
2513,-4.77,-2.70,-17.69,255.859,-281.738,1188.477,-23.40,-10.65,-29.40,17.01
2523,-0.27,-2.37,-16.02,51.758,-348.633,970.703,-17.10,-9.75,-26.55,17.10
2533,-7.31,-1.82,-20.41,290.039,-65.918,1146.484,-21.60,-8.85,-30.75,17.10
2543,-2.66,2.73,-19.80,225.586,-313.477,550.293,-21.60,-8.85,-30.75,16.72
2555,-2.49,-4.89,-20.87,167.969,44.434,980.957,-18.90,-8.55,-26.85,17.10
2565,3.08,-3.37,-18.15,150.391,-181.641,1533.203,-22.95,-8.25,-30.90,16.77
2575,2.95,-5.41,-21.29,263.672,-219.238,672.852,-22.80,-10.95,-29.55,17.01
2585,1.92,-4.31,-20.28,123.047,-178.223,1532.227,-22.80,-10.95,-29.55,17.15
2595,2.56,-5.55,-19.79,281.250,-170.898,936.523,-19.95,-8.70,-29.40,17.25
2605,-2.89,-2.08,-22.71,50.781,-10.254,1410.645,-24.75,-9.75,-32.25,16.91
2617,-0.45,-4.94,-24.70,268.555,132.812,1131.836,-20.55,-10.95,-28.35,17.25
2627,-3.18,-0.91,-19.91,289.062,52.246,983.398,-15.45,-8.85,-27.60,17.25
2637,1.83,0.75,-15.18,239.258,54.199,612.305,-15.45,-8.85,-27.60,16.96
2646,2.61,-3.51,-21.31,191.406,-188.477,1127.441,-23.55,-9.30,-32.55,16.96
2656,-0.32,1.61,-18.63,162.598,100.586,876.953,-17.25,-10.65,-26.70,17.10
2666,-0.67,-0.46,-20.51,127.930,-227.051,809.570,-17.25,-10.65,-26.70,17.10
2676,1.60,-2.63,-15.91,211.426,-299.316,1604.004,-23.40,-7.50,-31.95,17.10
2688,-2.52,2.44,-15.76,182.129,39.063,599.121,-21.00,-10.65,-29.40,17.29
2698,3.08,1.07,-19.08,-18.066,82.520,1421.387,-18.15,-8.55,-26.55,17.25
2708,4.44,4.88,-18.98,119.141,-99.121,1068.848,-20.70,-6.75,-31.65,17.15
2718,-0.99,-0.36,-17.52,109.375,-128.418,937.012,-20.70,-6.75,-31.65,16.82
2728,-0.02,2.39,-14.74,85.449,-201.660,1457.520,-18.60,-8.85,-27.30,16.96
2738,3.18,-0.98,-20.69,163.086,-29.297,897.949,-19.20,-7.50,-29.70,17.15
2748,-2.72,-0.27,-18.75,368.164,-19.043,1319.336,-19.20,-7.50,-29.70,17.15
2760,-3.40,0.91,-23.62,89.844,210.937,922.852,-19.65,-9.75,-29.55,17.10
2770,4.52,0.34,-19.84,132.324,-91.797,780.273,-16.20,-6.45,-28.35,17.25
2780,-0.15,0.76,-18.12,348.633,-252.441,1084.961,-22.65,-8.70,-31.95,17.25
2790,3.33,-3.04,-22.35,304.687,-357.910,778.809,-20.25,-9.45,-31.65,16.96
2800,5.63,-5.63,-20.78,167.480,-150.879,1220.215,-20.25,-9.45,-31.65,16.82
2810,9.92,-1.77,-19.34,139.160,-489.258,1999.939,-19.95,-5.55,-31.20,17.15
2820,5.56,0.95,-24.24,140.625,-460.937,746.582,-20.55,-7.65,-30.75,17.15
2832,-2.21,-0.83,-20.69,308.105,-222.656,832.520,-16.20,-8.10,-26.55,17.25
2842,-6.77,1.66,-19.51,245.117,-2.441,1096.680,-19.20,-4.35,-30.90,17.25
2852,-5.90,-3.82,-19.87,-39.063,-87.891,1238.770,-19.20,-4.35,-30.90,16.77
2862,-3.20,-6.29,-24.53,266.602,-190.430,1350.586,-16.80,-6.30,-26.70,17.10
2872,-4.98,-3.36,-22.57,348.633,-297.852,1273.926,-19.20,-4.35,-29.40,17.10
2887,4.73,-12.06,-21.24,561.035,-88.867,916.992,-15.90,-6.45,-27.60,17.01
2896,12.89,-11.56,-27.97,0.000,-151.367,1514.648,-20.25,-4.65,-33.15,16.91
2908,3.74,-12.14,-21.95,-205.078,-150.879,1411.621,-18.75,-8.70,-28.95,17.15
2918,-0.89,-6.21,-18.96,117.676,-182.617,1022.949,-15.15,-4.50,-25.35,17.15
2928,0.94,-4.47,-22.74,-166.016,-129.395,1490.234,-15.15,-4.50,-25.35,17.15
2938,-1.54,-0.34,-21.55,-90.820,-315.918,872.559,-19.35,-6.15,-29.55,17.25
2948,3.40,2.74,-19.56,81.055,-208.496,1120.605,-14.10,-4.35,-25.95,17.01
2958,-1.32,6.76,-20.13,117.188,272.461,942.871,-14.10,-4.35,-25.95,17.29
2968,0.24,4.60,-22.80,-181.152,336.914,1415.039,-19.50,-7.50,-27.90,17.25
2980,8.37,4.24,-24.75,306.152,-437.500,743.652,-15.30,-4.65,-27.15,17.25
2990,0.66,9.69,-24.46,151.855,-260.742,1092.285,-21.60,-4.95,-30.75,17.15
3000,5.11,5.21,-19.97,370.605,-453.125,863.281,-18.15,-6.90,-27.30,17.34
3010,-4.20,4.98,-27.27,-52.246,-263.184,1040.527,-18.15,-6.90,-27.30,17.29
3020,-0.07,-0.98,-18.33,429.687,-351.562,806.152,-21.45,-5.55,-31.65,17.25
3030,-2.41,-3.12,-21.17,444.824,-418.945,1106.445,-16.80,-7.95,-26.70,16.62
3040,-1.61,-3.98,-20.01,170.410,-96.680,937.012,-17.10,-3.75,-28.80,17.01
3052,-2.14,-7.36,-24.82,383.789,-156.738,1648.438,-20.70,-5.55,-32.40,16.91
3062,-0.60,-8.50,-23.42,205.078,-225.098,1323.242,-20.70,-5.55,-32.40,17.01
3072,2.32,-4.33,-23.27,-83.496,-50.293,1189.941,-18.75,-3.45,-30.90,17.29
3082,-0.16,-1.93,-24.05,83.984,45.410,211.914,-19.20,-7.95,-30.90,17.01
3092,6.02,-0.92,-25.13,98.145,-265.137,958.984,-19.20,-7.95,-30.90,17.25
3102,1.96,-3.29,-24.97,225.586,-270.996,1180.664,-21.30,-3.75,-30.75,17.25
3112,-0.05,-0.63,-24.33,104.492,-118.652,1163.086,-17.85,-7.65,-27.30,17.01
3124,0.72,-4.72,-25.92,208.984,-228.027,1365.234,-14.70,-4.95,-29.10,17.29
3134,6.18,-2.47,-25.44,412.598,-410.645,891.602,-20.25,-5.10,-31.65,16.91
3144,1.76,0.98,-27.53,182.617,-230.469,707.031,-20.25,-5.10,-31.65,16.96
3154,0.13,-1.08,-22.39,-20.996,-99.609,962.891,-18.90,-3.30,-30.30,17.10
3164,0.80,-4.15,-18.73,585.449,-173.828,798.828,-18.45,-7.05,-30.90,17.15
3174,-7.96,-4.27,-25.28,-100.586,91.797,1003.906,-15.90,-4.50,-28.05,17.01
3186,-9.95,-1.21,-28.47,599.609,-100.586,1215.332,-17.10,-7.35,-28.80,17.10
3196,-11.08,1.82,-22.63,-61.523,55.176,1287.598,-17.10,-7.35,-28.80,17.34
3206,-7.31,1.75,-24.64,135.254,-105.957,1052.734,-18.45,-4.65,-31.65,16.96
3216,-2.96,3.86,-26.32,494.141,-93.750,-281.250,-18.45,-4.65,-31.65,17.10
3226,1.32,3.56,-22.98,76.172,48.340,1520.020,-17.25,-4.35,-31.65,17.25
3236,2.78,4.95,-23.45,115.234,-219.727,671.875,-14.55,-7.50,-28.20,17.10
3246,3.38,4.56,-32.98,424.316,-320.801,952.148,-14.55,-7.50,-28.20,17.10
3258,1.01,5.93,-24.15,124.512,-514.648,1063.965,-18.75,-5.10,-30.90,17.25
3268,-6.84,-1.70,-28.94,-69.824,117.676,1999.939,-18.75,-5.10,-30.90,17.15
3278,-5.38,-6.65,-25.47,421.387,-482.910,891.602,-18.75,-3.45,-31.95,17.34
3288,-6.31,-3.66,-29.55,-196.289,124.023,1634.766,-15.30,-5.85,-27.15,17.25
3298,1.22,-7.11,-29.55,251.953,-189.941,1081.543,-15.30,-5.85,-27.15,16.91
3308,1.79,-0.95,-27.98,-105.957,-10.254,868.652,-16.80,-6.30,-31.20,17.10
3318,9.83,-8.08,-24.48,560.547,-272.949,1999.939,-13.35,-2.70,-26.70,17.25
3330,5.57,-3.95,-31.25,130.371,-172.852,1999.939,-18.90,-4.95,-31.05,17.25
3340,2.42,2.82,-30.86,-129.883,-230.957,647.461,-15.15,-5.70,-27.60,17.10
3350,-1.24,-5.63,-27.93,345.215,-761.719,1999.939,-15.15,-5.70,-27.60,17.25
3360,-10.93,3.98,-29.66,31.738,-178.223,553.223,-15.75,-5.55,-28.65,17.10
3370,-0.46,-3.08,-34.95,152.832,-238.281,1999.939,-14.70,-2.10,-28.35,17.25
3380,5.82,4.06,-31.31,264.648,-351.562,338.379,-18.15,-4.05,-31.05,16.91
3390,0.49,-2.05,-26.40,94.727,-90.332,1947.266,-13.50,-3.30,-27.30,17.25
3406,6.63,3.14,-31.34,20.508,-346.191,37.598,-17.25,-3.90,-32.40,17.15
3416,7.24,-2.21,-34.27,445.312,-355.469,1655.762,-13.35,-5.55,-28.65,17.01
3426,15.88,4.50,-30.99,-246.582,-410.156,1423.828,-15.45,-2.10,-32.25,17.25
3436,-0.52,4.51,-29.60,377.930,-500.488,546.875,-15.45,-2.10,-32.25,17.25
3446,-7.44,-3.70,-30.34,240.234,-501.465,835.449,-14.70,-0.90,-30.75,16.77
3456,-13.76,-3.59,-27.05,-272.461,-125.488,632.812,-15.90,-5.25,-29.55,17.15
3468,-14.61,-6.43,-35.50,-281.738,219.727,1442.871,-15.30,-3.90,-30.45,16.96
3478,-4.68,-7.32,-33.56,-154.785,-122.070,901.855,-15.30,-3.90,-30.45,17.10
3488,-3.00,-6.78,-34.66,55.176,-106.445,781.250,-16.65,-3.75,-30.30,17.29
3498,3.87,-8.08,-45.98,146.484,-139.648,815.918,-11.25,-4.50,-26.85,17.15
3508,9.60,-7.55,-32.41,125.977,-145.508,1499.512,-11.25,-4.50,-26.85,17.29
3518,8.63,0.76,-40.03,363.770,-613.281,1325.684,-13.20,-5.25,-27.60,17.01
3530,5.78,0.15,-35.97,599.121,-530.273,1062.988,-15.30,-1.95,-30.15,17.15
3540,10.46,-0.72,-36.08,236.816,-311.035,1788.574,-13.50,-6.15,-27.30,17.29
3550,2.53,4.00,-39.18,-294.434,-335.937,923.828,-13.95,-0.15,-29.55,17.01
3560,-7.12,3.14,-38.10,-103.027,-184.570,697.266,-13.95,-0.15,-29.55,17.25
3570,-1.60,-1.55,-36.92,644.531,-307.129,1027.832,-13.35,-1.50,-28.65,17.15
3580,-1.89,4.42,-37.56,131.348,-232.910,1244.141,-14.70,-3.30,-29.85,17.25
3590,-4.69,5.60,-37.62,-195.312,64.941,1102.051,-14.70,-3.30,-29.85,17.10
3602,-0.66,-1.36,-33.49,266.602,-70.313,1999.939,-13.20,-2.55,-31.05,17.29
3612,5.54,2.45,-44.24,-218.750,-211.426,1432.129,-11.10,-2.70,-27.90,17.01
3622,0.82,0.63,-30.70,48.828,-648.437,363.281,-14.70,-2.55,-32.25,17.10
3632,-6.87,-0.38,-31.86,194.336,-119.141,710.937,-12.30,-2.25,-28.65,17.01
3642,-5.36,-8.08,-34.39,394.531,-16.113,1372.070,-12.30,-2.25,-28.65,17.25
3652,1.01,-3.15,-32.59,146.973,-261.719,1812.500,-10.65,-3.15,-28.95,17.10
3662,6.49,-2.20,-30.03,48.340,-563.477,1514.648,-13.05,-0.75,-31.95,17.25
3674,-4.84,-2.60,-30.36,170.898,73.242,947.754,-11.70,-3.30,-28.35,17.34
3684,2.24,5.44,-27.84,464.844,50.293,1018.066,-12.60,-1.50,-30.45,17.10
3694,4.75,0.20,-32.02,258.301,-241.211,1635.254,-12.60,-1.50,-30.45,17.10
3704,10.94,-2.67,-31.86,141.113,-33.203,1999.939,-12.45,-0.45,-31.50,17.01
3714,14.05,-3.39,-27.36,-71.777,-386.719,1999.939,-12.75,-3.75,-30.75,17.01
3724,7.27,4.09,-28.42,-60.059,-746.582,808.594,-12.75,-3.75,-30.75,17.15
3734,0.91,8.87,-32.39,92.773,-712.891,528.809,-11.70,-3.75,-30.30,17.25
3746,-10.53,1.21,-38.67,20.020,-102.051,894.043,-12.75,-0.15,-30.75,17.25
3756,-7.11,-1.89,-27.98,64.941,2.441,1595.703,-11.40,-2.70,-29.70,17.25
3766,-3.08,2.31,-30.34,-436.523,-403.809,1329.590,-9.75,-0.15,-29.85,16.96
3776,1.31,3.02,-34.68,67.871,-512.207,1413.086,-9.75,-0.15,-29.85,17.25
3786,0.15,6.02,-32.53,-339.844,-546.387,1234.375,-8.55,0.15,-31.50,17.25
3796,5.39,3.99,-34.57,156.738,-276.367,911.133,-10.65,1.50,-32.70,17.10
3805,1.11,1.84,-28.80,68.848,-777.832,1327.637,-10.65,1.50,-32.70,17.25
3817,-0.40,-5.01,-37.27,-246.582,-183.594,1029.785,-9.90,0.75,-31.65,17.15
3827,-6.34,-4.77,-34.89,-280.273,-7.812,1780.762,-9.90,0.75,-31.65,17.15
3837,-5.84,-7.92,-28.98,-122.559,270.020,918.945,-8.70,0.45,-33.30,17.29
3847,0.70,-6.31,-36.39,86.426,-222.168,1252.930,-8.70,0.00,-32.40,17.34
3857,7.32,-5.11,-34.71,-26.367,70.313,888.184,-8.70,0.00,-32.40,16.91
3867,7.06,-6.84,-32.27,-492.187,-111.816,1313.965,-9.75,0.45,-32.25,17.29
3877,10.54,-0.91,-36.52,-72.754,-100.586,614.746,-9.75,0.45,-32.25,17.29
3889,4.97,-0.08,-24.34,-159.668,-431.152,755.859,-8.70,1.95,-31.65,17.25
3899,3.60,-4.09,-29.68,-20.020,-578.613,1000.977,-8.70,1.95,-31.65,17.15
3909,1.91,-2.05,-53.64,-197.266,-214.844,942.871,-7.65,1.05,-32.70,17.29
3923,-2.95,3.97,-34.89,-305.176,444.336,1248.535,-7.95,0.30,-32.70,16.91
3933,11.25,5.31,-31.38,176.758,-87.891,201.660,-7.95,0.30,-32.70,17.10
3943,24.56,-4.82,21.25,-160.645,-195.801,1417.480,-8.40,0.30,-32.70,17.15
3953,18.69,3.40,-36.56,-168.457,-234.375,1166.504,-8.55,1.35,-32.55,17.01
3965,2.21,5.35,-24.52,-132.812,-60.547,1290.039,-7.80,0.90,-31.80,17.25
3975,-4.61,-3.61,-26.95,-263.184,-522.461,859.863,-8.55,0.90,-33.75,17.25
3985,-8.15,1.89,-27.43,207.031,-312.500,796.387,-8.55,0.90,-33.75,17.25
3995,-9.25,-3.42,-27.11,-36.133,-203.613,1106.934,-7.35,-0.15,-31.80,17.29
4005,-10.12,-10.05,-33.48,50.781,64.941,1127.930,-7.35,0.90,-32.25,17.25
4015,-1.49,-8.56,-30.91,-284.668,270.508,904.785,-7.35,0.90,-32.25,17.15
4025,3.57,-7.21,-27.94,-102.539,177.734,818.848,-7.20,0.75,-32.70,17.25
4037,1.81,-2.27,-28.73,-391.602,-407.227,706.543,-7.65,0.30,-33.15,17.10
4047,1.82,0.46,-32.31,53.711,-514.160,87.402,-6.90,2.25,-32.70,17.25
4057,-0.64,4.74,-25.54,-91.309,-577.148,869.141,-7.65,2.25,-33.15,17.25
4067,-2.63,3.37,-30.31,-184.082,-130.859,1113.770,-7.65,2.25,-33.15,17.25
4077,0.79,-1.97,-30.83,-312.988,-181.641,1188.477,-8.55,0.90,-32.55,17.25
4087,2.35,5.34,-29.37,-342.285,-209.473,1150.879,-7.05,1.65,-34.50,16.91
4097,0.55,8.11,-27.73,98.145,-383.301,360.352,-6.60,1.35,-34.50,17.10
4109,7.37,12.57,-27.05,-99.121,-558.594,611.816,-7.05,2.85,-33.75,16.82
4119,1.47,3.77,-25.13,61.035,-377.930,564.941,-6.60,1.35,-34.50,17.01
4129,-4.63,-1.51,-26.73,-91.797,-92.773,1873.535,-5.25,1.50,-34.20,17.10
4139,2.89,1.83,-31.69,71.777,-69.824,1346.680,-5.25,1.50,-34.20,17.25
4148,0.44,1.46,-30.61,-204.590,-313.965,789.062,-5.85,2.55,-35.55,17.29
4158,1.29,-4.45,-26.66,234.863,-175.293,764.648,-4.50,1.95,-34.65,17.10
4168,-2.98,-5.15,-28.11,-130.859,-359.863,1772.949,-4.50,1.95,-34.65,17.25
4180,-7.22,-11.40,-26.16,-183.105,-236.328,1503.906,-4.95,1.95,-35.70,17.01
4190,-7.03,-10.53,-29.98,-201.660,-17.578,1190.430,-4.95,1.95,-35.70,16.82
4200,-1.15,-7.31,-28.17,62.500,-304.199,575.195,-3.90,2.10,-34.50,17.25
4210,3.14,-10.60,-30.47,0.977,62.988,1213.867,-3.75,2.25,-34.95,17.15
4219,-0.92,-1.60,-29.63,-247.070,254.395,711.914,-3.75,2.25,-34.95,17.25
4229,5.29,-1.88,-27.63,-159.668,155.273,525.391,-5.25,1.05,-34.20,17.01
4239,2.85,-4.20,-25.24,127.930,-437.500,732.422,-4.95,1.50,-33.45,17.25
4251,-4.22,-0.23,-27.57,-200.684,-134.277,452.637,-5.10,2.55,-33.75,17.10
4261,-7.78,-0.54,-33.76,-260.254,141.113,941.895,-4.20,2.25,-32.70,17.15
4271,-8.90,-3.52,-30.31,112.305,11.230,940.430,-4.20,2.25,-32.70,17.25
4281,-6.69,-5.34,-26.97,-180.664,-229.492,1492.676,-4.80,2.10,-35.25,17.29
4291,1.01,-2.60,-30.26,-107.422,82.031,1588.379,-4.50,1.95,-35.40,17.25
4301,2.94,-6.29,-25.52,-209.473,-269.043,1411.621,-3.60,2.10,-35.25,17.25
4311,-0.34,4.15,-29.92,-191.895,-419.922,692.383,-2.85,2.10,-34.80,16.96
4323,-1.63,-2.14,-27.56,-120.117,-99.609,1074.707,-2.85,2.55,-36.00,17.25
4333,3.68,2.62,-26.99,41.992,-503.906,466.309,-1.50,2.25,-34.65,17.10
4342,6.04,-5.27,-28.85,-222.168,166.504,1434.570,-3.00,1.05,-34.20,17.44
4352,11.68,2.04,-29.61,-130.859,-126.465,997.559,-3.00,1.05,-34.20,17.25
4362,11.11,-2.00,-31.06,102.539,-468.262,810.059,-1.80,1.05,-33.45,17.15
4372,0.53,1.39,-26.32,-401.855,-58.105,1135.742,-0.75,1.95,-32.40,17.34
4382,1.49,-2.28,-28.54,202.637,-80.078,626.953,-1.80,2.25,-33.45,16.91
4394,-5.21,1.41,-34.53,-309.570,-275.391,858.398,-2.10,0.90,-33.00,17.29
4404,-6.06,0.17,-28.75,-171.875,-222.656,999.512,-2.10,0.90,-33.00,17.10
4414,-6.24,5.10,-24.49,8.301,-169.434,699.219,-2.85,1.65,-31.80,16.82
4424,-0.83,4.31,-33.93,-130.371,-175.781,929.199,-1.80,2.70,-33.45,17.10
4438,9.20,9.53,-31.14,-474.121,-435.059,1682.617,-1.80,2.70,-33.45,16.96
4448,8.82,7.71,-28.69,48.340,-687.500,464.355,-2.55,1.95,-33.15,17.10
4460,4.37,10.56,-32.10,-131.348,-419.434,664.062,-1.50,1.05,-33.15,17.29
4470,6.11,4.91,-31.75,-110.840,-41.504,856.445,-1.20,1.35,-33.30,16.91
4480,6.05,6.05,-30.88,54.199,-396.484,1011.230,-1.20,1.35,-33.30,17.25
4489,9.60,12.97,-33.24,-291.016,-775.391,990.723,-2.10,1.35,-33.30,17.25
4499,-14.24,0.38,-31.64,105.957,-377.441,1237.793,-0.75,1.50,-31.95,17.29
4509,-12.96,-4.71,-31.88,-18.555,-467.773,1859.375,-1.20,2.85,-33.30,17.25
4519,-26.27,-4.53,-33.59,-134.766,62.012,1572.266,-0.45,1.65,-33.00,16.82
4531,-19.54,-3.99,-32.73,-158.691,42.480,1358.398,-0.90,1.65,-33.00,17.29
4541,-7.10,-1.54,-34.24,280.762,7.812,727.051,-0.75,1.95,-31.95,17.01
4551,6.40,-4.21,-32.02,270.020,-138.672,1753.418,-1.05,0.00,-32.40,17.25
4561,6.08,0.07,-34.13,-532.715,92.773,972.656,-1.05,0.00,-32.40,17.44
4571,1.91,4.75,-31.39,102.051,-687.012,478.027,0.15,1.35,-32.55,17.01
4581,-8.85,1.95,-24.81,-209.473,-518.555,785.645,-0.90,1.65,-33.30,17.34
4591,-10.32,4.75,-32.74,117.676,0.977,870.605,0.45,0.45,-33.30,17.29
4603,-12.02,7.24,-25.41,-74.219,132.812,433.105,0.15,0.15,-31.80,17.15
4613,-1.72,7.61,-26.51,-227.051,-579.102,1601.074,0.15,0.15,-31.80,17.25
4623,-14.03,5.47,-27.43,-26.367,-534.668,524.902,-0.45,1.35,-33.30,17.10
4633,-25.52,-0.70,-20.98,178.711,-389.648,546.387,1.50,1.95,-31.95,17.29
4643,-27.99,-4.09,-26.21,51.758,-9.277,1095.703,1.50,1.95,-31.95,17.44
4653,-19.14,-5.47,-27.12,177.246,151.855,1325.684,0.90,1.35,-32.25,17.25
4663,-10.56,-13.08,-30.89,-89.355,58.105,1462.891,1.50,1.50,-32.70,17.10
4675,22.13,-11.02,-29.60,229.492,-258.301,873.047,-0.15,0.15,-33.00,17.15
4685,23.76,-12.53,-30.92,-191.406,-639.160,1588.379,0.30,-0.30,-33.15,17.25
4695,24.78,-15.30,-32.82,149.414,-420.898,531.738,0.30,-0.30,-33.15,17.01
4705,14.20,-15.44,-31.55,-14.160,-675.293,1213.379,0.45,2.85,-32.55,17.15
4715,9.31,-20.60,-36.27,456.543,-433.594,1366.211,1.50,0.75,-33.45,17.01
4725,6.49,-19.35,-26.90,-44.922,262.695,744.141,0.90,1.35,-31.50,17.29
4734,6.25,-16.38,-32.05,6.836,-422.363,1212.891,1.20,0.90,-31.50,17.29
4745,3.73,-20.03,-24.41,-272.949,-327.637,1626.465,1.50,2.25,-32.40,17.44
4755,5.83,-14.66,-28.83,322.754,-728.027,351.562,0.45,0.90,-33.00,17.29
4765,9.20,-29.41,-29.75,-406.250,-585.937,1653.809,1.20,1.35,-32.25,17.01
4775,-2.41,-18.36,-39.95,-143.555,-271.484,269.043,1.20,1.35,-32.25,17.29
4785,-4.08,-23.89,-28.08,346.191,-83.008,832.031,1.65,0.90,-32.55,17.44
4795,-14.77,-18.11,-29.12,-517.578,-60.547,770.996,-1.20,0.45,-33.30,17.29
4805,-5.48,-14.65,-28.64,301.270,44.434,186.523,-0.45,0.45,-31.80,17.44
4817,-5.31,-4.24,-32.88,-99.121,-213.379,945.312,0.00,0.75,-33.15,17.34
4827,-0.79,-10.34,-33.83,-130.859,-880.371,1339.355,0.00,0.75,-33.15,17.25
4837,-8.73,-3.28,-30.81,-34.180,-483.887,742.676,0.75,0.00,-33.45,17.10
4847,-12.31,-3.24,-35.09,389.160,-474.121,295.898,0.45,1.65,-31.50,17.01
4857,-12.42,-4.99,-38.60,-486.816,68.848,1448.242,0.45,1.65,-31.50,17.25
4867,-13.95,-6.90,-38.28,173.828,-108.398,1160.156,0.90,-0.15,-33.30,17.25
4877,-4.32,-8.60,-35.79,-20.020,-462.402,907.227,-0.15,1.35,-34.05,17.34
4889,-6.38,-7.39,-31.89,152.832,-646.484,1008.301,0.90,-0.45,-32.25,17.34
4899,-7.12,-7.02,-37.98,-379.883,-59.570,1101.074,1.05,0.75,-32.70,17.25
4909,-3.73,7.40,-36.81,-366.699,8.789,1607.910,1.05,0.75,-32.70,17.10
4919,3.60,5.38,-26.02,-148.926,244.629,1306.152,0.15,0.00,-33.90,17.15
4928,8.21,15.99,-68.93,-333.984,-114.746,698.242,0.15,-0.45,-33.75,17.25
4938,5.66,18.40,-28.33,-219.238,-5.859,745.605,1.20,0.45,-31.80,17.25
4952,4.16,14.10,-32.81,258.301,-166.992,1116.699,-0.45,0.90,-34.05,17.01
4962,-5.98,9.47,-27.59,73.242,-18.555,1176.270,0.30,1.05,-33.45,17.15
4974,-7.85,1.27,-31.82,175.293,-63.965,688.965,1.20,0.45,-31.50,17.10
4984,-4.95,4.24,-20.92,408.203,-353.516,669.922,1.20,0.45,-31.50,17.25
4994,-7.05,4.65,-28.02,-10.254,-330.078,1480.469,1.80,-0.75,-33.15,17.25
5004,7.64,-5.40,-19.79,-203.125,162.598,560.059,3.00,2.25,-33.45,17.15
5014,14.27,1.44,-26.16,-333.496,173.340,860.840,0.75,0.75,-33.90,17.25
5023,19.91,5.08,-21.83,316.895,-615.723,1031.738,2.25,1.50,-33.15,16.96
5033,6.49,1.36,-39.32,-29.785,-549.805,593.262,2.25,1.50,-33.15,17.25
5045,5.44,4.82,-9.56,-315.430,-182.617,1334.961,2.55,1.50,-32.70,17.01
5055,-1.20,-2.04,-18.71,204.590,125.977,732.910,1.65,0.90,-34.05,17.25
5065,-6.87,3.80,-23.23,92.773,-269.531,919.922,1.65,0.90,-34.05,17.29
5074,1.19,1.69,-29.58,-101.563,-67.871,1459.473,3.00,1.95,-35.70,17.25
5084,-0.33,-1.30,-28.79,-219.238,-25.879,410.645,3.75,0.75,-33.15,17.25
5094,2.93,4.89,-23.70,115.723,-517.578,712.891,3.00,0.30,-34.95,17.15
5104,-0.02,-2.08,-28.98,120.605,-429.687,1017.090,3.75,0.00,-33.45,17.15
5116,-1.35,0.15,-19.57,190.430,-530.273,621.582,3.75,0.00,-33.45,17.25
5126,-0.04,2.12,-26.56,63.477,8.301,1794.434,3.45,0.75,-33.45,17.25
5136,1.73,3.22,-28.37,-266.602,33.203,1214.355,3.90,1.65,-33.75,17.25
5145,7.61,6.91,-27.89,127.441,-424.316,733.887,4.20,0.30,-34.65,17.34
5155,-1.69,-5.02,-29.20,-81.055,-85.938,640.137,5.10,1.65,-33.00,17.29
5165,2.47,-0.72,-29.56,-84.473,-526.855,1457.031,5.10,1.65,-33.00,17.25
5175,13.76,-1.11,-26.53,-98.145,-295.898,1122.070,5.25,0.30,-33.15,17.29
5185,6.35,-0.94,-32.24,-98.633,-674.805,938.965,4.50,-0.30,-33.90,17.34
5197,-1.67,2.98,-5.95,-150.391,-205.078,1096.191,4.50,-0.30,-33.90,17.29
5207,4.38,0.47,-24.92,174.805,-296.387,571.289,2.55,1.05,-34.65,17.25
5216,-2.19,2.40,-28.28,-11.719,-114.258,849.121,5.10,0.45,-32.55,17.15
5226,6.98,0.50,-30.05,510.742,-674.316,1454.590,4.35,1.35,-33.75,17.29
5235,1.88,6.84,-31.11,-302.734,-438.477,448.730,7.05,-0.45,-31.05,17.44
5245,-7.34,5.72,-34.23,74.707,-263.672,597.168,7.05,-0.45,-31.05,17.25
5255,-10.42,1.51,-34.02,-49.805,-371.582,497.070,5.55,-2.85,-32.55,17.25
5267,6.69,-2.63,-35.65,-85.449,-744.141,1280.762,4.95,1.50,-33.15,17.29
5277,2.20,2.95,-36.26,-22.949,-702.637,598.633,4.95,1.50,-33.15,17.15
5286,-7.11,-3.03,-39.68,35.156,18.066,966.309,6.90,1.95,-32.70,17.15
5296,-0.15,-5.15,-34.70,10.742,-205.078,1299.805,6.45,-1.05,-33.90,17.10
5306,2.92,-0.31,-36.74,-156.250,-403.320,966.309,7.05,2.10,-33.00,17.15
5316,-5.28,6.96,-40.40,-35.156,-675.781,384.766,6.15,0.00,-33.45,17.34
5326,-3.58,5.98,-41.07,20.996,-335.449,629.883,6.15,0.00,-33.45,17.53
5338,4.53,9.68,-33.59,-19.531,-817.871,929.687,6.30,-0.90,-34.05,17.25
5348,-2.21,1.15,-40.46,-9.277,-554.687,1227.539,8.40,0.00,-32.70,17.25
5358,-1.11,-0.66,-43.16,14.648,-395.996,851.562,6.30,-0.45,-34.80,17.25
5368,-2.24,4.50,-40.56,-473.633,-472.168,812.988,7.65,0.00,-33.45,17.15
5378,-0.52,-0.40,-42.02,160.156,-830.566,670.898,7.65,0.00,-33.45,16.96
5388,-1.53,-4.54,-53.06,279.785,-476.074,1395.508,8.70,0.75,-31.95,17.29
5398,4.43,-3.50,-40.13,196.777,-232.910,1376.953,7.05,0.90,-34.05,17.49
5409,-7.25,-5.60,-39.24,-204.102,185.059,1078.125,7.05,0.90,-34.05,17.25
5419,-0.14,-1.11,-45.15,53.223,-126.465,1202.148,7.05,-0.45,-34.80,17.44
5429,4.13,-0.31,-43.23,51.270,-216.309,927.734,9.75,-0.45,-31.05,17.34
5439,6.23,5.14,-36.56,268.066,-423.828,1175.781,8.25,0.90,-35.25,17.10
5448,-1.70,-2.43,-37.86,-175.781,-316.406,1108.887,9.15,-1.95,-31.20,17.25
5464,1.42,-1.08,-41.38,-138.184,188.965,936.523,9.30,-0.90,-32.25,17.44
5474,11.73,-3.59,-42.33,49.805,73.242,1034.180,9.60,1.05,-34.65,17.34
5484,10.21,-1.45,-44.29,104.980,-257.324,818.359,10.65,-0.75,-32.70,17.25
5494,9.40,-1.31,-35.69,275.391,-617.187,1060.059,8.70,-0.30,-35.70,17.25
5504,0.55,1.11,-39.85,262.695,-476.562,1467.773,9.90,-2.70,-32.40,17.10
5513,-9.44,-7.86,-39.83,47.363,-573.242,798.340,8.55,-0.15,-34.05,17.29
5523,-6.09,0.63,-38.85,-21.484,-626.953,954.102,11.10,-2.70,-33.15,17.25
5535,6.40,-4.69,-40.01,108.398,-193.848,953.125,11.10,-2.70,-33.15,17.29
5545,9.12,-3.95,-64.02,11.719,-62.988,559.082,9.15,-2.25,-31.95,17.44
5555,17.58,-6.32,-36.73,-221.191,-418.457,1348.633,9.90,-0.30,-34.20,17.25
5565,5.66,3.85,-33.71,-295.410,-456.543,823.730,10.50,-2.10,-32.55,17.25
5575,-4.85,-0.37,-44.50,119.141,-192.871,1553.223,9.60,0.00,-34.65,17.15
5585,-2.71,-8.76,-41.92,321.289,-6.348,470.215,9.60,0.00,-34.65,17.15
5595,10.95,-3.77,-52.72,-91.797,-852.539,948.242,10.95,-0.45,-34.05,17.29
5607,-15.93,-8.63,-42.54,120.117,-260.742,1617.676,11.10,-3.90,-33.90,17.34
5617,-2.33,-2.44,-42.03,216.309,-581.055,404.785,11.10,-3.90,-33.90,17.25
5627,0.05,0.84,-45.22,174.805,-195.801,122.070,11.85,-2.70,-33.15,17.34
5636,3.30,-2.79,-53.93,-4.395,-533.203,988.770,9.30,-1.65,-34.50,16.96
5646,-4.15,-5.94,-40.27,-142.578,-65.918,720.703,12.75,-3.75,-33.00,17.25
5656,-7.94,3.04,-39.50,-82.031,-305.176,394.531,11.10,-1.05,-34.65,17.49
5666,-7.61,5.14,-42.67,-28.320,-10.742,954.590,11.10,-1.05,-34.65,17.29
5678,-0.94,0.28,-41.40,-268.066,-444.824,1462.891,10.35,-1.05,-34.20,17.25
5688,-5.98,1.67,-43.46,-179.687,-107.422,729.980,12.30,-2.70,-32.70,17.25
5698,-0.92,-2.69,-45.90,-311.035,-177.734,1059.570,12.75,-0.90,-36.00,17.25
5708,-10.77,-1.50,-47.37,-292.969,-8.301,1559.082,13.80,-3.15,-32.40,17.44
5718,-6.97,-1.66,-39.68,-32.227,-23.437,1408.691,12.75,-3.30,-34.50,17.15
5728,-2.17,-3.84,-49.52,172.363,-82.520,1553.223,13.35,-2.25,-33.15,17.34
5738,0.08,3.14,-41.59,60.547,-294.434,578.125,12.75,-2.10,-34.50,17.10
5750,5.80,5.79,-47.21,-312.988,-213.867,888.672,12.75,-2.10,-34.50,17.29
5760,-3.86,3.32,-46.31,-123.535,-74.219,1305.176,11.85,-1.50,-34.95,17.25
5770,0.16,4.49,-43.85,30.762,-582.031,1573.242,14.40,-1.65,-33.75,17.15
5779,-2.76,2.38,-51.96,-266.602,-623.047,1508.301,13.20,-2.55,-35.55,17.34
5789,-15.26,2.56,-60.53,-109.863,-498.047,878.906,15.75,-1.50,-33.90,17.15
5799,-13.70,1.57,-45.23,95.215,-333.496,918.945,15.75,-1.50,-33.90,17.25
5809,1.85,2.03,-55.55,199.219,-167.480,1830.078,14.10,-4.35,-33.15,17.25
5821,13.00,1.76,-44.21,40.527,-574.707,1894.531,13.95,-5.25,-34.50,17.34
5831,-5.61,4.84,-37.60,0.000,-530.273,440.430,13.95,-5.25,-34.50,17.29
5841,-10.08,0.44,-40.51,129.883,-162.598,654.297,15.30,-2.25,-34.20,17.34
5851,0.77,4.70,-40.66,31.250,-452.148,1256.836,15.30,-2.25,-34.20,17.29
5860,-4.21,2.50,-44.56,431.152,-84.961,1179.688,14.70,-4.50,-34.80,17.25
5870,-2.05,-0.99,-42.77,322.266,-362.305,700.195,14.85,-2.25,-34.65,17.34
5880,-2.39,3.28,-47.47,-106.934,-522.461,477.051,14.85,-2.25,-34.65,17.49
5893,2.49,-0.56,-51.60,-146.484,219.238,1441.406,15.75,-5.55,-34.95,16.96
5903,-4.83,-1.11,-44.28,-232.422,-366.211,614.258,15.30,-3.45,-35.70,17.29
5913,-5.02,2.21,-55.18,45.410,66.895,867.676,16.80,-5.85,-34.95,17.29
5923,3.25,2.22,-46.31,277.344,-50.293,708.496,16.80,-5.85,-34.95,17.49
5932,8.26,-3.27,-42.56,5.371,-534.180,904.785,17.40,-6.90,-34.05,17.49
5942,7.32,0.69,-49.27,-171.387,-793.945,499.512,16.20,-6.45,-37.50,16.96
5952,-4.02,1.29,-53.40,-411.621,-250.977,1129.883,16.20,-6.45,-37.50,17.29
5964,-5.08,6.60,-45.34,-319.336,-205.078,1044.922,16.05,-5.85,-36.60,16.91
5986,1.25,6.70,-50.86,-35.156,-435.547,1048.340,15.90,-7.65,-36.30,17.25
5996,1.07,6.46,-47.40,-340.332,-340.332,658.691,17.85,-5.70,-35.25,17.44
6006,-0.58,7.75,-49.27,54.199,-560.059,1149.902,17.85,-5.70,-35.25,17.34
6016,2.08,-0.23,-44.80,98.145,-746.582,523.437,18.15,-5.70,-36.75,17.44
6026,-1.67,3.45,-49.81,-198.730,-268.066,1286.621,18.45,-6.75,-34.65,17.34
6036,-4.29,0.15,-53.65,-48.340,-457.520,1445.801,18.45,-6.75,-34.65,17.25
6048,-0.04,0.95,-50.04,88.867,-386.230,1589.844,19.35,-7.65,-33.30,17.29
6058,5.59,3.21,-42.29,5.371,-321.777,1301.270,16.50,-6.30,-37.35,17.25
6067,-0.17,4.94,-45.90,38.086,-320.312,1003.418,20.25,-7.50,-34.65,17.29
6077,3.78,2.89,-43.78,161.621,-822.754,1126.465,17.10,-7.35,-37.05,17.15
6086,-3.90,-3.37,-52.89,294.922,-560.547,1008.301,17.10,-7.35,-37.05,17.29
6096,5.50,-6.69,-46.24,291.992,-543.945,380.371,18.60,-7.65,-36.30,17.10
6106,0.37,3.33,-41.11,65.918,-63.965,373.047,18.90,-3.75,-36.00,17.29
6118,-2.34,-0.86,-37.96,-309.082,-595.215,821.289,18.45,-9.45,-36.60,17.25
6128,-0.33,-8.40,-53.05,377.930,-492.676,871.582,17.55,-7.05,-36.90,17.15
6138,-0.76,-6.11,-47.10,48.340,-728.516,1364.746,17.55,-7.05,-36.90,17.25
6148,-5.52,-5.93,-47.19,42.480,-496.582,1166.992,18.45,-7.50,-37.65,17.44
6158,-0.44,1.21,-36.77,-47.852,-598.145,410.156,19.95,-8.25,-35.40,17.34
6168,1.63,-6.20,-38.18,384.277,-478.027,704.590,19.95,-8.25,-35.40,17.29
6180,1.02,-5.43,-35.19,-47.363,-494.629,1788.086,20.70,-7.50,-34.95,17.15
6190,2.89,1.59,-40.51,-409.180,-528.809,826.172,18.75,-10.65,-35.70,17.34
6200,-0.54,-2.92,-41.79,323.242,-300.293,703.125,20.55,-7.35,-35.25,17.10
6210,-0.40,-0.21,-49.42,8.301,-571.289,368.652,18.90,-10.95,-35.25,17.10
6220,-3.11,1.72,-42.27,-123.535,-200.684,694.824,18.90,-10.95,-35.25,17.29
6230,2.34,4.54,-37.44,322.754,-578.613,698.242,19.95,-9.90,-35.40,17.44
6240,5.60,2.05,-40.58,436.035,-1145.996,1013.672,18.15,-8.10,-36.00,17.29
6252,-5.37,-6.99,-43.05,66.895,-292.480,752.441,19.95,-9.90,-36.00,17.34
6262,0.63,-3.37,-44.85,-77.148,40.527,1028.809,19.65,-8.85,-36.30,17.44
6272,8.23,-3.61,-37.01,326.660,-302.734,584.473,19.65,-8.85,-36.30,17.29
6282,4.89,-3.73,-43.18,217.773,-175.293,1348.633,20.25,-8.25,-36.90,17.10
6292,14.93,3.16,-43.35,-154.785,-723.145,396.973,20.25,-8.25,-36.90,17.10
6302,16.66,-2.62,-32.09,-3.906,-689.941,599.609,20.25,-8.25,-36.90,17.29
6312,-0.48,-4.37,-49.05,-720.703,160.645,1240.723,22.05,-9.75,-34.80,17.34
6324,8.29,0.24,-48.69,248.535,-312.988,333.496,19.50,-11.85,-36.15,17.68
6334,-0.03,-4.66,-36.60,384.766,-1074.707,1581.543,21.45,-9.90,-36.15,17.34
6344,-10.22,5.03,-39.76,-294.434,-206.055,502.441,21.45,-9.90,-36.15,17.29
6354,-2.73,0.49,-43.83,158.203,-624.023,1075.684,20.55,-8.55,-37.50,17.44
6364,-11.60,3.29,-29.43,148.437,-497.070,567.871,22.65,-13.05,-35.40,16.96
6374,-6.08,2.88,-47.50,93.262,-282.227,489.746,22.65,-13.05,-35.40,17.44
6384,-4.06,6.79,-34.85,213.379,-407.715,630.371,22.20,-10.35,-35.70,17.44
6396,3.24,2.79,-44.45,77.148,-339.844,570.312,20.25,-15.00,-38.10,17.49
6406,-2.46,8.78,-45.08,415.039,-740.723,1242.676,20.10,-10.50,-37.50,17.44
6416,-5.18,2.07,-46.93,171.875,-427.246,672.363,21.45,-13.80,-36.15,17.25
6426,4.02,0.44,-40.44,102.539,-559.082,785.645,21.45,-13.80,-36.15,17.15
6435,-8.51,-3.11,-48.41,-37.598,-127.930,1520.508,22.35,-12.15,-35.55,16.96
6445,-0.08,4.77,-39.12,259.766,-386.230,352.539,21.45,-14.25,-37.35,17.44
6455,2.94,4.63,-49.42,397.461,-656.250,525.391,21.30,-10.50,-37.50,17.44
6466,-15.67,-0.01,-38.09,-346.680,-103.027,1327.148,22.35,-14.10,-36.30,17.25
6476,-13.79,1.41,-40.67,-239.258,-354.492,1616.699,22.35,-12.15,-37.80,17.34
6486,-8.99,6.96,-43.89,52.734,-176.270,487.793,22.65,-14.25,-36.60,17.49
6501,3.21,13.02,-43.98,-344.238,322.266,1015.137,20.70,-14.70,-38.85,17.15
6511,10.82,15.01,-42.13,149.414,-747.070,782.715,20.70,-14.70,-38.85,17.29
6521,2.08,11.98,-40.99,358.887,-748.535,296.387,24.60,-15.00,-35.40,17.34
6530,-13.47,2.30,-46.34,-329.590,-571.289,1619.629,23.25,-15.30,-37.05,17.34
6542,-15.31,4.11,-44.59,-116.699,-374.512,823.242,22.95,-12.30,-38.10,17.49
6552,-7.12,-6.39,-51.57,39.063,57.617,1999.939,24.00,-14.85,-37.05,17.49
6562,-0.34,3.38,-45.37,152.832,154.785,678.223,24.00,-14.85,-37.05,17.25
6572,7.30,-14.46,-50.86,684.082,-866.211,1950.195,22.35,-12.90,-37.80,17.25
6582,-5.11,1.93,-69.92,-666.992,-237.793,548.828,23.55,-14.40,-36.75,17.25
6592,12.76,-6.76,-36.19,523.437,-986.328,1109.863,23.55,-14.40,-36.75,17.44
6602,-4.29,-12.27,-37.50,-873.535,-825.195,1840.332,23.25,-15.30,-39.30,17.34
6614,14.15,10.90,-51.73,-591.309,-108.398,406.250,22.80,-18.00,-38.55,17.34
6624,7.89,10.73,-37.33,-187.012,-495.117,1999.939,22.20,-13.50,-39.15,17.49
6634,-0.99,3.24,-34.21,587.402,-1054.688,226.562,22.20,-13.50,-39.15,17.29
6644,-14.88,4.05,-48.81,-58.105,-343.262,532.715,22.05,-14.10,-39.75,17.49
6654,-9.26,4.47,-42.37,-563.965,-734.375,1999.939,24.00,-16.05,-36.00,17.10
6664,-9.74,6.13,-41.97,257.324,-543.945,67.871,23.25,-17.70,-39.00,17.34
6676,-0.40,5.47,-31.47,455.078,-95.215,1323.730,23.40,-14.70,-38.85,17.25
6686,3.21,6.59,-41.91,164.551,-720.703,883.301,23.40,-14.70,-38.85,17.34
6696,-2.27,9.11,-39.47,542.480,-878.906,1999.939,24.00,-17.25,-39.30,17.34
6706,4.15,-3.53,-44.23,92.285,-666.504,535.645,22.65,-16.65,-38.40,17.10
6716,-1.06,-6.97,-49.34,455.566,-1323.730,1999.939,22.65,-16.65,-38.40,17.25
6726,-8.97,-5.47,-48.05,229.492,-703.125,-316.406,22.80,-20.10,-38.25,17.34
6736,-11.29,-9.75,-38.41,-697.266,83.496,1999.939,23.40,-15.45,-40.35,17.25
6748,-0.54,-6.98,-40.32,-213.867,-347.168,-120.117,24.30,-19.65,-37.80,17.34
6758,0.90,-4.03,-42.15,87.402,-819.824,930.176,23.25,-17.25,-39.30,17.25
6768,1.50,-0.08,-50.31,28.320,-505.859,263.184,23.25,-17.25,-39.30,17.25
6778,5.84,3.63,-36.60,-782.227,417.480,1147.949,22.95,-20.70,-38.40,17.29
6787,11.69,0.65,-50.31,-162.109,-1062.988,1999.939,23.40,-17.40,-39.90,17.29
6797,6.79,4.64,-33.53,209.961,-608.887,255.371,23.40,-17.40,-39.90,17.49
6806,3.63,10.14,-38.62,-113.281,-597.656,942.871,24.00,-21.30,-38.55,17.25
6818,-2.41,8.10,-42.15,248.535,-607.422,585.449,23.70,-17.10,-38.85,17.25
6828,-7.78,1.71,-40.47,-329.102,-569.824,1999.939,24.60,-18.30,-38.40,17.63
6838,0.79,-3.60,-43.80,659.180,-734.375,-235.840,22.80,-20.85,-38.55,17.29
6848,1.72,10.66,-44.63,26.855,-263.184,266.113,22.80,-20.85,-38.55,17.49
6857,0.50,2.11,-37.18,-445.312,-354.004,1999.939,23.70,-20.70,-38.85,17.34
6867,3.11,3.15,-40.27,502.930,-643.066,-265.625,22.20,-20.25,-39.60,17.15
6877,-6.06,-0.89,-49.39,-234.863,137.695,495.117,22.80,-18.45,-40.05,17.44
6889,6.64,8.21,-46.39,-303.711,-448.730,472.168,23.55,-20.40,-38.55,17.34
6899,6.78,-11.37,-45.13,1452.637,-669.434,425.781,23.55,-20.40,-38.55,17.29
6909,1.98,4.92,-47.87,-292.480,-1027.832,718.750,22.20,-18.30,-39.60,17.34
6919,-7.56,-8.02,-46.86,135.254,-887.207,247.070,24.00,-20.85,-38.25,17.49
6929,-11.62,6.26,-42.44,-570.801,-231.934,433.594,24.00,-20.85,-38.25,17.49
6939,-11.95,0.45,-34.82,992.676,-322.754,1026.855,22.80,-19.20,-39.30,17.25
6951,-2.82,-6.59,-46.69,577.637,-1044.922,-56.641,24.60,-23.10,-39.15,17.34
6961,-4.71,19.80,-41.79,-442.383,-415.039,987.793,23.55,-22.50,-39.75,17.49
6971,-4.27,0.98,-46.25,489.746,-174.316,1999.939,22.80,-20.40,-39.75,17.34
6981,0.50,18.45,-42.79,-79.102,-502.930,1464.355,22.80,-20.40,-39.75,17.29
6991,8.04,17.12,-27.73,530.273,-1348.145,1999.939,24.60,-21.90,-39.15,17.53
7001,-3.17,7.86,-51.19,-874.023,-631.836,542.480,23.40,-20.25,-39.60,17.44
7016,-1.74,-5.65,-55.24,739.258,-1250.488,1999.939,22.95,-23.10,-38.85,17.49
7025,-4.79,0.20,-37.06,505.859,-550.293,529.785,24.00,-21.60,-40.05,17.53
7035,-18.63,-4.96,-39.07,-398.437,-5.859,1541.016,24.00,-22.05,-38.55,17.44
7045,2.27,-13.42,-43.85,233.887,-226.562,1085.938,23.70,-24.30,-39.60,17.49
7055,5.04,-6.18,-49.54,-41.992,-677.734,367.187,23.70,-24.30,-39.60,17.25
7065,-0.73,-4.81,-43.05,76.660,47.363,1856.445,23.55,-22.50,-39.30,17.44
7075,16.73,-2.42,-37.82,169.922,-969.727,951.660,23.70,-25.80,-39.15,17.10
7085,-5.31,3.69,-41.59,-603.516,-639.648,593.750,23.70,-24.60,-40.35,17.34
7095,-6.58,2.97,-35.63,422.363,-679.687,557.617,23.25,-22.05,-41.25,17.63
7107,-5.57,1.36,-36.45,337.402,-848.145,1407.227,23.25,-22.05,-41.25,17.29
7117,-6.92,12.80,-32.89,-454.590,-520.996,1181.641,22.65,-24.30,-40.65,17.34
7127,-7.93,-1.78,-39.90,311.523,-481.934,791.992,24.30,-22.80,-40.05,17.49
7137,2.34,-5.56,-36.05,287.109,-949.707,1266.113,24.30,-22.80,-40.05,17.34
7147,-3.84,-2.96,-35.01,-201.660,-919.434,1242.676,23.40,-25.80,-40.65,17.25
7157,2.08,-0.84,-39.79,274.414,-678.711,1103.027,22.95,-22.65,-42.60,17.10
7167,-4.74,-9.82,-50.84,-403.320,-645.996,1038.574,24.00,-24.00,-40.05,17.63
7179,-1.86,-4.82,-42.79,571.289,-913.086,1999.939,24.60,-25.50,-40.35,17.34
7189,-6.94,-10.77,-37.79,-181.641,498.535,932.129,24.60,-25.50,-40.35,17.29
7199,6.01,0.55,-35.44,79.102,-691.895,579.590,24.00,-23.25,-40.80,17.34
7209,-7.19,-19.92,-46.85,-148.437,-561.035,1384.766,22.80,-25.20,-39.75,17.53
7219,4.80,-3.05,-52.41,-60.547,-519.043,1102.051,22.65,-26.25,-41.10,17.34
7229,-6.33,-6.89,-36.56,180.176,-874.512,1356.934,23.70,-25.50,-39.90,17.10
7241,-1.18,-9.30,-31.66,680.664,-708.984,1916.016,23.70,-25.50,-39.90,17.53
7251,-1.28,-4.37,-43.37,8.301,-808.594,-479.004,22.20,-27.75,-40.65,17.44
7261,1.39,8.11,-11.84,-172.363,-520.020,-145.020,24.00,-25.20,-40.50,17.25
7271,-6.38,10.75,-41.34,-385.254,-619.141,354.980,24.00,-25.20,-40.50,17.44
7281,11.82,-1.07,-31.66,104.492,-746.094,1071.289,22.05,-28.05,-42.00,17.15
7291,-1.59,3.58,-25.01,111.816,-637.695,326.172,23.40,-25.50,-41.10,17.49
7301,3.73,6.75,-37.77,-57.617,-368.652,211.426,23.40,-25.80,-41.10,17.44
7313,-3.58,5.72,-40.87,-56.641,-736.816,-582.031,22.95,-26.25,-41.85,17.63
7323,-16.57,4.64,-39.32,-273.926,-557.617,673.828,22.95,-26.25,-41.85,17.29
7333,0.92,-5.94,-38.29,-462.402,-640.137,1195.801,22.35,-25.20,-42.00,17.25
7343,0.93,-3.48,-38.73,-385.742,-847.168,1692.871,22.35,-25.20,-42.45,17.15
7353,-5.49,0.79,-42.20,-180.664,-814.453,1658.691,22.80,-26.40,-42.45,17.44
7363,-5.47,10.54,-32.51,-253.906,-62.012,1394.531,22.20,-25.80,-41.85,17.49
7373,2.05,-1.50,-36.36,-230.957,-491.211,764.648,22.80,-25.65,-41.55,17.49
7385,-2.63,5.73,-39.82,-162.598,-480.957,707.031,22.20,-25.80,-43.65,17.29
7395,5.11,-2.63,-40.98,-188.477,-890.625,1560.059,22.20,-25.80,-43.65,17.29
7405,-1.68,-0.05,-41.77,-88.379,-711.914,870.117,21.30,-27.60,-43.20,17.49
7415,-4.55,1.86,-37.31,-88.867,-416.016,1989.258,21.45,-27.00,-42.90,17.34
7425,2.15,1.74,-34.39,118.164,-681.641,1013.672,21.90,-27.45,-42.60,17.44
7435,-6.72,-0.86,-30.24,-334.961,-800.293,1512.695,22.05,-27.60,-42.75,17.44
7447,9.83,5.13,-42.79,-216.309,-465.820,1121.582,22.05,-27.60,-42.75,17.44
7457,9.55,-5.17,-49.03,-231.934,-482.910,1431.152,22.05,-28.05,-42.00,17.44
7467,3.88,-0.72,-46.53,-105.957,-741.699,663.086,22.80,-28.35,-42.45,17.34
7477,4.63,-1.42,-37.82,-113.281,-1078.125,762.695,22.80,-28.35,-42.45,17.53
7487,6.03,-3.54,-48.85,-190.430,-795.410,1064.453,21.00,-28.65,-41.85,17.25
7497,3.69,-7.97,-38.85,-28.320,-931.641,1192.871,22.35,-28.35,-42.75,17.25
7507,-1.84,-1.33,-41.55,-214.844,-637.207,1028.320,21.90,-28.95,-41.40,17.34
7519,-11.00,-6.31,-56.58,-447.266,-342.773,1354.492,21.30,-28.35,-43.50,17.15
7534,-0.24,0.71,-40.66,-198.730,-592.285,364.746,21.30,-28.35,-43.50,17.49
7543,-10.08,8.90,-60.74,-614.258,-341.309,1117.676,21.60,-30.00,-41.55,17.44
7553,-7.60,-5.94,-74.57,-26.855,-555.664,854.980,21.90,-29.85,-43.35,17.34
7563,0.40,-0.39,-37.11,-84.961,-70.801,1319.824,22.95,-28.65,-42.15,17.44
7573,7.07,-1.34,-41.34,-102.051,-987.305,1252.930,22.05,-29.25,-42.00,17.25
7583,5.42,4.20,-40.12,-371.582,-214.355,1619.629,22.05,-29.25,-42.00,17.44
7594,-1.94,-2.09,-48.26,-100.098,-892.578,579.102,21.30,-30.00,-43.20,17.34
7604,-0.24,0.45,-46.43,-265.137,-334.961,1223.633,19.95,-30.60,-42.90,17.49
7614,19.29,-1.39,-31.73,-188.477,-668.945,586.426,19.95,-30.60,-42.90,17.34
7624,9.85,-0.72,-49.23,-294.922,-528.320,1416.992,19.50,-28.95,-42.15,17.29
7634,11.68,-1.40,-40.39,-91.797,-893.555,616.211,20.25,-30.15,-41.85,17.15
7644,-12.68,2.02,-41.96,-361.328,-658.203,839.844,19.50,-31.05,-42.15,17.01
7656,-14.07,0.20,-44.76,-221.191,14.160,1090.332,18.90,-30.45,-41.55,17.25
7666,4.05,0.67,-42.89,-108.887,-462.891,960.449,19.20,-29.40,-42.15,17.10
7676,1.96,-3.53,-51.98,-213.867,-555.664,988.281,20.10,-31.20,-42.00,17.34
7686,11.24,-5.98,-33.44,13.184,-1053.223,981.934,20.10,-31.20,-42.00,17.49
7696,3.47,1.75,-44.24,-480.957,-170.898,1003.418,18.75,-31.80,-43.35,17.29
7706,11.80,-2.92,-40.98,-172.852,-384.766,937.988,19.35,-31.20,-42.75,17.49
7716,14.07,-0.66,-44.16,73.730,-1012.695,916.504,19.65,-31.20,-42.45,17.25
7728,2.07,-3.14,-40.69,-126.953,-306.641,1845.703,19.65,-32.40,-42.00,17.25
7738,-4.17,-2.98,-37.60,-305.176,-567.871,1686.523,19.65,-32.40,-42.00,17.25
7748,-3.80,-4.54,-44.93,173.828,-555.176,137.207,17.85,-32.40,-40.80,17.15
7758,2.28,-4.79,-44.98,-325.684,76.172,695.312,19.50,-33.00,-41.40,17.49
7768,2.59,-4.18,-39.70,329.590,-331.055,1165.527,18.60,-32.40,-41.25,17.49
7778,4.62,5.91,-43.11,-238.281,-238.770,806.152,18.90,-31.95,-42.00,17.25
7788,5.66,-1.57,-32.87,153.320,-574.219,902.344,18.90,-31.95,-42.00,17.63
7800,2.53,-1.47,-39.04,344.238,-560.059,910.156,18.15,-31.65,-42.75,17.49
7810,-5.99,13.90,-39.74,323.242,-581.055,653.320,17.85,-33.15,-40.50,17.49
7820,-0.94,-0.85,-39.30,286.133,-551.758,1857.422,17.85,-33.15,-40.50,17.29
7830,5.39,2.34,-45.37,-76.660,-692.871,855.957,17.40,-32.85,-42.00,17.53
7840,-10.03,-10.90,-31.56,-232.910,-781.250,1999.939,17.85,-31.95,-42.75,17.44
7850,-5.95,-5.31,-42.59,527.344,-685.547,63.477,17.40,-34.80,-42.00,17.34
7862,-1.20,-7.93,-42.19,34.180,-451.172,214.355,17.55,-32.25,-43.35,17.34
7872,-7.86,-3.49,-37.47,-699.707,579.590,1522.461,17.55,-32.25,-43.35,17.53
7882,9.08,-5.59,-29.75,268.066,-497.559,735.352,17.40,-33.15,-41.25,17.29
7892,2.72,2.38,-40.53,-594.727,128.906,753.906,17.10,-33.60,-43.20,17.34
7902,6.16,-2.94,-36.53,200.684,-822.266,-434.570,18.15,-34.80,-40.05,17.29
7912,-2.16,0.97,-36.22,-757.812,-136.719,781.738,17.40,-33.60,-41.25,17.34
7922,4.73,-1.96,-33.71,405.273,-655.762,266.113,16.80,-34.20,-41.10,17.29
7934,-0.79,1.18,-41.15,307.129,-407.227,1415.527,16.65,-34.35,-40.05,17.53
7944,5.94,8.97,-36.75,-424.316,-548.828,1097.656,17.55,-33.75,-40.35,17.44
7954,10.47,-9.93,-32.26,85.938,-508.789,1999.939,17.55,-33.75,-40.35,17.44
7964,0.31,2.24,-37.13,-101.074,-1045.410,906.738,15.90,-34.05,-39.75,17.49
7974,-11.96,-2.86,-17.47,-114.746,71.289,1530.273,14.85,-34.95,-41.10,17.29
7984,-5.39,0.49,-31.48,-352.051,-476.074,68.359,17.25,-33.00,-39.90,17.34
7994,-18.02,0.61,-28.63,-272.461,74.707,1068.359,16.65,-34.35,-40.80,17.44
8006,0.60,-1.00,-34.82,-453.613,-302.734,1065.918,14.85,-33.45,-39.60,17.15
8016,7.35,2.11,-34.21,53.711,-823.242,273.437,16.20,-35.55,-40.80,17.29
8026,-4.05,11.89,-24.36,-210.449,-249.023,395.508,16.20,-35.55,-40.80,17.34
8036,3.90,-8.69,-38.95,250.977,-829.102,997.070,16.05,-33.75,-39.60,17.53
8050,3.63,4.39,-34.81,-267.090,-625.000,1098.633,16.05,-34.95,-41.40,17.15
8060,-0.10,-3.90,-35.20,-46.875,-326.172,1999.939,14.70,-34.80,-40.50,17.34
8072,-0.73,0.76,-23.18,180.176,-459.961,1348.145,15.75,-34.95,-40.65,17.29
8082,5.79,0.95,-34.85,-145.508,-652.832,920.410,15.75,-34.95,-40.65,17.25
8092,-6.27,-0.57,-32.27,-335.449,-341.309,1999.939,14.70,-34.05,-40.80,17.34
8102,6.09,-5.79,-37.21,271.973,-518.066,844.238,16.05,-34.65,-39.90,17.44
8112,-5.18,3.27,-41.19,108.887,-500.000,1128.906,15.15,-35.25,-40.50,17.29
8122,4.56,-6.61,-29.13,116.699,-578.613,290.039,14.70,-34.05,-41.25,17.53
8132,10.73,-2.21,-52.92,-320.312,-301.270,675.781,14.70,-34.05,-41.25,17.15
8144,-1.79,2.63,-31.89,-172.363,-520.996,668.945,14.55,-34.95,-39.90,17.53
8154,-4.74,0.30,-37.53,-81.055,-804.199,1506.348,15.15,-33.60,-39.30,17.29
8164,-3.72,5.33,-25.71,-390.137,-671.875,494.141,15.15,-33.60,-39.30,17.29
8174,-3.71,1.09,-30.99,-114.258,-130.371,1999.939,13.95,-35.25,-39.30,17.34
8184,4.78,2.61,-35.83,451.172,-334.473,220.703,13.80,-34.95,-40.35,17.63
8194,7.63,6.11,-25.63,-412.109,-305.664,375.000,14.40,-35.55,-38.55,17.44
8204,9.40,-6.63,-29.46,244.141,-788.086,272.461,15.30,-34.20,-39.90,17.49
8216,5.98,0.29,-20.02,249.512,-571.289,1158.691,15.30,-34.20,-39.90,17.53
8226,7.05,7.35,-38.67,-180.664,-851.074,784.180,14.10,-35.40,-41.40,17.29
8236,2.59,2.13,-28.21,-216.797,-41.504,1999.939,14.10,-35.40,-41.40,17.25
8246,5.14,9.06,-31.19,-89.844,-407.715,411.621,14.10,-35.40,-41.40,17.49
8256,-0.08,-0.53,-38.34,-341.309,-522.461,1999.939,14.40,-35.25,-39.30,17.49
8266,5.83,1.00,-28.28,-44.922,-748.047,1236.328,14.40,-35.25,-39.30,17.34
8278,5.44,5.88,-36.74,169.434,-385.254,715.820,14.10,-36.15,-40.35,17.25
8288,0.02,6.89,-44.34,-65.430,-184.082,1076.172,14.10,-36.15,-40.35,17.34
8298,5.19,-2.85,-27.62,42.480,-611.328,1900.391,13.50,-34.35,-40.50,17.49
8308,11.71,2.16,-28.00,-54.199,-624.512,946.777,13.50,-36.00,-39.75,17.49
8318,-1.36,9.76,-36.37,-201.660,-684.570,815.918,13.35,-35.40,-39.90,17.25
8328,-6.74,6.53,-35.02,74.707,-390.625,-2.930,13.35,-36.60,-39.60,17.49
8338,-0.33,-0.80,-35.45,-356.934,-487.793,1698.730,13.35,-36.60,-39.60,17.49
8350,5.53,5.24,-11.97,-49.805,-273.926,1079.102,13.20,-34.80,-40.05,17.49
8360,-3.11,-9.18,-25.84,61.523,-296.387,953.613,12.60,-35.85,-39.90,17.34
8370,2.85,-1.02,-35.99,-127.930,-594.727,405.273,12.60,-35.85,-39.90,17.49
8380,6.55,-3.69,-31.78,-267.090,-412.109,1233.398,12.75,-35.25,-39.75,17.34
8390,10.43,6.04,-30.56,124.023,-499.512,305.664,13.20,-36.75,-40.05,17.53
8400,8.34,1.72,-32.08,-83.008,-397.949,1197.754,12.45,-34.80,-39.00,17.15
8410,1.31,-1.49,-29.09,-309.570,-633.301,1348.633,12.75,-34.35,-39.30,17.63
8422,4.27,-5.18,-34.92,-224.121,-187.988,1408.691,12.75,-34.35,-39.30,17.25
8432,3.92,-7.15,-40.78,36.621,65.918,1812.500,12.60,-36.15,-39.15,17.44
8442,6.05,2.60,-31.10,106.934,-515.137,935.059,12.60,-37.35,-39.15,17.44
8452,3.49,-1.12,-37.48,-279.297,-304.687,1183.594,12.30,-35.85,-39.90,17.44
8462,1.89,0.77,-33.95,-61.035,-344.727,735.840,12.00,-35.55,-38.55,17.29
8472,-1.37,-2.22,-26.52,-97.168,-458.984,856.445,13.20,-36.75,-40.50,17.25
8482,2.90,-4.85,-38.42,-254.883,-158.203,1471.191,11.85,-36.15,-38.10,17.25
8494,9.42,0.00,-34.94,58.594,-885.742,1810.547,11.70,-37.20,-38.55,17.44
8504,1.20,-4.92,-29.92,61.035,-645.020,1245.117,11.70,-37.20,-38.55,17.25
8514,-8.86,-3.98,-37.46,-244.141,-642.090,752.930,11.40,-37.35,-39.15,17.44
8524,0.72,-2.48,-42.11,-216.309,-285.645,595.215,13.35,-35.85,-39.15,17.49
8534,7.29,2.37,-28.54,-441.406,-319.336,957.031,11.40,-37.35,-38.85,17.49
8544,7.11,-7.10,-41.68,-200.684,-436.523,1484.863,11.10,-37.05,-39.90,17.34
8554,1.54,-0.33,-28.05,-303.223,-314.941,1414.063,11.10,-37.05,-39.90,17.49
8570,2.06,0.73,-26.47,-62.012,-343.750,745.117,11.40,-36.60,-38.10,17.25
8580,-2.88,8.83,-37.24,-375.977,47.852,675.781,11.40,-36.60,-38.10,17.34
8590,6.98,0.77,-33.18,168.945,-123.535,375.488,11.10,-37.35,-39.60,17.49
8599,4.87,7.51,-29.41,12.695,-274.414,1004.395,10.35,-36.60,-39.15,17.44
8609,-2.58,2.66,-30.42,-180.176,-486.328,1414.551,10.35,-36.60,-38.85,17.34
8619,1.71,4.39,-33.28,-47.363,-340.332,1369.629,11.85,-36.15,-39.15,17.25
8631,2.15,1.53,-26.24,75.195,-172.852,1309.570,11.85,-36.15,-39.15,17.44
8641,3.47,5.98,-34.44,37.598,-70.313,816.895,11.10,-37.35,-38.40,17.25
8650,-0.15,-0.11,-38.24,-423.828,384.766,1491.699,11.70,-38.70,-38.55,17.25
8660,9.87,-8.54,-25.34,114.258,-342.285,949.219,11.85,-34.95,-38.40,17.44
8670,8.64,4.76,-32.53,-171.387,-909.180,615.234,12.45,-37.20,-38.55,17.49
8680,-2.31,0.90,-35.06,-265.137,-318.359,1999.939,9.90,-36.60,-38.10,17.34
8692,-2.40,-1.24,-24.56,-27.344,-550.293,1435.547,10.05,-38.40,-39.00,17.63
8702,1.89,-0.98,-22.02,-136.230,-515.137,1034.180,10.05,-36.00,-40.05,17.29
8712,0.51,2.92,-36.02,-145.020,-570.312,1175.293,10.05,-36.00,-40.05,17.25
8722,0.49,4.76,-35.76,-311.523,-505.371,1170.410,11.10,-37.35,-37.65,17.49
8732,2.25,4.26,-37.11,65.918,-291.016,1352.051,10.50,-37.65,-37.80,17.34
8741,-4.07,2.66,-34.37,-100.098,-606.445,1102.539,10.05,-37.65,-38.25,17.49
8751,-2.61,5.02,-28.56,-22.949,-477.539,819.824,9.90,-37.05,-38.40,17.49
8763,-8.29,-5.03,-34.66,-220.215,-295.410,821.777,9.90,-37.05,-38.40,17.44
8773,-4.84,0.61,-34.10,22.461,-375.488,703.613,11.70,-37.20,-38.25,17.63
8783,-3.66,-1.64,-35.69,-294.434,-233.398,1225.098,11.25,-37.20,-39.00,17.25
8793,-1.26,-6.00,-31.38,-296.387,-236.328,1691.406,11.25,-37.20,-39.00,17.49
8803,-2.60,-2.24,-41.37,-227.539,-396.973,1060.059,9.90,-38.25,-38.10,17.44
8813,1.21,-1.24,-39.37,-73.242,-466.309,847.656,10.35,-37.05,-38.40,17.49
8823,7.65,-2.35,-37.66,-195.312,5.859,1119.141,9.30,-38.40,-38.55,17.34
8835,18.76,-0.21,-29.50,-89.355,-887.695,1490.234,9.60,-38.55,-38.85,17.49
8845,8.73,1.86,-47.02,-140.137,-503.418,1062.988,9.60,-38.55,-38.85,17.49
8855,2.23,-1.32,-39.66,-118.652,-261.230,1380.859,10.35,-37.35,-38.85,17.34
8865,-0.88,-0.15,-34.27,57.617,-435.547,1234.863,9.30,-38.40,-39.00,17.34
8875,1.11,1.37,-40.84,-239.746,-435.059,899.902,10.35,-37.35,-39.15,17.49
8885,0.23,0.21,-36.85,-146.484,-372.559,1104.004,9.60,-37.05,-37.65,17.53
8895,4.30,1.56,-49.92,-47.852,-604.980,864.258,9.60,-37.05,-37.65,17.44
8907,4.81,-4.47,-33.61,143.066,-649.902,589.355,8.70,-38.55,-38.40,17.34
8917,-6.30,0.60,-50.33,-86.914,-530.273,495.117,10.35,-37.35,-38.10,17.49
8927,3.05,-4.08,-33.78,15.625,-1045.410,663.574,10.35,-37.35,-38.10,17.34
8937,-6.48,1.36,-42.11,-73.730,-186.523,854.980,9.75,-39.15,-36.75,17.44
8947,2.61,-8.74,-37.89,2.441,350.586,1439.941,9.30,-39.15,-36.75,17.44
8957,3.39,-1.84,-38.63,-127.441,-600.098,543.945,8.25,-38.70,-36.75,17.34
8967,0.21,-5.23,-49.98,-211.914,-631.348,881.836,8.40,-38.55,-37.35,17.68
8979,2.76,-2.56,-34.19,-131.836,-508.301,810.059,8.40,-38.55,-37.35,17.53
8989,-2.43,-2.56,-42.02,-481.445,-654.785,1518.066,7.95,-37.05,-38.10,17.49
8999,3.01,2.27,-31.31,-380.859,-744.629,1643.066,8.25,-40.80,-37.50,17.63
9009,-1.05,-1.60,-47.51,-135.254,-703.125,1850.098,7.35,-37.95,-37.80,17.44
9019,-1.01,1.25,-45.10,-16.602,-434.570,1360.840,8.25,-39.60,-36.75,17.49
9029,-3.37,9.52,-34.81,-223.633,-404.297,1247.070,7.80,-40.35,-37.80,17.25
9041,7.98,2.82,-41.47,-119.141,-420.410,1224.121,6.60,-39.15,-38.25,17.25
9051,14.78,2.76,-49.56,-34.180,-533.203,1658.203,6.60,-39.15,-38.25,17.15
9061,10.31,1.14,-44.88,-271.973,-659.668,1752.441,8.25,-39.60,-37.05,17.44
9071,1.79,1.08,-50.31,-77.637,-854.980,976.562,5.85,-37.95,-36.00,17.49
9086,-0.43,-7.51,-59.89,-185.547,-289.062,719.727,7.05,-40.80,-36.30,17.10
9095,-6.10,1.00,-45.52,170.410,-480.469,855.469,6.90,-39.30,-36.90,17.29
9105,-9.69,-9.73,-59.69,-277.344,67.871,1756.836,6.90,-39.30,-36.90,17.53
9115,4.21,-6.71,-42.92,130.859,-284.180,625.977,5.10,-39.15,-37.50,17.49
9127,-4.83,-3.73,-46.84,-616.699,-245.117,1380.371,6.60,-40.35,-36.30,17.53
9137,8.28,-3.17,-47.66,-91.309,-511.719,89.355,6.60,-40.35,-36.30,17.44
9147,3.80,2.96,-43.58,-83.008,-474.121,576.172,6.30,-40.35,-35.55,17.53
9157,3.69,4.87,-40.33,-257.324,-825.684,1312.012,5.85,-41.10,-35.55,17.44
9167,1.58,1.75,-40.12,-316.895,-897.949,1538.086,6.15,-41.40,-36.15,17.44
9177,-0.60,8.14,-46.79,94.238,-903.809,332.520,5.85,-39.90,-36.30,17.34
9187,-8.43,1.31,-42.12,170.898,-468.262,896.484,5.85,-39.90,-36.30,17.49
9199,-5.63,-1.49,-43.13,114.258,-353.516,581.543,4.35,-41.10,-37.50,17.25
9209,-0.70,-2.72,-46.21,-173.340,-180.664,870.117,5.25,-40.95,-36.15,17.49
9219,-0.24,-6.05,-38.90,-43.945,-597.168,1337.402,5.25,-39.75,-35.70,17.53
9229,-4.26,7.23,-66.43,-215.332,-563.965,917.969,5.25,-39.75,-35.70,17.34
9239,-1.07,-0.44,-50.24,-289.551,-231.445,813.965,4.35,-39.60,-37.05,17.49
9249,15.52,3.92,-51.08,107.422,-439.941,977.051,4.95,-40.95,-36.60,17.34
9258,14.60,4.41,-58.70,105.469,151.855,1215.332,4.95,-40.95,-36.60,17.29
9269,14.47,-2.24,-55.87,-128.418,-863.770,708.496,3.90,-40.35,-36.30,17.29
9279,6.72,-3.94,-47.89,35.156,-700.195,1014.648,4.20,-41.40,-35.40,17.34
9289,2.66,1.00,-55.26,-182.617,-923.828,973.633,3.15,-40.35,-36.00,17.44
9299,-8.89,2.55,-45.45,-465.332,-651.855,1126.465,2.85,-41.55,-35.55,17.53
9309,-4.90,-10.68,-51.15,25.879,-318.359,957.031,2.85,-41.55,-35.55,17.49
9319,-5.36,-5.76,-40.42,324.219,-467.773,1153.809,3.75,-41.40,-36.60,17.25
9331,-5.11,-9.21,-58.14,-286.133,-621.582,542.969,3.00,-43.35,-36.15,17.29
9341,11.29,-5.34,-50.23,-320.801,188.965,1289.063,3.00,-43.35,-36.15,16.91
9351,26.08,4.94,-51.85,-183.105,-674.805,1489.746,1.80,-41.40,-34.95,17.63
9361,-1.82,8.04,-52.90,-509.766,-799.316,1469.727,1.65,-42.30,-36.00,17.29
9371,-9.44,-6.64,-52.94,343.750,-914.551,917.480,1.80,-40.50,-35.40,17.44
9381,-14.12,0.98,-42.84,18.555,-477.051,1174.316,0.90,-42.30,-34.50,17.44
9391,-11.98,3.18,-79.58,242.187,-568.848,845.215,0.90,-42.30,-34.50,17.25
9403,-5.11,-0.98,-48.29,98.633,-872.070,530.273,0.90,-42.00,-34.50,17.44
9413,-2.79,5.15,-39.28,-531.738,-263.184,836.914,1.05,-41.70,-35.70,17.53
9423,0.98,-5.29,-44.41,-149.414,-175.781,1022.461,1.05,-41.40,-36.15,17.25
9433,10.37,0.13,-53.19,-9.277,-529.785,822.266,0.75,-42.15,-35.70,17.29
9443,6.53,0.51,-48.15,59.570,-237.305,875.488,0.75,-42.15,-35.70,17.44
9453,19.99,3.79,-48.08,101.563,-986.816,1323.242,1.50,-43.35,-35.40,17.68
9462,2.18,5.99,-49.34,185.547,-483.887,743.652,-0.75,-41.70,-35.40,17.15
9474,11.13,3.43,-45.25,-67.383,-973.145,407.715,-0.75,-41.70,-35.40,17.34
9484,-9.21,0.55,-61.23,144.043,-751.465,1405.762,0.15,-42.75,-35.25,17.29
9494,-9.76,-2.40,-57.82,-339.844,-584.473,950.684,-1.65,-42.00,-36.30,17.53
9504,-0.21,-5.84,-40.16,68.359,-680.176,697.754,-1.65,-42.75,-34.80,17.49
9514,3.15,-1.37,-57.39,228.027,-328.613,1430.176,-2.25,-43.35,-36.60,17.53
9524,5.56,-6.63,-47.98,-522.461,-65.430,1999.939,-2.25,-43.35,-36.60,17.49
9534,11.37,0.66,-47.54,-164.551,-702.148,1006.348,-1.65,-43.20,-34.80,17.25
9546,10.55,2.63,-50.01,-218.750,-657.715,894.531,-0.30,-41.40,-34.95,17.53
9556,9.48,-7.18,-47.21,199.707,-782.227,1163.574,-0.30,-41.40,-34.95,17.44
9566,7.38,-5.32,-48.35,341.309,-1068.359,885.254,-1.80,-43.35,-34.95,17.25
9576,-6.24,3.77,-43.64,-99.609,-34.180,1762.207,-3.15,-40.35,-36.00,17.34
9586,-18.14,-9.32,-47.11,-119.141,-600.098,1370.605,-2.85,-42.00,-34.80,17.49
9601,-18.00,7.05,-50.38,-270.020,-475.586,182.617,-2.40,-41.55,-36.00,17.49
9610,-1.95,6.74,-53.24,233.398,-265.625,712.891,-4.80,-43.95,-35.55,17.10
9622,13.01,3.02,-48.42,-288.086,-269.043,288.086,-2.85,-40.35,-35.25,17.34
9632,25.05,6.47,-46.63,85.938,-543.457,420.898,-3.15,-41.10,-34.50,17.44
9642,7.69,6.60,-42.21,-83.496,-766.113,1299.805,-5.10,-42.00,-35.25,17.25
9652,-4.18,-3.05,-54.51,-61.523,-796.875,1999.939,-5.10,-42.00,-35.25,17.49
9662,-9.75,0.66,-45.51,-352.051,-775.391,1146.973,-4.95,-42.90,-33.45,17.49
9672,-5.73,1.21,-48.01,318.359,-219.727,1015.137,-4.95,-40.50,-35.40,17.34
9682,-2.21,2.05,-86.98,302.734,-354.004,1034.668,-4.95,-40.50,-35.40,17.34
9694,-8.39,0.79,-53.86,55.664,-538.574,369.141,-5.55,-43.20,-34.50,17.34
9704,-2.04,-1.05,-42.45,-587.891,-237.305,1731.445,-3.60,-39.60,-34.50,17.49
9714,3.85,-2.24,-50.55,208.496,-655.273,638.184,-4.95,-42.15,-33.90,17.15
9724,5.61,-4.66,-47.88,7.812,-322.754,341.309,-6.60,-41.10,-34.80,17.25
9734,0.05,-0.84,-49.15,241.211,-677.246,1231.445,-6.60,-41.10,-34.80,17.34
9744,5.01,3.56,-44.80,-143.066,-626.953,806.641,-6.45,-42.90,-34.95,17.53
9754,-3.06,0.72,-50.19,-28.809,-333.008,759.766,-7.05,-39.90,-35.25,17.29
9766,-4.52,-5.85,-52.03,-36.621,-551.758,1751.465,-6.45,-40.95,-33.90,17.68
9776,-6.56,0.34,-41.43,-501.953,-341.309,322.266,-6.15,-40.95,-34.95,17.44
9786,-6.79,-0.27,-50.27,-127.441,-73.242,1272.461,-6.30,-39.60,-34.80,17.53
9796,1.92,-6.18,-62.75,-87.402,-237.793,1077.148,-7.65,-43.35,-33.45,17.25
9806,6.37,5.72,-46.48,20.508,-491.699,188.477,-7.95,-39.75,-34.65,17.15
9816,11.98,8.43,-28.59,58.105,-301.270,1283.203,-7.95,-39.75,-34.65,17.25
9826,8.40,5.30,-48.61,-460.449,-489.258,1297.363,-7.65,-41.40,-34.20,17.49
9838,-5.16,13.92,-20.81,96.191,-452.148,418.945,-8.25,-39.90,-36.75,17.44
9848,-0.46,-5.08,-23.30,-319.336,-796.875,1999.939,-5.70,-42.15,-32.70,17.63
9858,-4.04,8.16,-57.31,219.238,-788.574,287.109,-8.55,-41.10,-35.55,17.15
9868,-14.57,8.84,-53.03,-355.469,-21.484,523.926,-8.55,-41.10,-35.55,17.49
9878,-7.47,-11.41,-90.21,-145.508,-384.766,679.199,-8.25,-42.00,-34.05,17.01
9888,5.24,2.11,-51.64,78.613,-480.469,1170.410,-9.00,-38.40,-34.80,17.49
9900,3.92,4.18,-45.47,271.484,-347.168,1354.004,-9.60,-40.20,-34.20,17.25
9910,0.54,8.43,-43.03,56.152,-664.551,361.328,-8.40,-38.55,-34.65,17.15
9920,0.27,-4.31,-46.49,-240.234,-458.984,1999.939,-7.80,-41.10,-33.30,17.44
9930,4.78,0.49,-51.21,197.754,-841.797,613.281,-8.55,-40.35,-34.80,17.49
9940,4.60,8.12,-42.82,201.172,-898.437,740.234,-8.55,-40.35,-34.80,17.25
9950,-2.58,2.56,-50.05,-320.801,-126.953,1999.939,-9.90,-41.40,-33.45,17.34
9960,-0.93,3.54,-49.89,511.230,-895.020,-333.496,-10.35,-39.30,-33.15,17.29
9972,-1.92,4.00,-56.86,-452.148,-607.422,1999.939,-10.05,-39.60,-33.00,17.34
9982,0.02,5.91,-53.69,-154.785,-371.094,879.395,-10.65,-40.95,-33.90,17.25
9992,-2.43,5.56,-53.76,-37.109,-432.617,1633.301,-10.65,-40.95,-33.90,17.29
10002,0.53,-1.91,-57.05,702.637,-969.727,1999.939,-10.05,-41.10,-32.25,17.49
10012,-4.82,0.94,-39.17,83.008,-368.164,383.301,-10.65,-40.20,-34.20,17.63
10022,-1.49,-12.06,-57.41,-87.402,-970.703,1999.939,-10.65,-40.20,-34.20,17.44
10032,2.78,-1.34,-41.18,88.867,-394.531,-62.988,-9.60,-39.75,-32.40,17.49
10044,-2.63,-2.85,-46.66,764.648,-1088.867,-686.523,-11.40,-38.25,-33.90,17.49
10054,-8.98,-7.94,-46.39,-192.871,-100.586,160.645,-10.35,-38.25,-32.70,17.44
10064,8.27,-6.88,-50.66,364.258,-446.777,963.379,-11.70,-39.15,-32.25,17.25
10074,11.17,4.50,-47.25,-197.754,-907.227,1343.262,-11.70,-39.15,-32.25,17.44
10084,0.18,4.51,-50.05,-22.461,-1107.910,1999.939,-12.45,-37.95,-34.05,17.49
10094,4.78,-0.94,-51.63,-287.598,-541.504,-100.098,-11.40,-38.25,-33.90,17.44
10106,-2.56,3.15,-44.25,-303.711,-434.570,763.184,-11.40,-38.25,-33.90,17.53
10121,-10.05,11.66,-40.88,-150.391,-767.090,548.340,-12.00,-37.20,-34.05,17.44
10130,-10.02,5.05,-40.97,-247.070,-506.836,1103.516,-12.00,-37.20,-34.05,17.25
10140,-0.34,1.09,-52.82,-165.039,-123.047,1999.939,-11.70,-75.15,-34.65,17.25
10150,3.63,3.33,-44.76,165.527,-713.867,747.559,-11.70,-36.75,-33.30,17.53
10160,-5.50,2.13,-42.50,-226.562,-302.734,520.996,-11.70,-36.75,-33.30,17.53
10172,7.66,-2.35,-49.07,-146.484,-381.836,698.242,-12.75,-36.00,-34.80,17.49
10182,10.94,-1.30,-51.24,-236.816,-142.578,1199.707,-12.45,-36.00,-33.75,17.49
10192,10.40,-3.25,-51.11,4.395,-616.699,1197.266,-14.10,-36.60,-34.20,17.34
10202,3.37,-8.29,-50.60,68.359,-875.000,1079.590,-14.10,-36.60,-34.20,17.49
10212,-9.74,1.25,-54.68,-176.270,-593.262,1075.195,-13.95,-35.25,-33.30,17.34
10222,-7.57,-5.32,-29.79,-71.289,-577.148,1121.094,-13.80,-35.40,-33.45,17.53
10232,-0.10,-0.68,-42.66,-231.445,-317.871,1184.082,-13.80,-35.40,-33.45,17.49
10244,1.68,3.26,-51.44,-26.367,-321.777,46.387,-12.60,-34.95,-33.90,17.53
10254,2.11,4.27,-39.94,-130.859,-392.578,1321.777,-14.10,-34.95,-34.95,17.44
10264,-7.56,7.11,-49.25,-118.652,-841.797,806.152,-13.80,-33.00,-33.90,17.34
10274,-2.94,4.69,-42.34,-191.895,59.570,936.523,-14.40,-34.35,-34.05,17.49
10284,11.45,3.68,-28.51,-271.973,-444.824,1122.559,-14.40,-34.35,-34.05,17.44
10294,10.80,3.02,-42.53,-118.164,-776.855,1113.770,-14.40,-34.80,-34.05,17.25
10306,-7.18,3.10,-56.76,-175.781,-927.246,571.289,-13.80,-33.75,-32.70,17.29
10316,-16.18,-2.79,-55.08,-114.258,-489.258,1104.004,-13.80,-33.00,-34.20,17.34
10326,-3.95,-5.99,-53.31,60.547,-226.074,1025.879,-13.95,-33.60,-33.00,17.29
10336,1.37,-7.71,-50.81,-285.156,-480.469,1584.961,-14.55,-32.55,-34.20,17.44
10346,9.85,-1.03,-53.34,36.621,-890.625,-157.715,-13.50,-33.60,-33.75,17.49
10356,3.66,-1.65,-48.79,-372.559,-559.082,716.797,-13.95,-31.95,-35.55,17.49
10366,11.98,2.21,-47.66,-227.539,-605.469,1411.133,-13.95,-31.95,-35.55,17.49
10379,8.79,4.50,-46.83,116.211,-521.484,585.449,-15.15,-33.15,-34.05,17.49
10389,0.11,3.68,-46.27,-300.781,-595.703,1525.879,-15.15,-31.65,-34.50,17.63
10399,-1.93,-3.24,-59.64,-227.051,-36.621,862.793,-14.85,-31.05,-33.90,17.34
10409,-3.08,11.30,-45.94,-437.012,-474.121,1002.441,-13.35,-32.25,-33.45,17.34
10419,-3.83,15.33,-47.34,171.875,-334.961,-125.000,-13.35,-32.25,-33.45,17.10
10429,-2.74,5.92,-51.18,-180.664,-226.074,1999.939,-14.85,-31.05,-32.70,17.53
10439,-14.39,9.69,-39.10,-62.500,183.594,970.215,-14.40,-31.95,-33.00,17.44
10451,-20.04,8.75,-40.60,223.633,-347.656,104.492,-14.40,-30.75,-32.55,17.25
10461,0.28,3.08,-37.96,-65.918,-757.812,-286.133,-13.50,-31.20,-31.50,17.49
10471,13.48,0.24,-39.39,-226.074,-727.539,1194.336,-13.50,-31.20,-31.50,17.29
10481,5.36,1.33,-46.53,-364.746,-427.246,1235.352,-14.70,-30.00,-33.00,17.44
10491,3.98,10.24,-41.53,-377.441,-25.879,174.316,-14.70,-30.00,-33.00,17.29
10501,13.85,6.32,-41.74,-114.746,-414.551,493.164,-14.10,-28.95,-32.40,17.34
10513,5.24,10.02,-40.50,-69.824,239.258,1237.305,-14.70,-28.35,-31.80,17.44
10523,-11.93,-3.72,-52.98,-334.961,-279.297,1999.939,-14.70,-28.35,-31.80,17.10
10533,-2.55,-6.37,-37.62,56.641,-516.602,1778.320,-14.85,-28.95,-30.90,17.49
10543,18.73,-10.68,-39.19,-83.984,-911.621,1894.531,-15.15,-29.25,-30.30,17.63
10553,19.24,-9.15,-40.65,-210.937,-1075.684,839.355,-15.45,-30.00,-30.75,17.25
10563,16.61,-19.19,-37.62,-96.680,-961.426,1587.402,-15.30,-30.15,-31.65,17.63
10573,16.23,-21.79,-46.61,-9.277,-825.684,1322.754,-15.30,-30.15,-31.65,17.25
10585,18.70,-21.08,-39.69,-196.289,-930.664,1062.500,-15.75,-28.20,-29.70,17.63
10595,8.29,-21.61,-44.15,-454.102,-1452.148,1999.939,-14.85,-27.45,-30.45,17.44
10605,-5.21,-21.80,-47.48,76.172,-877.441,1999.939,-16.50,-28.65,-30.15,17.34
10615,-15.53,-16.81,-45.82,-370.605,-591.309,1999.939,-17.85,-28.05,-29.55,17.29
10625,-35.67,-24.61,-47.10,-151.367,428.711,672.363,-16.20,-27.15,-29.85,17.49
10649,-12.40,-19.54,-69.69,-501.953,-2.441,1476.074,-17.25,-27.45,-30.15,17.49
10658,6.89,-13.22,-33.11,74.219,-539.551,722.168,-17.25,-27.45,-30.15,17.25
10668,15.83,-5.55,-49.01,-72.266,-401.367,1074.707,-18.45,-27.75,-29.70,17.44
10678,-1.33,-5.01,-53.82,-125.000,-938.965,884.277,-18.60,-27.60,-30.30,17.44
10688,-9.77,-9.73,-52.01,-192.383,-871.582,614.258,-19.20,-27.00,-28.95,17.29
10698,-13.56,-12.40,-60.92,133.301,-195.801,123.535,-19.65,-28.05,-29.85,17.34
10708,-11.37,-16.19,-53.89,42.480,-98.633,306.152,-19.65,-28.05,-29.85,17.53
10720,2.75,-17.00,-48.05,-110.840,705.078,475.098,-19.50,-27.75,-29.70,17.44
10730,23.94,-9.73,-47.17,-194.336,-382.812,685.547,-20.85,-27.60,-30.75,17.49
10740,36.25,-1.44,-42.90,-311.523,-455.566,1294.922,-20.85,-27.60,-30.75,17.44
10750,9.79,-6.10,-56.76,-486.328,-927.734,1214.355,-18.15,-26.85,-32.25,17.44
10760,8.22,2.66,-50.62,-363.281,-655.762,443.359,-20.85,-25.95,-31.80,17.44
10770,18.62,10.06,-48.50,-310.547,-1042.480,1472.168,-21.60,-26.40,-31.05,17.29
10782,-2.72,11.09,-39.75,-277.832,-422.363,1400.391,-20.10,-26.40,-31.50,17.49
10792,11.36,-22.05,-41.19,-323.242,-900.391,1197.754,-18.90,-26.40,-31.50,17.25
10802,16.35,20.68,-46.91,217.285,-430.664,937.500,-19.50,-24.60,-30.90,17.49
10812,16.66,16.82,-44.31,-89.844,-546.875,1754.395,-19.50,-24.60,-30.90,17.34
10822,7.60,-0.05,-41.09,-170.410,-973.633,1563.965,-19.95,-25.80,-31.20,17.44
10832,7.85,3.76,-44.49,-258.301,-1300.781,1737.305,-20.10,-24.00,-32.25,17.63
10842,-0.33,-2.31,-55.71,-381.348,-852.539,875.977,-21.30,-25.95,-32.25,17.44
10854,-1.60,-4.74,-50.46,-108.398,-588.379,1798.340,-20.25,-25.05,-31.20,17.49
10864,3.03,1.29,-50.12,-293.457,-559.082,563.965,-20.25,-25.05,-31.20,17.49
10874,6.96,-2.22,-50.70,60.547,-570.801,267.578,-20.55,-24.90,-32.25,17.49
10884,7.79,-0.82,-39.85,-95.215,-431.152,919.434,-19.95,-24.30,-31.65,17.49
10894,3.05,-9.26,-43.39,106.445,-903.809,843.750,-20.85,-23.70,-31.50,17.49
10904,-9.61,-1.47,-50.92,-259.277,-566.406,540.527,-21.00,-24.30,-31.20,17.49
10914,-12.18,-8.51,-54.25,-335.937,-497.559,1113.770,-21.00,-23.40,-30.15,17.44
10926,-7.74,-10.24,-49.14,63.477,-461.914,729.980,-20.25,-25.50,-30.90,17.25
10936,-7.98,-2.76,-46.68,-75.195,-155.273,481.934,-21.90,-24.60,-31.95,17.53
10946,-0.53,-0.28,-50.53,-39.063,-410.156,798.340,-21.90,-24.60,-31.95,17.44
10956,-6.50,-0.47,-44.94,-171.875,-318.848,816.406,-22.80,-25.95,-32.25,17.34
10966,-5.91,-1.68,-42.11,-214.844,10.742,847.656,-22.20,-26.55,-28.95,17.49
10976,-0.78,-3.11,-41.02,-135.742,-160.645,1233.398,-21.60,-24.45,-32.55,17.49
10988,-0.03,0.62,-43.44,-110.840,-558.594,980.957,-22.20,-25.50,-31.65,17.34
10998,-4.26,-2.66,-39.47,-146.484,-229.492,824.707,-22.20,-25.50,-31.65,17.49
11008,2.76,2.66,-44.68,-292.480,-138.184,792.480,-22.95,-23.85,-30.90,17.49
11018,9.15,3.88,-42.17,-65.918,-491.699,698.242,-22.05,-24.90,-30.30,17.44
11028,14.88,8.81,-35.54,-77.637,-509.766,448.242,-22.05,-24.90,-30.30,17.34
11038,18.40,13.78,-45.84,24.414,-873.535,840.332,-21.45,-23.10,-29.70,17.15
11048,14.50,10.08,-44.39,-4.395,-693.359,629.395,-21.60,-22.50,-31.80,17.49
11060,4.07,0.82,-40.71,81.055,-679.199,1010.742,-21.60,-23.25,-29.55,17.15
11070,1.91,3.66,-30.93,127.930,-551.270,1124.023,-21.60,-23.25,-31.05,17.44
11080,-2.44,1.65,-44.12,57.617,-151.367,1008.301,-21.60,-23.25,-31.05,17.49
11090,1.76,-7.40,-35.89,61.035,-116.699,1226.563,-23.70,-23.40,-30.90,17.29
11100,9.65,-13.80,-34.92,-14.648,-134.766,1389.648,-22.95,-21.45,-30.15,17.53
11110,7.79,-11.90,-35.31,-266.602,-96.680,1427.734,-22.95,-21.45,-30.15,17.49
11122,2.73,-7.82,-34.92,-202.637,-506.348,1306.641,-22.05,-20.10,-29.85,17.34
11132,0.48,-9.65,-35.69,-148.926,-276.367,895.020,-22.05,-20.10,-29.85,17.25
11142,0.52,-10.56,-27.04,-111.328,-178.223,1344.727,-22.65,-21.45,-30.90,17.25
11152,2.88,-13.09,-45.81,-77.148,-271.484,861.816,-22.65,-21.45,-30.90,17.53
11168,3.43,-8.71,-39.70,46.387,-113.281,1138.184,-22.95,-20.70,-30.90,17.44
11177,-7.41,-1.50,-35.45,163.574,-166.504,259.766,-24.00,-21.30,-29.55,17.44
11187,-9.02,5.88,-30.06,82.520,-208.984,623.535,-23.40,-20.70,-31.20,17.34
11197,-16.06,7.51,-30.93,-74.219,-193.848,1130.859,-24.00,-20.40,-31.50,17.29
11209,-21.40,6.97,-38.11,7.812,-395.508,1025.391,-22.80,-20.40,-31.50,17.44
11219,-13.34,11.98,-33.03,-19.043,-433.105,577.637,-23.40,-19.50,-31.65,17.44
11229,-7.71,15.32,-36.64,-299.316,-83.496,861.328,-22.80,-22.50,-29.85,17.63
11239,4.60,10.75,-35.72,-38.574,-104.492,694.824,-22.80,-22.50,-29.85,17.49
11249,18.51,5.27,-34.14,256.348,-557.617,763.184,-23.40,-21.45,-30.45,17.44
11259,18.76,3.41,-40.20,225.098,-596.191,592.285,-22.95,-21.00,-30.15,17.44
11271,8.27,-5.15,-40.98,34.180,-585.937,404.785,-22.35,-20.40,-30.75,17.44
11281,3.60,-4.77,-35.09,-307.617,-389.648,1214.355,-22.05,-22.50,-31.05,17.49
11291,3.42,-9.87,-35.89,-281.738,-409.180,1666.504,-22.05,-22.50,-31.05,17.63
11301,2.95,-4.49,-31.90,-27.832,-332.031,1318.359,-22.05,-19.65,-30.30,17.25
11311,3.07,-2.40,-33.75,55.176,-68.359,1396.484,-23.25,-18.45,-33.00,17.49
11321,3.18,1.05,-34.84,-152.832,-354.004,984.863,-23.25,-18.45,-33.00,17.53
11331,11.61,0.89,-34.14,-269.043,-375.000,1120.605,-22.95,-19.50,-31.20,17.29
11343,3.60,4.76,-35.11,59.082,-658.203,1308.594,-22.20,-20.25,-30.90,17.44
11353,-0.91,6.44,-34.73,420.898,-781.738,426.758,-23.25,-17.70,-31.80,17.53
11363,-15.68,11.21,-34.17,120.605,-654.785,789.062,-23.25,-17.70,-31.80,17.53
11373,-17.92,5.24,-36.93,112.793,-610.840,543.457,-24.30,-18.45,-32.25,17.49
11383,-27.79,-2.30,-53.80,-275.391,123.535,821.777,-24.00,-19.65,-29.85,17.25
11393,-15.75,1.65,-34.58,-33.203,403.809,1207.031,-24.00,-19.65,-29.85,17.49
11403,-1.04,-5.53,-44.99,-197.754,59.082,1415.039,-24.30,-18.45,-32.25,17.44
11415,1.12,-8.60,-33.53,-137.695,-438.965,1016.113,-22.95,-21.00,-31.20,17.44
11425,-0.33,-6.35,-42.61,-153.809,-468.262,418.945,-24.00,-19.65,-33.00,17.82
11435,0.06,-4.42,-38.93,-48.340,-736.328,879.395,-22.95,-19.80,-30.90,17.63
11445,0.15,-0.75,-40.53,275.879,-619.629,1299.316,-22.95,-19.80,-30.90,17.34
11455,-10.14,-4.63,-25.34,251.953,-399.414,1514.160,-24.60,-18.60,-30.45,17.53
11465,-8.96,3.69,-48.93,-410.645,-526.367,915.039,-22.80,-20.40,-31.05,17.25
11477,-7.18,0.34,-51.95,249.512,-89.355,741.211,-22.35,-17.25,-32.55,17.34
11487,-3.16,6.46,-38.11,-92.285,-708.008,890.137,-24.60,-19.05,-30.90,17.15
11497,4.14,13.15,-28.81,18.555,-247.070,785.156,-23.40,-17.85,-31.20,17.34
11507,0.13,6.31,-33.98,-17.090,-395.996,1333.008,-22.80,-18.00,-31.05,17.49
11517,2.67,6.50,-31.99,-83.008,-545.410,1289.063,-23.55,-18.45,-31.80,17.44
11527,-4.18,5.71,-36.87,-73.242,-331.543,1276.855,-23.55,-18.45,-31.80,17.44
11537,1.47,-1.21,-22.74,180.176,-324.219,948.730,-23.55,-18.00,-31.50,17.49
11549,7.79,1.24,-31.61,44.922,-365.234,950.195,-23.25,-16.80,-30.30,17.44
11559,9.95,4.20,-31.65,-149.414,-567.383,683.105,-22.95,-17.40,-29.40,17.34
11569,9.12,-5.92,-37.15,40.527,-581.055,1109.863,-22.65,-17.85,-31.20,17.10
11579,4.06,-6.11,-37.50,117.676,-511.719,1601.563,-22.65,-17.85,-31.20,17.44
11589,3.46,-8.15,-38.98,-89.844,-118.164,1109.863,-24.30,-16.80,-30.75,17.34
11599,6.85,-6.66,-40.05,219.238,-544.434,917.480,-22.35,-16.05,-31.05,17.49
11611,4.36,-10.40,-35.62,180.176,-356.934,1370.605,-22.35,-16.05,-31.05,17.49
11621,3.31,-4.07,-36.21,283.691,-346.680,685.547,-24.15,-15.00,-29.70,17.44
11631,-7.05,-1.60,-34.80,-160.156,-253.906,939.453,-21.90,-17.10,-29.40,17.29
11641,-4.75,0.95,-40.56,-240.723,-449.219,1125.000,-23.25,-16.05,-30.75,17.49
11651,-4.06,-0.02,-29.16,-230.957,-409.668,508.789,-22.80,-14.85,-29.55,17.25
11661,-3.56,2.82,-32.59,-30.273,-498.535,1456.055,-22.80,-14.85,-29.55,17.34
11671,-8.21,8.76,-33.20,167.480,-417.969,612.793,-24.15,-14.25,-31.65,17.49
11688,-1.81,5.73,-39.35,0.977,-326.172,933.105,-22.65,-15.90,-30.15,17.34
11697,-1.72,0.31,-48.05,-110.840,-99.121,1176.270,-22.95,-15.45,-30.90,17.53
11707,-2.24,3.08,-36.18,-104.980,-380.859,1278.320,-24.15,-16.65,-30.15,17.63
11717,-4.76,7.24,-45.34,152.344,-379.395,954.102,-24.00,-14.40,-31.50,17.25
11727,-2.32,1.78,-43.31,-252.441,-105.957,1410.645,-23.25,-17.25,-30.30,17.49
11739,1.60,-7.60,-35.97,149.902,-154.785,1461.426,-23.25,-17.25,-30.30,17.44
11749,4.45,-1.39,-39.58,291.992,-443.359,740.234,-23.40,-14.70,-31.20,17.53
11759,7.18,-5.74,-36.38,-69.336,-295.410,865.234,-23.70,-15.00,-33.15,17.77
11769,11.77,-9.48,-31.57,57.129,-426.270,474.609,-23.40,-13.80,-31.20,17.49
11779,3.90,-7.54,-41.82,69.336,-258.789,892.578,-21.90,-16.20,-30.90,17.49
11789,3.15,-12.58,-27.29,-143.066,-178.711,1586.914,-23.70,-13.50,-30.90,17.49
11799,2.39,-6.00,-24.37,-120.605,-141.113,1772.461,-22.80,-12.90,-29.85,17.25
11811,-1.64,-3.56,-34.63,216.797,-576.172,1177.246,-22.65,-13.50,-30.15,17.53
11821,-14.16,-1.38,-34.47,234.375,-310.059,911.621,-22.65,-13.50,-30.15,17.25
11831,-15.58,-1.70,-32.31,-44.922,-194.824,813.477,-22.05,-14.40,-29.55,17.44
11841,-5.18,-0.12,-39.89,81.543,-300.781,642.090,-23.70,-12.30,-29.70,17.63
11851,4.28,-2.52,-44.19,142.578,-311.035,299.805,-22.05,-13.20,-28.80,17.34
11861,-0.12,-4.51,-31.37,18.555,-246.582,1217.773,-24.00,-13.65,-29.10,17.63
11871,-3.35,-0.43,-30.41,-152.344,-91.309,839.355,-24.00,-13.65,-29.10,17.29
11883,0.93,-5.17,-38.44,83.984,-582.031,1656.250,-24.30,-15.30,-29.85,17.68
11893,-2.98,-2.21,-32.85,-44.434,-410.156,1148.438,-23.25,-12.15,-29.85,17.63
11903,-2.02,-0.60,-36.19,38.574,-570.801,306.152,-23.25,-12.15,-29.85,17.34
11913,-0.98,-1.24,-35.42,-177.734,-290.527,730.957,-24.30,-13.20,-30.75,17.49
11923,3.52,-3.09,-27.94,164.551,-298.828,1235.352,-24.00,-10.05,-30.75,17.49
11933,-0.62,-0.56,-33.64,-85.938,-312.988,1666.016,-23.25,-12.90,-30.75,17.63
11945,-0.89,0.83,-32.65,121.094,-266.113,1270.996,-23.40,-10.65,-32.40,17.63
11955,3.69,-2.99,-30.89,-188.477,-368.652,1650.391,-24.15,-11.85,-32.70,17.63
11965,3.28,-1.57,-35.19,150.879,-588.867,1018.066,-21.45,-10.65,-31.95,17.29
11975,1.96,-3.76,-33.20,110.352,-851.562,1054.688,-21.45,-10.65,-31.95,17.29
11985,1.62,-0.27,-29.05,-8.301,-413.086,590.332,-22.05,-10.05,-32.55,17.25
11995,-0.50,-0.34,-30.12,-384.766,432.617,711.426,-22.05,-10.05,-31.80,17.44
12005,15.02,-3.82,-37.38,349.609,-538.086,588.867,-22.35,-11.70,-33.00,17.49
12017,6.95,1.65,-33.27,-40.039,-464.355,740.723,-21.30,-9.75,-31.80,17.44
12027,2.14,-1.69,-30.04,-330.566,-484.375,697.754,-21.30,-9.75,-31.80,17.44
12037,5.00,0.23,-33.77,358.398,-818.359,-75.195,-22.20,-9.45,-31.20,17.53
12047,-10.14,8.22,-15.83,-294.922,-112.793,616.699,-21.30,-9.75,-31.50,17.34
12057,-18.52,9.46,-26.00,-317.871,-420.410,1169.434,-22.20,-10.65,-31.95,17.29
12067,-12.70,5.15,-31.11,38.086,-299.805,422.363,-22.95,-9.90,-31.20,17.53
12079,-0.96,-6.04,-31.56,85.938,-384.766,1300.293,-21.00,-10.65,-29.70,17.49
12089,2.63,2.95,-17.57,88.379,-717.773,53.223,-21.60,-9.30,-31.80,17.01
12099,4.90,0.31,-27.40,368.164,-493.164,1052.734,-21.60,-10.05,-29.55,17.44
12109,3.18,-4.27,-38.27,-176.758,-531.738,1999.939,-21.60,-10.05,-29.55,17.29
12119,2.40,-9.07,-44.24,68.848,-748.047,640.625,-23.25,-8.85,-32.25,17.49
12129,4.03,-2.53,-39.56,54.199,-561.035,1260.254,-21.60,-12.15,-30.75,17.49
12139,3.09,-5.66,-36.86,-113.770,-513.672,1464.844,-21.60,-11.70,-31.80,17.49
12151,-4.61,4.11,-38.02,106.445,-394.531,793.945,-21.00,-9.90,-30.45,17.49
12161,-4.74,1.54,-37.73,-584.961,181.152,985.840,-21.00,-9.90,-30.45,17.29
12171,-1.42,7.84,-38.14,75.195,-373.535,178.711,-21.60,-9.30,-31.80,17.15
12181,-0.68,13.11,-45.05,-73.242,-373.047,881.836,-21.30,-11.70,-30.30,17.44
12191,-1.98,7.10,-34.84,-499.512,82.031,1999.939,-21.30,-11.70,-30.30,17.53
12205,3.38,6.20,-38.30,354.004,-458.984,987.305,-19.65,-10.50,-29.10,17.44
12215,4.80,9.54,-43.62,698.730,-450.195,398.926,-21.60,-10.05,-31.50,17.34
12227,0.05,-1.09,-35.76,380.371,-1111.328,145.996,-20.55,-7.65,-29.85,17.49
12237,-10.58,-1.66,-34.05,62.500,-511.230,1267.578,-20.55,-7.65,-29.85,17.29
12247,-7.47,-8.65,-33.21,-270.508,-271.973,1999.939,-21.90,-7.50,-30.90,17.44
12257,2.21,-4.35,-42.23,1148.926,-471.191,-159.668,-20.85,-8.10,-29.10,17.77
12267,-6.33,-7.63,-38.87,-344.727,290.039,728.027,-20.85,-8.10,-29.10,17.49
12277,8.34,-8.04,-39.56,-5.371,-702.148,-485.352,-21.00,-7.05,-30.45,17.49
12287,7.78,4.70,-33.27,-303.223,-314.453,750.977,-19.95,-7.50,-29.40,17.44
12299,7.34,5.52,-88.69,180.664,-170.898,1518.066,-21.30,-8.85,-29.55,17.53
12309,7.82,6.34,-32.64,-759.277,-482.422,1999.939,-19.35,-5.25,-30.75,17.49
12319,-10.50,19.00,-49.62,630.371,-872.070,-307.129,-19.35,-5.25,-30.75,17.25
12329,-3.80,8.48,-87.87,97.168,-671.875,803.711,-20.55,-7.65,-30.75,17.44
12339,-14.19,2.89,-60.07,104.492,-445.312,1478.516,-18.75,-5.55,-28.65,17.34
12349,-9.94,9.28,-76.96,615.723,-480.957,611.816,-19.20,-9.15,-30.15,17.49
12361,-0.67,-0.28,-32.00,715.820,-782.227,-23.437,-19.65,-8.55,-30.30,17.63
12371,4.03,0.00,-34.75,-361.328,-253.906,1232.910,-18.75,-7.05,-29.40,17.49
12381,-5.40,-10.22,-33.04,299.805,67.871,1999.939,-20.70,-9.15,-28.95,17.53
12391,5.79,-4.76,-30.94,104.492,-429.199,-140.625,-18.90,-6.15,-30.75,17.34
12401,-12.50,-2.76,-33.12,-642.578,604.492,180.176,-18.90,-6.15,-30.75,17.25
12411,6.92,-5.85,-31.07,516.602,-643.066,-1167.480,-19.95,-8.70,-30.15,17.49
12421,4.18,4.53,-27.68,-397.461,-243.164,689.941,-20.25,-6.75,-31.65,17.44
12433,-1.96,6.32,-25.69,-629.883,14.160,1384.277,-18.75,-7.95,-30.15,17.49
12443,-4.82,-11.44,-44.73,94.727,-938.965,1999.939,-18.75,-8.70,-31.65,17.34
12453,-16.95,-2.93,-36.93,-225.586,-408.691,461.426,-18.75,-8.70,-31.65,17.53
12463,-5.92,-0.88,16.79,-516.602,-177.734,1999.939,-18.00,-7.05,-30.15,17.34
12473,-0.45,7.12,-34.93,290.039,-371.094,-207.031,-19.20,-7.95,-31.20,17.34
12483,2.40,-4.50,-39.77,-501.953,125.000,1535.645,-19.20,-7.95,-31.20,17.29
12493,2.82,-7.68,-40.13,131.836,-332.520,1999.939,-18.00,-7.50,-28.95,17.49
12505,3.60,-4.69,-36.37,-104.492,-264.160,1999.939,-18.45,-5.10,-29.40,17.25
12515,0.62,8.72,-52.50,-268.066,-854.004,976.074,-18.75,-6.75,-28.95,17.49
12525,0.75,-6.88,-36.99,-1.953,-635.254,1999.939,-18.75,-6.75,-28.95,17.34
12535,-1.28,3.14,-37.00,355.469,-763.672,-86.426,-17.10,-4.95,-29.10,17.68
12545,1.01,-1.89,-42.52,-610.352,416.016,373.047,-18.60,-6.45,-30.30,17.82
12555,11.02,-1.73,-43.81,685.059,-266.113,163.086,-18.60,-6.45,-30.30,17.49
12567,1.02,0.24,-44.13,1173.340,-454.590,990.234,-17.55,-5.10,-30.90,17.53
12577,3.25,4.37,-31.27,-251.465,-1245.117,587.891,-18.90,-6.45,-29.85,17.49
12587,-5.23,-6.95,-38.37,186.035,-1513.184,1999.939,-17.10,-4.95,-31.50,17.53
12597,-12.12,-2.15,-47.37,20.020,175.781,-207.520,-16.20,-5.70,-29.10,17.49
12607,-9.15,-11.30,-49.12,-139.648,12.207,1871.582,-16.20,-5.70,-29.10,17.44
12617,2.84,-10.20,-6.07,1017.090,-48.340,355.957,-16.20,-4.95,-29.85,17.53
12627,5.74,-5.68,-39.66,-73.730,262.695,1075.195,-16.65,-5.25,-29.85,17.34
12639,16.63,-6.11,-33.51,44.922,-1448.730,1099.609,-17.10,-7.65,-28.05,17.49
12649,0.24,4.79,-47.55,-576.660,-585.449,749.023,-17.55,-4.35,-30.15,17.44
12659,2.01,-4.42,-29.56,1079.102,-528.809,-107.422,-16.65,-3.75,-29.10,17.49
12669,3.08,18.95,-39.92,-8.301,-757.324,87.402,-17.10,-6.45,-29.85,17.29
12679,-2.40,-0.61,-49.19,431.152,-210.937,-159.180,-17.40,-4.50,-31.05,17.63
12689,-6.18,6.68,-34.27,-8.301,-145.996,523.437,-17.40,-4.50,-31.05,17.44
12699,2.47,-4.25,-27.90,447.754,-839.844,692.383,-16.50,-5.55,-29.70,17.53
12711,-3.08,-8.37,-42.56,535.156,-479.004,-270.020,-16.65,-2.85,-30.75,17.63
12725,11.34,7.20,-37.04,114.258,-512.695,618.652,-16.80,-5.55,-29.70,17.44
12735,5.03,-3.53,-39.19,1044.922,-420.410,73.242,-16.80,-5.55,-29.70,17.15
12745,-3.13,1.20,-49.31,-300.781,-505.371,558.105,-16.80,-5.55,-29.70,17.49
12755,5.73,-16.62,-33.44,504.395,-237.305,1999.939,-16.20,-4.50,-30.30,17.63
12765,-15.99,1.39,-48.69,-338.867,-436.035,1105.469,-16.20,-4.50,-30.30,17.25
12777,-13.63,3.70,-33.15,-415.527,-176.270,684.570,-14.40,-3.30,-29.55,17.53
12787,6.81,0.33,-33.92,791.992,-140.625,1040.527,-15.45,-4.05,-29.55,17.49
12797,2.02,7.79,-41.05,-668.945,-567.871,1232.910,-14.85,-3.90,-29.70,17.44
12807,13.95,-3.20,-44.79,158.691,-608.887,-324.707,-15.45,-2.10,-29.55,17.34
12817,-12.58,-2.18,-39.76,-416.992,-27.832,724.121,-15.45,-2.10,-29.55,17.34
12827,7.00,3.49,-46.84,-386.230,-233.887,666.016,-16.50,-3.90,-31.20,17.53
12837,-4.85,4.37,-44.49,47.852,-1506.836,1999.939,-15.30,-1.05,-30.90,17.53
12849,4.76,-1.65,-44.42,163.574,-1286.621,1999.939,-15.30,-1.05,-30.90,17.53
12859,-2.95,-0.80,-37.16,-612.305,-6.836,1232.422,-15.45,-4.50,-32.25,17.34
12869,3.22,-8.76,-40.81,312.500,-934.082,1999.939,-13.05,-1.95,-31.65,17.44
12879,5.02,4.63,-35.96,-1041.992,-406.738,970.703,-14.40,-2.85,-31.50,17.34
12889,29.91,-4.76,-29.49,885.742,-1488.770,1999.939,-14.55,-3.45,-31.95,17.68
12899,-2.79,8.56,-54.31,-514.160,-289.551,1065.918,-14.55,-3.45,-31.95,17.25
12909,11.89,-8.21,-43.81,423.340,-852.051,1999.939,-12.60,-2.25,-30.45,17.49
12921,3.94,1.23,-43.07,609.375,-645.508,1297.852,-13.95,-3.30,-31.80,17.25
12931,-18.92,9.42,-41.93,37.598,-393.555,1172.363,-13.20,-0.15,-29.85,17.34
12941,7.27,-6.83,-30.27,292.480,-425.293,1576.172,-12.30,-1.95,-28.95,17.44
12951,-16.81,8.02,-54.10,-285.645,-333.984,1388.184,-13.50,-3.30,-31.50,17.34
12961,3.50,-2.68,-33.18,31.250,137.207,-403.809,-13.50,-0.90,-29.85,17.49
12971,11.91,10.34,-10.05,431.152,-841.797,-342.773,-12.75,-2.10,-30.30,17.34
12983,6.20,9.13,-59.25,885.742,-885.742,1999.939,-12.75,-2.10,-30.30,17.49
12993,1.35,7.60,-29.14,328.613,113.281,791.016,-14.55,-0.75,-30.90,17.63
13003,6.22,-5.46,-39.35,-251.953,-914.551,1554.199,-12.45,0.15,-31.05,17.10
13013,-2.84,3.88,-37.39,222.656,-1742.676,1999.939,-13.05,-1.05,-30.90,17.49
13023,-8.39,-1.11,-40.11,-417.969,-854.980,-150.879,-13.35,-0.75,-31.65,17.44
13033,-15.61,-2.55,-40.11,287.109,-872.559,1332.520,-13.35,-0.75,-31.65,17.49
13043,-8.50,-1.79,-34.21,-450.195,-182.617,-776.367,-12.30,-1.50,-32.70,17.49
13055,-5.30,4.53,-34.78,-326.660,-40.039,708.496,-11.25,-1.65,-33.00,17.44
13065,9.66,0.60,-41.36,-188.965,-533.691,1967.285,-11.25,-1.65,-33.00,17.49
13075,9.64,-3.89,-43.09,-232.910,-582.031,1999.939,-11.10,-1.05,-30.15,17.44
13085,13.63,-1.31,-35.73,-413.574,-140.625,75.684,-11.25,-2.10,-32.55,17.25
13095,6.82,-6.11,-33.13,568.848,-880.371,589.355,-10.65,1.05,-31.65,17.63
13105,-6.98,1.33,-53.15,-431.641,-393.066,12.207,-11.70,0.45,-31.50,17.44
13115,0.23,-0.02,-32.21,406.250,-1568.359,1976.563,-11.70,0.45,-31.50,17.34
13126,-13.36,2.76,-40.17,149.414,-875.000,1192.871,-9.75,0.45,-32.25,17.44
13136,-4.40,3.55,-8.70,-477.051,227.539,-48.828,-9.75,0.45,-32.25,17.49
13146,6.66,1.35,-57.86,389.648,-989.746,1999.939,-11.25,0.45,-32.25,17.49
13156,-12.74,6.07,-38.73,-515.137,186.523,1295.898,-10.35,1.05,-32.40,17.29
13166,26.89,-13.67,-47.53,-136.230,-648.437,1999.939,-9.90,0.00,-32.40,17.49
13176,10.56,11.34,-42.43,-62.012,-846.680,1886.230,-11.10,-0.75,-32.70,17.44
13188,-7.51,-10.65,-57.13,-591.797,-404.785,1268.555,-11.10,-0.75,-32.70,17.49
13198,-0.53,-3.76,-32.82,-196.289,-475.098,-75.195,-8.70,0.00,-33.90,17.49
13208,4.63,-4.62,-36.40,47.852,-696.289,1611.328,-9.60,0.00,-33.90,17.49
13218,10.64,-0.44,-54.63,-242.676,-871.582,-58.594,-9.60,0.00,-33.90,17.34
13228,-1.17,-2.01,-47.94,-25.879,-1054.688,734.863,-9.60,0.00,-33.15,17.25
13242,0.06,5.10,-48.24,-173.828,-234.863,834.961,-8.40,0.00,-33.45,17.44
13252,18.05,-2.54,-35.21,71.777,-1097.656,82.520,-8.40,2.25,-33.90,17.25
13264,4.27,7.27,-41.60,-129.883,-225.098,833.008,-9.00,2.10,-34.50,17.63
13274,3.30,16.19,-54.13,-395.508,-78.125,552.246,-9.00,2.10,-34.50,17.49
13284,2.73,-3.07,-51.10,101.563,-895.020,1017.090,-7.65,1.50,-33.90,17.53
13294,-21.79,5.66,-49.55,-164.551,-186.035,829.102,-6.60,0.90,-33.75,17.29
13304,-10.02,-1.88,-42.73,-167.480,-326.660,194.336,-6.90,1.95,-34.20,17.49
13314,-1.85,-2.98,-38.12,319.336,-336.914,1173.828,-4.95,0.75,-33.90,17.49
13324,1.59,-0.84,-43.65,21.484,-208.008,1092.285,-5.85,0.45,-33.30,17.44
13336,10.15,-6.07,-43.51,-80.566,-928.711,1390.625,-7.05,2.55,-33.00,17.49
13346,6.97,-2.70,-48.76,-190.430,-277.344,647.949,-7.05,2.55,-33.00,17.49
13356,2.80,-5.27,-45.45,-96.680,-762.695,1052.246,-7.05,2.55,-33.00,17.44
13366,-2.08,-7.71,-58.80,-97.656,-494.629,1063.477,-6.30,3.30,-33.75,17.49
13376,0.19,-3.56,-22.44,-250.000,-652.344,1999.939,-6.30,3.30,-33.75,17.49
13386,-2.69,2.50,-51.41,-307.129,-584.473,1100.098,-4.95,2.70,-33.90,17.15
13396,-0.33,1.82,-49.02,-187.500,-320.312,1291.992,-5.10,2.85,-35.55,17.25
13408,0.82,6.58,-43.65,-548.340,-331.055,956.055,-6.60,2.55,-34.50,17.25
13418,5.53,-5.15,-41.40,-215.332,-692.383,556.152,-4.35,3.30,-35.25,17.49
13428,-12.37,1.06,-47.24,-5.859,-202.148,659.668,-4.35,3.30,-35.25,17.49
13438,0.81,-6.98,-39.48,36.133,-528.320,1211.914,-5.25,3.15,-34.65,17.49
13448,-14.31,-7.41,-42.60,-547.363,-310.059,1013.184,-4.35,3.30,-35.55,17.53
13458,-4.86,-9.43,-37.37,64.941,-292.969,457.031,-3.60,3.30,-35.25,17.44
13468,-6.02,-3.85,-45.92,-316.406,-78.613,594.727,-4.95,2.70,-34.95,17.01
13480,1.17,0.17,-40.47,-433.105,-185.059,897.949,-4.95,2.70,-34.95,17.29
13490,16.12,-2.24,-39.44,-22.949,-590.820,1633.789,-1.80,1.50,-34.65,17.29
13500,12.00,4.92,-40.18,-150.391,-718.750,527.832,-3.60,1.35,-33.75,17.25
13510,7.08,3.32,-41.87,-53.711,-724.609,748.047,-3.60,1.35,-33.75,17.49
13520,-6.76,0.12,-43.19,-461.426,-383.789,1079.590,-2.85,0.45,-34.05,17.68
13530,-0.10,0.66,-36.72,255.859,-788.574,836.914,-2.55,2.25,-33.15,17.34
13542,-3.04,-0.76,-41.79,-338.867,-317.383,707.520,-3.45,1.05,-33.90,17.68
13552,-2.42,3.66,-42.73,-270.020,-455.566,1141.602,-2.55,1.05,-34.20,17.63
13562,5.44,-2.43,-41.59,-112.793,-458.496,1434.082,-2.55,1.05,-34.20,17.49
13572,5.37,8.49,-45.79,-425.293,-124.512,754.395,-1.80,1.95,-34.20,17.15
13582,14.22,6.66,-36.08,-211.426,-826.172,309.082,-1.80,1.50,-33.45,17.63
13592,2.35,-4.11,-49.78,-18.555,-727.051,1156.738,-1.50,3.15,-34.20,17.49
13602,-0.85,-2.50,-47.60,-264.160,-1175.293,1892.578,-1.80,1.95,-33.90,17.34
13614,-31.40,2.38,-65.34,-79.102,-755.859,1231.445,-1.65,1.35,-33.75,17.77
13624,-28.06,-0.98,-36.34,-87.891,-395.508,495.117,-0.90,1.35,-33.00,17.44
13634,-24.45,-5.84,-23.53,-206.543,-42.480,1999.939,-1.05,0.75,-34.65,17.53
13644,-10.65,-3.77,-32.35,-167.969,-268.555,950.684,-1.05,0.75,-34.65,17.25
13654,-4.78,1.42,-35.73,-67.383,-14.160,627.441,-0.30,1.05,-33.90,17.34
13664,4.60,3.94,-25.34,175.781,36.621,512.207,-1.20,0.90,-34.50,17.53
13673,11.14,-2.39,-30.77,8.789,-602.539,1064.941,-0.90,0.90,-34.50,17.49
13684,4.41,-5.18,-35.10,153.320,-528.320,873.047,-0.90,1.65,-34.50,17.53
13694,-19.24,-4.19,-39.52,-181.641,-784.180,1777.344,-0.90,1.65,-34.50,17.49
13704,-26.12,-12.20,-43.46,-177.246,-202.637,1994.629,-1.05,1.95,-34.20,17.25
13714,-11.92,-4.08,-39.88,-180.664,143.555,770.508,-0.45,1.35,-33.75,17.49
13724,19.40,2.89,-18.47,-315.918,-153.320,1814.941,-0.45,1.35,-33.75,17.49
13734,26.41,0.16,-44.24,204.102,-277.344,1374.023,-0.15,0.15,-33.75,17.53
13743,13.88,-8.69,-46.48,-241.699,-1207.520,1347.656,0.15,0.45,-35.25,17.34
13759,-10.62,-13.08,-42.89,336.426,-252.441,1512.207,0.45,1.65,-35.25,17.49
13769,-22.85,-19.85,-53.31,-158.203,-588.867,795.410,0.45,1.65,-35.25,17.29
13779,-6.17,-23.63,-41.80,200.684,-224.121,125.000,1.20,1.65,-33.75,17.34
13789,3.45,-31.50,-43.29,143.066,-792.480,975.586,1.50,0.30,-34.20,17.49
13799,1.69,-35.39,-51.53,-202.148,11.230,571.289,1.50,0.30,-34.20,17.49
13808,6.58,-28.50,-49.66,-295.410,-766.113,661.133,0.30,1.05,-33.15,17.01
13820,9.32,-30.58,-33.77,-2.441,182.129,957.031,-0.15,0.15,-34.05,17.68
13830,-19.09,-44.31,-23.25,-376.953,-646.973,810.059,0.45,0.90,-33.75,17.25
13840,9.54,-28.72,-14.67,-511.230,-773.926,1986.328,0.90,0.90,-33.30,17.29
13850,-2.15,-21.01,-52.64,-20.508,-1271.973,806.641,0.90,0.90,-33.30,17.44
13860,-28.25,-21.95,-32.90,-203.613,-987.305,1448.242,0.90,1.35,-33.75,17.49
13870,-33.56,-11.12,-44.30,-259.766,-519.531,276.367,0.00,0.30,-33.90,17.53
13882,-22.69,2.83,-51.89,-417.969,-17.578,886.719,-0.45,0.45,-33.30,17.49
13892,-8.16,13.44,-22.24,-683.105,131.836,1228.027,0.45,0.45,-34.05,17.44
13902,7.05,17.56,-24.68,-432.617,-205.078,1999.939,-0.90,0.90,-34.05,17.49
13912,9.44,23.40,-57.10,-217.285,-540.039,565.918,0.45,0.15,-34.80,17.44
13922,8.82,28.63,-41.54,-123.047,-610.840,1191.895,1.05,0.00,-34.95,17.68
13932,1.47,27.82,-39.57,-193.848,-1096.680,1397.461,1.05,0.00,-34.95,17.49
13941,-9.59,24.44,-36.28,512.207,-654.297,934.082,0.30,1.05,-34.95,17.49
13953,-17.92,14.54,-47.89,-202.148,-407.227,533.691,1.50,1.50,-35.40,17.34
13963,4.21,12.14,-35.45,-164.062,-551.270,1125.000,2.25,1.95,-35.40,17.49
13973,11.50,12.14,-45.69,-190.918,-259.766,640.625,2.40,-0.15,-35.25,17.29
13983,9.65,3.28,-41.07,22.461,-714.355,1233.887,2.40,-0.15,-35.25,17.25
13993,-20.24,-0.31,-45.95,110.352,-721.680,782.715,3.60,2.10,-34.80,17.53
14003,2.21,-2.92,-76.46,-115.723,-534.180,778.320,2.40,1.65,-34.50,17.49
14013,2.58,-10.98,-40.11,-140.137,-386.230,1521.484,2.40,1.65,-34.50,17.53
14025,-5.75,-10.76,-53.80,-195.801,-207.031,1019.043,3.75,1.95,-35.40,17.49
14035,5.61,-3.48,-47.21,-99.609,-478.516,487.305,3.60,1.65,-35.25,17.49
14045,1.16,2.33,-54.69,3.418,-411.621,625.977,5.25,1.50,-36.15,17.34
14055,-5.60,2.08,-29.71,-370.117,-429.687,963.379,3.45,1.05,-35.70,17.34
14065,-1.64,3.11,-58.82,-60.547,-688.477,797.852,3.45,1.05,-35.70,17.29
14075,1.54,4.15,-33.36,-208.008,-756.836,705.566,4.20,1.05,-35.70,17.53
14084,-5.08,5.85,-40.95,-272.461,-944.824,1153.320,3.90,0.90,-35.55,17.25
14096,3.47,6.47,-39.85,-159.180,-166.016,801.270,3.90,0.90,-35.55,17.49
14106,7.27,1.66,-41.98,-130.371,-724.121,1430.664,6.30,1.35,-34.80,17.63
14116,-4.16,8.47,-40.15,-20.996,-840.332,785.156,5.70,2.70,-35.70,17.53
14126,0.53,6.68,-46.08,-81.543,-668.945,697.754,5.25,1.95,-34.95,17.29
14135,0.60,2.44,-47.18,-240.723,-409.668,802.734,6.30,1.35,-34.50,17.49
14145,-4.29,-2.37,-66.18,-138.672,-196.777,1310.059,6.30,1.35,-34.50,17.68
14155,-2.01,-0.56,-39.73,-94.238,-670.410,869.141,6.90,1.95,-35.70,17.49
14167,3.95,-3.61,-44.30,-44.434,-965.820,1000.488,5.55,1.65,-36.75,17.49
14177,-6.48,-4.22,-52.42,-381.348,-363.770,795.898,5.85,1.65,-36.30,17.49
14187,-0.63,-3.69,-52.40,-322.266,-407.227,1010.742,7.20,0.30,-35.40,17.63
14197,1.34,1.40,-29.95,-147.461,-463.867,450.195,7.20,0.30,-35.40,17.49
14206,1.27,0.53,-56.88,-208.984,-532.227,1425.293,7.20,1.05,-36.15,17.63
14216,-1.36,4.32,-39.37,-76.660,-351.074,809.570,6.90,1.05,-35.40,17.53
14226,-7.05,3.11,-52.48,23.437,-334.961,898.437,6.90,1.05,-35.40,17.49
14237,5.73,9.12,-35.40,-209.473,-373.047,827.148,7.35,0.45,-36.30,17.49
14247,5.63,4.77,-47.08,-95.703,-546.875,1126.953,7.35,0.45,-36.00,17.49
14257,3.43,3.02,-49.91,251.465,-428.711,779.785,8.55,0.45,-34.80,17.25
14271,-4.51,7.30,-64.35,-296.387,-950.684,697.754,9.00,2.10,-36.30,17.34
14281,-2.53,1.82,-55.80,16.602,-501.465,192.383,9.60,1.05,-36.60,17.29
14291,2.53,2.09,-42.60,-82.520,-1010.254,1687.012,9.30,0.15,-34.50,17.25
14300,-5.53,1.91,-31.58,-240.723,-326.172,904.297,9.30,0.15,-34.50,17.25
14311,5.20,-0.66,-39.79,85.938,-458.496,687.012,8.55,0.15,-36.30,17.53
14321,0.20,-0.15,-43.56,-287.598,-248.535,985.840,9.60,0.30,-35.40,17.53
14331,5.15,-4.05,-48.44,383.789,-492.187,802.734,9.30,0.45,-35.55,17.49
14341,10.11,-2.44,-37.94,129.883,-564.941,1679.688,11.25,0.90,-35.55,17.49
14350,2.84,-3.52,-40.38,-345.215,-1438.477,1710.449,11.25,0.90,-35.55,17.34
14360,-3.47,-6.59,-52.31,-293.457,-274.414,695.801,10.05,0.90,-36.30,17.44
14370,0.69,6.88,-42.08,9.277,-487.793,800.293,8.70,0.75,-36.15,17.53
14382,1.46,-1.69,-44.35,-406.250,-584.473,1999.939,10.65,-0.30,-36.15,17.49
14392,-7.18,-0.21,-48.18,184.570,-349.121,139.648,11.85,0.30,-35.40,17.53
14402,-13.47,3.20,-52.17,203.613,429.199,1999.939,11.85,0.30,-35.40,17.44
14412,-6.12,-1.62,-44.37,51.758,88.379,1031.738,10.95,0.45,-35.55,17.49
14421,0.45,-10.66,-50.27,-181.641,-484.375,1999.939,11.85,0.00,-34.65,17.34
14431,5.93,-4.11,-50.05,-112.305,-636.230,157.715,11.85,0.00,-34.65,17.44
14441,-0.36,-4.20,-50.10,53.223,-384.766,746.094,10.95,-0.90,-36.75,17.44
14453,-10.60,-0.84,-57.73,-494.629,-34.180,837.402,11.25,-1.35,-36.30,17.49
14463,2.53,2.50,-50.17,-92.285,-499.512,528.809,12.00,-0.15,-36.00,17.49
14473,16.11,-4.32,-45.15,115.723,-1259.766,1020.508,11.70,-0.15,-35.55,17.53
14483,-7.11,-0.49,-37.02,305.176,-441.895,756.348,11.70,-0.15,-35.55,17.53
14493,-2.98,2.76,-43.60,-103.027,-906.738,1192.871,13.35,-0.75,-35.70,17.34
14503,0.25,0.33,-51.83,-431.641,-359.375,650.879,11.85,-0.30,-36.15,17.44
14515,-4.32,1.15,-52.23,-12.695,-193.848,1999.939,11.85,-0.30,-36.15,17.53
14525,4.94,-5.83,-48.27,-321.289,-634.277,1346.191,12.75,0.15,-36.30,17.25
14535,4.40,-2.54,-43.84,-107.910,-893.555,1633.789,13.35,-2.25,-35.70,17.49
14545,1.13,-1.50,-48.20,-138.672,-728.516,1355.957,13.05,-0.75,-35.70,17.44
14555,-7.66,9.17,-53.74,-30.273,-453.125,1077.637,13.35,-0.75,-35.40,17.53
14565,0.55,-3.71,-37.23,-220.215,-499.512,832.520,13.35,-0.75,-35.40,17.53
14575,3.49,5.55,-54.24,-219.727,-598.633,441.406,14.40,-1.35,-35.55,17.49
14587,-1.76,-1.85,-43.92,-497.070,-469.238,917.969,15.15,-1.35,-36.30,17.63
14597,-1.89,-7.92,-108.70,92.285,-339.355,828.613,13.35,-1.95,-36.60,17.53
14607,7.76,1.10,-54.79,-407.227,-241.211,978.027,13.80,-2.25,-36.90,17.15
14617,8.79,2.21,-53.63,129.883,-827.637,1999.939,13.80,-2.25,-36.90,17.63
14627,-8.92,3.02,-40.83,143.066,-1442.383,1016.113,15.15,-2.55,-37.80,17.68
14637,-8.42,1.69,-46.74,-337.891,-603.516,83.984,15.75,-3.15,-37.65,17.44
14647,0.88,5.75,-47.80,-439.941,-364.258,700.684,15.75,-3.15,-37.65,17.29
14659,-1.38,5.36,-62.00,353.516,-68.848,966.309,16.05,-2.70,-38.40,17.49
14669,-3.47,4.73,-55.53,80.078,-589.844,187.988,17.40,-2.85,-36.75,17.49
14679,2.94,2.34,-48.80,-124.023,-627.441,997.070,15.90,-3.75,-36.75,17.53
14689,4.52,-1.15,-59.07,-288.574,-434.082,1155.273,15.90,-3.75,-36.75,17.25
14699,4.06,2.73,-56.08,50.293,-708.008,640.137,15.75,-3.45,-36.90,17.49
14709,-1.60,4.38,-51.49,-25.391,-330.078,364.258,15.90,-2.85,-37.50,17.49
14719,5.89,-4.51,-43.96,-90.332,-351.562,458.008,15.90,-2.85,-37.50,17.53
14731,2.49,-6.87,-50.53,57.129,-896.973,1210.938,17.40,-2.55,-37.05,17.49
14741,-1.98,2.76,-50.47,-146.973,-622.070,1116.699,17.55,-4.65,-36.15,17.63
14751,-5.82,0.18,-53.29,-390.625,-520.020,998.047,17.25,-3.45,-37.35,17.49
14761,-5.53,5.21,-47.00,-184.082,95.215,821.289,16.65,-4.50,-37.80,17.44
14771,4.53,-0.17,-50.34,30.762,-575.195,1481.445,16.65,-4.50,-37.80,17.10
14786,4.93,-0.98,-43.70,-332.520,-1152.832,1529.297,17.85,-4.95,-37.05,17.49
14795,3.53,3.98,-49.02,-276.367,-900.879,874.512,17.85,-4.05,-38.25,17.63
14808,1.53,7.09,-44.57,13.184,-906.738,1125.000,17.55,-5.10,-37.65,17.63
14818,-1.30,8.47,-44.53,-189.941,-823.242,1313.965,18.90,-4.50,-37.80,17.53
14828,0.74,5.32,-51.24,-354.492,-359.375,1006.836,18.90,-4.50,-37.80,17.49
14838,2.97,7.20,-59.23,-143.066,-258.789,1263.184,17.40,-4.05,-37.50,17.63
14848,2.33,1.44,-43.20,-168.945,-641.113,1303.223,18.15,-4.50,-36.75,17.29
14858,-0.21,5.44,-77.42,157.227,-571.289,1166.992,18.15,-4.50,-36.75,17.53
14868,1.86,-6.85,-37.46,-2.441,-771.484,983.398,19.50,-5.85,-38.10,17.63
14880,-1.73,-8.31,-54.29,205.078,-674.805,968.262,19.50,-5.55,-38.10,17.34
14890,-3.40,-5.34,-55.79,143.555,-395.508,1313.477,19.20,-6.75,-38.85,17.49
14900,-6.53,-7.15,-61.02,79.102,-248.535,428.711,19.20,-6.75,-38.85,17.53
14910,1.62,-5.08,-45.96,-230.469,-251.465,712.891,20.25,-6.30,-38.10,17.49
14920,-4.78,-4.24,-43.95,-193.848,-314.941,684.570,18.90,-7.35,-38.25,17.68
14930,2.53,-4.27,-54.72,-197.266,-767.578,1002.441,20.25,-6.75,-38.40,17.25
14940,-1.85,3.22,-38.24,-144.531,-353.516,510.742,20.25,-7.95,-37.35,17.34
14952,0.21,-0.52,-49.76,-205.078,-327.637,867.187,20.10,-6.45,-37.80,17.34
14962,3.44,-1.88,-41.57,166.992,-794.434,1922.852,20.10,-7.35,-36.75,17.63
14972,-6.23,-4.92,-46.76,-182.617,-353.027,1222.168,19.50,-7.05,-38.85,17.63
14982,0.27,0.48,-51.66,-131.348,-679.687,580.566,19.50,-7.05,-38.85,17.68
14992,10.11,-0.63,-40.59,-85.449,-386.230,590.820,20.55,-7.65,-36.75,17.49
15002,9.21,0.56,-45.04,-227.539,-606.934,1376.465,20.55,-7.65,-39.00,17.53
15014,4.68,-2.76,-56.19,-250.488,-326.660,1125.000,19.50,-8.25,-38.85,17.63
15024,6.36,6.77,-50.25,-200.195,-643.066,800.293,19.35,-6.90,-38.55,17.63
15034,4.63,-6.59,-40.08,166.016,-533.203,1999.939,19.35,-6.90,-38.55,17.25
15044,1.45,-0.57,-48.89,85.449,-272.949,1891.113,19.65,-8.55,-40.05,17.49
15054,6.34,-3.15,-42.50,213.867,-869.629,1145.996,19.50,-7.50,-37.65,17.68
15064,-2.76,-0.21,-48.44,-37.598,-233.398,702.148,19.50,-7.50,-37.65,17.77
15074,-1.82,4.94,-49.94,-191.406,-128.418,621.582,21.45,-8.25,-38.85,17.53
15086,-1.48,6.92,-51.93,-216.797,-161.621,597.168,20.10,-8.85,-36.75,17.53
15096,6.13,5.93,-45.27,-63.477,-603.516,859.863,20.55,-9.30,-39.00,17.63
15106,-1.60,9.81,-40.91,-341.797,-608.887,912.598,20.70,-9.45,-37.35,17.63
15116,-3.34,3.22,-41.18,169.434,-928.711,1070.313,20.70,-9.45,-37.35,17.44
15126,-4.73,9.09,-37.24,277.832,-207.031,1023.926,21.30,-8.55,-36.75,17.34
15136,-12.42,-3.69,-43.63,244.629,-688.477,1532.715,21.90,-11.10,-36.90,17.63
15146,-14.18,5.31,-48.66,2.441,-491.211,516.113,20.55,-9.75,-38.55,17.53
15158,-7.23,2.72,-43.95,-51.758,-337.891,876.465,22.20,-8.70,-37.65,17.44
15168,-5.24,3.04,-43.21,-345.703,-284.180,1013.184,22.20,-8.70,-37.65,17.49
15178,4.62,3.29,-42.15,-193.359,-635.742,412.109,21.45,-9.90,-38.40,17.49
15188,12.95,0.15,-55.92,53.711,-753.906,993.164,22.05,-12.15,-38.55,17.68
15197,-0.61,5.64,-47.34,-532.715,-214.844,1295.898,22.05,-12.15,-38.55,17.44
15207,7.54,8.04,-37.90,59.082,-247.559,913.086,22.20,-11.55,-38.10,17.49
15216,14.21,4.40,-53.42,1.953,-800.293,1353.516,21.45,-11.55,-38.85,17.49
15228,-8.44,10.76,-45.52,-136.230,-192.871,777.832,22.05,-8.85,-39.30,17.53
15238,5.34,12.15,-40.76,62.988,-32.227,1050.293,23.40,-12.30,-38.85,17.53
15247,10.45,7.32,-39.24,-195.312,-182.129,1424.805,23.40,-12.30,-38.85,17.29
15257,10.32,4.58,-45.11,603.516,-576.660,818.359,23.25,-14.10,-38.25,17.49
15266,5.93,9.09,-34.75,493.652,-830.078,418.457,22.65,-11.85,-39.90,17.53
15276,-10.05,1.80,-45.15,231.445,-760.742,1001.953,22.65,-11.85,-39.90,17.77
15288,-5.18,-0.21,-45.56,90.332,-309.570,680.664,22.80,-14.85,-38.25,17.49
15310,-0.77,-0.06,-55.85,440.430,-441.406,605.469,23.55,-12.45,-39.00,17.34
15319,-10.44,-8.00,-42.00,-285.645,-85.449,1960.449,21.90,-13.05,-39.90,17.53
15329,8.24,-4.14,-50.00,592.285,-586.914,83.008,21.90,-13.05,-39.90,17.44
15339,0.33,-5.30,-47.18,66.406,-732.422,540.527,22.80,-14.10,-39.00,17.53
15349,-10.76,-9.50,-50.12,-49.805,-518.555,1010.254,24.00,-14.10,-40.05,17.68
15361,0.68,-1.45,-48.37,-580.078,-502.930,1407.715,22.95,-14.25,-39.15,17.63
15371,-1.80,4.17,-44.54,-348.145,-406.250,1132.813,22.95,-14.25,-39.15,17.49
15381,2.76,-0.11,-49.08,-135.254,-716.797,1251.465,23.70,-14.25,-39.15,17.49
15391,2.60,4.60,-39.98,176.270,-675.293,907.227,24.15,-14.70,-38.40,17.53
15401,-4.24,3.80,-37.24,-104.492,-983.887,1242.676,24.15,-14.70,-38.40,17.25
15411,-12.31,3.18,-46.64,30.273,-400.879,520.020,24.30,-15.60,-39.00,17.44
15421,-3.44,3.92,-44.48,63.477,-547.852,569.824,24.75,-13.20,-40.05,17.49
15433,-3.50,3.02,-46.67,-258.789,-161.133,859.863,24.30,-16.05,-38.25,17.49
15443,3.49,-4.47,-48.78,-337.891,-599.609,1910.645,22.35,-15.60,-39.30,17.63
15453,14.15,2.34,-48.47,320.312,-733.398,1075.195,22.35,-15.60,-39.30,17.49
15463,-0.81,2.08,-47.92,139.160,-448.730,1584.961,24.00,-17.25,-38.55,17.53
15473,-2.43,-2.76,-41.98,60.547,-478.027,1941.406,23.55,-14.10,-41.25,17.44
15483,4.83,-1.74,-46.73,222.656,-779.297,-138.184,23.55,-14.10,-41.25,17.34
15493,4.77,2.63,-47.68,-83.008,-553.711,804.199,24.15,-19.05,-39.60,17.34
15505,1.89,1.32,-55.21,266.113,-481.445,41.992,24.00,-15.60,-39.75,17.29
15515,1.92,0.27,-41.73,181.641,-384.277,804.687,24.15,-18.60,-38.85,17.25
15525,-4.12,-1.99,-41.27,-62.500,-608.887,1592.285,22.80,-17.25,-39.30,17.63
15535,7.82,-6.56,-47.98,251.953,-758.301,886.230,22.80,-17.25,-39.30,17.82
15545,3.47,1.60,-38.02,-29.297,-633.789,453.613,22.95,-19.05,-40.35,17.44
15555,0.01,-2.01,-44.02,-516.113,-454.590,1352.539,22.65,-17.40,-41.40,17.44
15565,5.73,-2.01,-39.03,57.129,-652.344,871.094,24.00,-19.20,-38.25,17.29
15577,-0.83,0.93,-47.65,-99.121,-319.336,1104.980,23.55,-18.00,-40.80,17.49
15587,-0.45,-0.47,-40.39,-169.434,-345.703,1291.504,23.55,-18.00,-40.80,17.44
15597,3.80,3.83,-32.56,50.781,-819.824,150.879,24.15,-18.60,-39.90,17.49
15607,4.02,9.44,-37.64,-112.793,-717.285,739.258,23.55,-16.50,-40.80,17.63
15617,2.58,2.01,-43.96,-10.254,-755.371,1999.939,23.55,-16.50,-40.80,17.34
15627,1.29,1.60,-41.78,-33.691,-718.750,566.895,23.55,-19.20,-40.50,17.49
15639,-4.81,2.65,-50.09,19.043,-308.105,1096.191,24.60,-17.10,-39.60,17.68
15649,-1.43,0.57,-43.15,270.996,-699.707,593.750,24.00,-20.40,-39.75,17.49
15659,-4.67,6.10,-50.28,117.188,-504.395,359.863,24.15,-18.30,-40.35,17.53
15669,-8.77,7.69,-28.68,-346.680,-265.137,1563.477,24.15,-18.30,-40.35,17.29
15679,-0.79,0.24,-39.97,-175.781,-491.699,278.320,22.95,-20.70,-40.35,17.53
15689,-7.37,10.71,-41.63,66.406,-321.777,560.059,25.05,-17.70,-39.75,17.25
15699,1.44,3.05,-43.80,-135.742,-42.480,1778.320,25.05,-17.70,-39.75,17.44
15711,7.28,6.64,-41.56,-282.715,-626.465,473.145,24.30,-19.20,-39.75,17.53
15721,-6.53,-1.91,-41.82,-719.727,-446.777,1760.254,23.70,-21.45,-39.75,17.68
15731,-0.40,-3.11,-39.30,453.125,-708.008,234.863,24.15,-20.25,-41.10,17.53
15741,8.25,9.35,-46.95,184.570,-857.422,940.430,24.15,-20.25,-41.10,17.49
15750,-8.07,-1.39,-43.03,-62.500,-632.324,1999.939,24.15,-20.25,-41.10,17.87
15760,-2.11,-4.53,-50.16,-206.055,-180.664,501.465,23.70,-22.65,-40.65,17.53
15770,-8.63,11.60,-26.72,-26.855,-627.930,412.598,24.30,-19.20,-40.50,17.87
15782,-2.27,8.07,-40.77,-9.277,-46.875,501.953,23.55,-20.85,-40.05,17.49
15792,-1.86,11.02,-39.46,260.742,-111.816,1254.883,23.55,-20.85,-40.05,17.63
15802,6.89,11.02,-36.05,-352.051,-712.891,1677.246,24.90,-24.30,-40.35,17.53
15812,0.82,6.47,-38.31,113.281,-860.840,-467.773,24.00,-22.50,-40.50,17.49
15828,-3.52,2.55,-36.50,-342.285,-455.566,1914.551,24.00,-22.50,-40.50,17.44
15837,7.51,-0.39,-35.07,424.316,-1003.418,-389.648,24.30,-23.70,-40.50,17.49
15849,-3.18,-7.33,-27.43,666.016,-657.227,159.668,23.55,-21.60,-40.50,17.68
15859,-14.47,10.63,-53.43,74.707,-442.871,461.426,23.55,-22.80,-40.80,17.49
15869,2.01,-8.40,-42.74,627.441,-924.805,980.957,23.40,-24.30,-40.35,17.77
15879,-3.49,1.78,-42.46,-675.293,-286.133,1387.695,23.40,-24.30,-40.35,17.44
15889,2.13,-6.09,-45.69,178.223,-464.355,1887.695,24.00,-22.80,-40.05,17.63
15899,9.20,2.05,-38.53,-306.641,-597.168,1370.117,24.15,-24.60,-40.65,17.29
15909,-4.14,-3.08,-52.52,-688.477,-251.465,1999.939,24.15,-24.60,-40.65,17.49
15921,-15.37,0.78,-38.96,-632.812,-104.004,-209.961,24.30,-23.70,-41.25,17.34
15931,-14.79,-10.23,-25.44,404.297,-958.984,140.137,24.30,-23.70,-41.25,17.25
15941,-4.32,2.91,-36.37,-39.063,-758.789,1121.094,22.65,-23.10,-41.10,17.29
15951,-5.63,1.15,-41.18,61.523,-303.711,1999.939,23.55,-26.40,-39.30,17.49
15961,-7.46,2.86,-44.07,63.965,-727.051,157.227,23.55,-26.40,-39.30,17.34
15971,-2.37,8.54,-44.88,-200.684,-208.496,50.781,22.80,-25.20,-39.75,17.77
15983,2.27,13.21,-38.34,-104.492,-619.141,916.504,22.80,-24.00,-42.00,17.68
15993,1.22,-4.34,-60.49,251.953,-843.750,1999.939,24.00,-24.45,-40.50,17.49
16003,-2.02,2.82,-42.82,-126.465,-1104.980,173.828,23.70,-27.45,-40.65,17.44
16013,-12.51,1.46,-53.61,-801.758,383.789,1343.262,24.15,-24.60,-41.85,17.34
16023,3.24,-7.44,-35.21,839.355,-728.027,32.715,24.30,-25.65,-41.25,17.34
16033,-3.79,8.45,-42.52,9.766,-184.082,437.012,24.30,-25.65,-41.25,17.49
16043,2.08,-15.25,-39.11,442.871,-711.914,1999.939,22.80,-24.00,-41.25,17.77
16055,-1.30,-14.57,-48.07,383.301,-454.590,1999.939,22.35,-27.60,-40.50,17.68
16065,0.73,-5.03,-36.90,-63.477,-389.648,981.445,22.20,-26.25,-42.15,17.49
16075,7.79,1.67,-52.24,-289.062,-365.234,1689.453,22.65,-25.05,-41.10,17.34
16085,9.69,6.05,-50.37,211.914,-502.930,-684.082,22.65,-25.05,-41.10,17.25
16095,0.98,-1.00,-39.38,-572.266,394.531,-38.574,22.20,-25.50,-41.40,17.44
16105,0.46,-7.34,-37.66,853.027,-342.285,1405.273,21.45,-27.45,-41.40,17.63
16115,-6.97,8.76,-45.56,-182.129,-588.867,621.094,21.45,-27.45,-41.40,17.53
16127,-6.76,7.95,-47.73,-470.215,-462.891,1011.230,20.85,-28.05,-41.55,17.49
16137,-6.79,-4.98,-30.89,-79.590,-1041.992,1999.939,21.00,-27.45,-40.65,17.68
16147,-6.92,3.08,-31.59,390.137,-549.805,268.555,22.05,-28.80,-40.80,17.49
16157,-24.96,0.65,-40.00,-630.859,152.832,1432.617,21.90,-28.65,-41.85,17.53
16167,-4.36,-0.49,-26.46,-125.488,-347.168,-507.324,21.90,-28.65,-41.85,17.34
16177,-8.96,-6.01,-37.92,-603.027,-125.977,1650.391,22.80,-30.00,-41.25,17.44
16189,-1.95,-5.50,-42.32,-11.230,-338.867,244.629,22.20,-26.55,-42.60,17.34
16199,2.14,-9.16,-47.15,416.504,-701.660,-541.016,22.65,-28.65,-41.85,17.44
16209,-6.92,-8.46,-39.72,-752.441,-157.715,94.238,22.05,-29.25,-41.25,17.68
16219,2.56,-6.69,-44.84,541.016,-856.934,-365.234,21.45,-28.65,-42.60,17.34
16229,3.89,5.56,-37.27,-550.293,-825.684,854.980,22.95,-28.65,-41.40,17.49
16239,-1.03,-10.32,-45.00,878.418,-527.344,53.223,20.85,-29.55,-40.50,17.53
16249,0.25,5.50,-42.85,-426.270,-365.234,1721.191,20.85,-29.55,-40.50,17.25
16261,-4.96,9.43,-42.89,-196.289,-582.520,1169.922,20.85,-28.80,-40.80,17.34
16271,11.59,-8.05,-50.55,482.910,-297.363,1999.939,21.60,-31.20,-40.80,17.44
16281,9.69,7.98,-39.75,-337.891,-654.297,714.355,22.05,-28.80,-40.80,17.63
16291,3.08,-4.95,-51.91,808.594,-743.652,1607.910,21.30,-29.55,-40.50,17.63
16301,-8.23,9.36,-34.23,-228.516,-466.797,598.145,21.30,-29.55,-40.50,17.63
16311,-10.20,-3.21,-50.83,85.449,-811.523,1181.641,22.05,-28.35,-40.05,17.53
16321,-4.34,3.27,-51.85,-627.441,137.207,1401.855,20.10,-29.25,-40.50,17.68
16333,-0.02,1.21,-41.84,-7.812,-296.875,1094.238,20.10,-30.00,-42.45,17.53
16347,16.65,-7.86,-34.88,346.191,-430.664,1999.939,20.10,-29.55,-39.30,17.44
16357,0.35,5.31,-38.89,-265.625,-297.363,1424.316,19.95,-31.35,-39.15,17.53
16367,4.05,-1.24,-38.99,774.414,-822.754,1208.496,19.95,-30.60,-40.65,17.53
16377,0.04,5.41,-35.08,-833.984,-781.738,948.242,19.95,-30.60,-40.65,17.53
16387,-0.49,-11.40,-33.44,625.000,-753.906,256.348,19.95,-31.80,-40.65,17.34
16399,-0.33,-3.76,-22.24,454.590,-515.625,-271.484,18.90,-30.75,-40.50,17.53
16409,-0.91,8.48,-38.86,-287.598,-312.500,571.777,20.55,-31.20,-39.00,17.49
16419,4.49,-9.02,-48.94,161.621,-313.477,745.605,19.35,-31.20,-40.05,17.49
16429,-1.11,9.41,-36.53,124.023,-666.504,451.660,19.50,-31.05,-40.35,17.34
16439,7.81,-4.45,-47.38,608.398,-103.516,93.262,19.95,-31.05,-40.35,17.29
16449,7.44,-0.21,-43.82,244.141,-327.637,299.805,20.25,-33.00,-41.40,17.63
16459,12.50,-7.36,-29.11,385.742,-692.871,-637.695,20.25,-33.00,-41.40,17.53
16471,2.27,-8.98,-36.95,346.680,-729.004,-491.699,18.90,-30.00,-40.05,17.49
16481,-10.97,10.50,-99.68,485.352,-640.137,-17.090,18.90,-34.05,-39.75,17.44
16491,-8.73,-1.76,-7.47,222.168,87.891,-67.383,18.60,-32.40,-40.05,17.63
16501,-9.98,-0.20,-24.21,-79.102,-995.117,1350.586,17.25,-31.05,-41.10,17.34
16511,-8.49,-4.33,-32.50,-532.715,107.910,835.937,17.25,-31.05,-41.10,17.44
16521,10.89,-2.40,-23.50,528.809,-984.863,1999.939,18.00,-33.45,-40.65,17.53
16531,1.22,11.48,-43.68,-338.867,-215.332,1382.813,18.90,-32.40,-39.30,17.63
16543,3.19,9.21,-39.22,-225.098,-934.570,368.652,19.35,-33.15,-40.50,17.77
16553,9.43,-6.43,-18.06,272.949,-1135.742,118.652,18.90,-30.75,-42.00,17.44
16563,-8.78,10.63,-36.83,-128.418,-639.160,1095.703,18.45,-32.25,-40.65,17.68
16573,-5.35,-13.43,-39.26,181.641,-331.543,-73.730,18.15,-32.85,-40.50,17.49
16583,-13.32,-5.21,-52.25,-71.289,28.320,324.219,18.15,-32.85,-40.50,17.15
16593,-3.82,-2.53,-34.30,-149.902,43.945,-205.078,19.65,-32.85,-40.80,17.63
16605,3.17,-0.39,-38.65,-359.863,-211.426,-464.844,16.65,-34.35,-41.25,17.34
16615,-5.46,-4.69,-29.11,198.242,-430.176,1999.939,17.40,-33.15,-42.45,17.49
16625,-2.98,7.51,-48.39,-808.594,18.555,592.285,18.15,-34.35,-40.50,17.34
16635,9.57,7.10,-29.38,1088.379,-1312.012,1999.939,17.40,-34.80,-41.25,17.53
16645,-8.63,13.62,-35.09,-185.059,-360.840,888.184,17.40,-32.40,-42.00,17.49
16655,-4.21,-1.61,-31.33,676.270,-149.414,1833.008,17.85,-32.40,-41.25,17.49
16665,-5.54,9.40,-43.29,293.457,-635.742,513.672,17.85,-32.40,-41.25,17.49
16677,-14.53,-4.55,-42.40,191.406,-112.305,1211.914,16.50,-33.45,-40.35,17.53
16687,3.15,3.73,-22.20,-121.094,-29.785,-663.086,16.65,-32.85,-40.80,17.25
16697,6.92,-13.66,-15.24,74.219,-578.613,192.383,17.55,-34.65,-39.90,17.49
16707,2.57,-0.85,-70.22,-413.574,-650.391,1017.578,16.50,-34.65,-40.65,17.49
16717,11.18,-6.69,-28.03,-414.551,-797.852,1999.939,16.50,-34.65,-40.65,17.44
16727,1.08,2.57,-37.50,-58.105,-629.883,1528.320,17.25,-34.65,-39.90,17.49
16737,7.74,-6.96,-32.26,-173.828,-372.559,-59.082,16.50,-34.65,-39.90,17.34
16749,-0.12,5.91,-28.85,-733.887,-90.332,-184.082,16.50,-34.65,-39.90,17.49
16759,2.39,-2.39,-33.75,574.219,-654.297,1548.828,16.80,-34.20,-37.65,17.63
16769,-5.86,-1.94,-28.69,-139.648,-1.465,724.121,15.90,-34.80,-40.50,17.29
16779,9.37,-3.83,-37.73,-150.391,-598.145,1999.939,14.55,-33.75,-41.10,17.44
16789,1.83,-0.51,-28.22,337.891,-1351.074,1270.020,14.85,-34.65,-39.60,17.68
16799,-4.22,-5.61,-42.40,-245.605,-416.992,-337.402,14.85,-34.65,-39.60,17.49
16811,-8.62,-0.40,-46.15,-576.172,-74.707,-235.352,15.15,-35.25,-40.50,17.49
16821,-2.89,-5.40,-42.60,-20.996,-641.113,991.699,16.50,-34.65,-40.35,17.68
16831,2.40,-0.62,-36.71,324.707,-370.117,904.785,15.90,-35.25,-40.05,17.63
16841,5.88,-3.04,-34.24,-379.395,-622.559,1418.945,15.45,-34.80,-39.00,17.53
16851,4.63,1.96,-13.43,314.941,-770.508,793.945,14.40,-34.35,-40.50,17.34
16866,-5.53,2.95,-25.97,-553.711,-226.074,923.828,15.75,-35.40,-38.85,17.49
16875,1.54,-6.64,-32.40,17.090,-888.672,1245.605,15.75,-35.40,-38.85,17.63
16887,-2.63,-2.09,-36.60,-245.605,-384.766,1999.939,14.85,-35.40,-38.40,17.68
16897,10.49,4.08,-35.62,212.402,-700.684,1267.090,14.85,-35.85,-40.65,17.49
16907,3.37,-9.12,-26.11,-584.473,-410.645,46.387,15.30,-35.40,-39.90,17.53
16917,2.56,-4.21,-51.77,462.891,-682.129,1811.035,13.80,-34.65,-39.15,17.49
16927,-8.50,0.97,-33.35,-607.910,-179.687,793.457,13.80,-34.65,-39.15,17.29
16937,4.08,4.98,-21.69,-614.746,-447.266,1561.523,13.95,-34.80,-39.75,17.49
16947,22.25,0.78,-10.91,341.797,-1044.434,1195.313,13.80,-35.85,-39.90,17.63
16959,-1.50,-0.94,-39.89,302.734,-970.703,626.953,13.80,-35.85,-39.90,17.77
16969,-6.50,-2.78,-32.06,-444.336,-473.145,187.500,14.55,-37.05,-38.85,17.49
16979,7.56,-2.08,-14.02,605.469,-827.637,1999.939,13.95,-34.05,-39.30,17.29
16989,-20.10,6.53,-25.60,-59.082,-225.586,280.762,13.95,-36.00,-38.25,17.53
16999,-4.92,-1.67,-44.87,521.973,280.762,135.254,13.35,-37.05,-38.85,17.34
17009,-0.66,-7.62,-46.15,-605.957,803.711,1679.688,13.35,-37.05,-38.85,17.49
17021,7.15,-2.56,-32.71,89.844,-578.125,-211.426,14.55,-36.15,-38.40,17.49
17031,8.98,-2.42,-13.41,660.645,-1329.102,1999.939,13.95,-36.75,-39.00,17.29
17041,2.90,7.66,-42.31,-934.082,-740.234,-277.344,12.60,-36.15,-39.60,17.53
17051,2.78,5.40,-45.92,696.777,-997.070,1551.758,11.70,-34.80,-38.55,17.77
17061,-10.35,5.44,-31.69,-62.012,-265.137,532.715,13.35,-36.60,-39.15,17.53
17071,-1.74,1.82,-24.34,-370.605,-180.176,1999.939,13.20,-35.55,-39.75,17.63
17081,5.95,1.70,-40.26,55.176,-590.332,935.547,14.70,-35.25,-37.80,17.34
17092,8.54,2.33,-31.98,-317.383,-471.680,1730.469,14.70,-35.25,-37.80,17.34
17102,-0.60,-1.11,-33.64,-226.562,-460.449,1494.141,12.75,-36.00,-40.05,17.49
17112,2.97,2.95,-41.48,100.586,-701.660,1133.789,12.60,-35.85,-38.85,17.49
17122,-2.42,4.37,-32.29,-241.211,-698.730,244.141,11.40,-35.40,-39.15,17.44
17132,-0.51,-2.19,-59.34,574.219,-666.992,1271.973,13.05,-36.15,-38.85,17.44
17142,-16.58,-0.96,-26.73,-199.707,-319.824,489.258,13.05,-36.15,-38.85,17.49
17152,-8.37,2.38,-53.01,60.059,-473.633,766.602,12.45,-35.25,-39.30,17.44
17164,1.85,-9.05,-42.42,-22.949,-181.641,-40.039,13.50,-36.75,-38.55,17.49
17174,6.01,-3.16,-33.21,107.422,-773.926,868.164,12.30,-33.75,-39.15,17.10
17184,-0.75,2.78,-35.50,-155.762,-158.691,920.410,12.00,-36.00,-39.00,17.53
17194,17.38,-5.15,-30.87,307.129,-716.797,928.711,12.60,-37.80,-39.90,17.49
17204,3.69,9.36,-31.21,-30.273,-952.148,848.145,11.85,-35.85,-39.15,17.49
17214,4.72,-4.14,-35.28,-202.637,-457.520,-562.988,11.85,-35.85,-39.15,17.44
17226,0.08,11.11,-41.43,-196.777,-428.223,184.570,12.60,-36.60,-39.90,17.68
17236,18.02,-7.39,-37.46,-125.488,-988.770,1845.703,11.85,-36.15,-38.85,17.63
17246,10.17,1.10,-35.40,-208.496,-506.348,1779.785,12.45,-37.20,-39.75,17.53
17256,7.72,-1.11,-29.69,52.734,-985.840,195.801,11.85,-36.15,-40.35,17.49
17266,-6.08,2.96,-39.36,-354.980,-177.734,1030.762,11.85,-36.15,-40.35,17.34
17276,1.63,-9.12,-36.36,-320.312,-94.238,1131.836,10.50,-36.45,-39.75,17.63
17286,10.09,1.31,-27.63,-194.336,-376.953,1770.508,11.40,-36.15,-38.40,17.49
17299,1.91,-0.11,-37.93,143.066,-403.809,1295.410,11.40,-36.15,-38.40,17.49
17309,3.95,-5.05,-41.40,-125.000,-994.141,897.461,12.00,-36.75,-39.00,17.63
17319,15.92,-9.27,-43.52,177.734,-1002.930,1615.723,11.70,-36.45,-39.00,17.63
17329,1.85,-2.41,-39.53,-245.605,-316.406,934.082,11.25,-35.55,-40.05,17.63
17339,4.17,-3.96,-37.72,-107.422,-619.629,777.832,10.35,-35.85,-39.15,17.68
17349,-4.76,8.09,-49.69,-202.148,-203.125,730.957,10.35,-35.85,-39.15,17.25
17359,-1.39,1.36,-29.47,-240.723,-257.812,1065.430,10.35,-36.15,-39.60,17.68
17371,9.07,2.87,-40.74,-125.977,-417.969,27.832,11.25,-36.45,-38.55,17.44
17385,2.47,1.65,-43.40,-346.191,-343.750,794.434,10.50,-36.45,-37.80,17.53
17395,7.38,0.55,-34.31,-106.934,-546.875,834.473,12.30,-36.60,-38.85,17.44
17405,1.60,2.25,-29.03,-131.348,-215.820,568.848,12.30,-37.05,-38.85,17.49
17415,8.07,7.05,-35.39,34.180,-559.082,1317.871,10.35,-36.60,-38.10,17.29
17425,-2.19,6.77,-35.18,-77.637,-106.445,262.207,10.35,-36.60,-38.10,17.49
17435,10.48,-1.49,-39.12,-187.500,-536.621,1058.594,11.70,-37.20,-39.00,17.49
17447,9.27,4.01,-32.82,-79.102,-798.340,1553.711,10.95,-37.95,-39.75,17.63
17457,3.82,0.76,-30.15,-278.809,-612.305,1211.914,10.50,-36.75,-38.55,17.44
17467,-0.14,0.49,-32.98,86.426,-950.195,806.641,10.65,-36.60,-38.10,17.53
17477,-5.76,0.24,-46.28,-222.656,-290.527,1666.016,10.65,-36.60,-38.10,17.49
17487,-0.53,1.18,-37.34,-120.605,-522.461,874.512,10.35,-36.60,-38.40,17.53
17497,4.77,0.69,-14.07,-233.887,-253.418,1003.418,10.05,-37.20,-39.30,17.25
17509,-2.40,7.12,-29.22,-282.227,-288.086,699.707,10.05,-37.20,-39.30,17.49
17519,0.46,-5.52,-40.50,13.672,-924.805,931.152,10.35,-36.15,-38.40,17.29
17529,-5.65,4.69,-39.21,-363.281,-623.535,591.309,10.35,-37.05,-38.85,17.82
17539,-2.66,-8.51,-42.16,83.008,-544.922,1856.445,9.60,-37.80,-39.15,17.49
17549,-4.23,3.16,-38.79,-239.258,-284.668,786.133,9.15,-37.05,-38.10,17.68
17559,3.96,-4.22,-39.43,-164.062,-481.934,1431.641,9.15,-37.05,-38.10,17.49
17569,1.49,2.69,-48.26,80.566,-590.820,883.301,10.05,-36.45,-38.55,17.53
17581,-8.99,-5.43,-41.23,-90.332,-362.305,393.066,10.05,-39.15,-38.55,17.49
17591,8.18,-9.33,-35.98,140.137,-540.039,1451.660,9.90,-38.25,-38.40,17.53
17601,9.14,-1.74,-42.09,-522.949,-314.941,541.504,9.30,-37.65,-37.80,17.34
17611,12.46,-7.78,-38.92,-111.816,-654.785,1999.939,9.15,-39.00,-37.35,17.77
17621,7.79,0.85,-46.97,-0.977,-333.496,793.945,9.75,-36.45,-37.50,17.49
17631,0.93,3.71,-36.54,-459.473,-298.340,1128.906,9.15,-37.80,-38.10,17.34
17641,1.07,-0.58,-43.98,-185.059,-387.207,452.148,9.15,-37.80,-38.10,17.53
17653,0.88,4.63,-40.32,-68.359,-462.402,767.090,9.90,-38.25,-38.10,17.63
17663,-0.05,0.69,-38.37,-120.605,-363.770,1240.234,8.55,-37.95,-37.80,17.63
17673,-5.53,2.72,-39.27,42.969,-303.711,667.969,9.00,-37.65,-38.25,17.77
17683,-3.15,-3.81,-42.57,-211.426,-316.406,858.398,7.80,-38.40,-37.05,17.34
17693,-4.85,0.60,-48.17,47.363,-225.586,643.066,7.80,-38.40,-37.05,17.49
17703,0.15,-3.32,-40.51,-283.691,-140.137,1275.391,7.80,-38.70,-37.80,17.68
17715,3.56,-3.34,-45.50,-235.840,-786.621,1082.031,8.70,-38.25,-38.10,17.77
