Time_ms,GyroX_degps,GyroY_degps,GyroZ_degps,AccelX_g,AccelY_g,AccelZ_g,MagX_uT,MagY_uT,MagZ_uT,Temp_C
1414,3.10,-0.65,-1.32,90.820,-38.574,715.820,-18.60,-11.70,-26.55,18.88
1429,0.66,-2.98,-2.74,119.141,58.594,985.840,-19.50,-10.65,-28.95,18.59
1439,7.44,-1.13,-2.01,179.199,-33.203,1259.277,-21.30,-11.70,-29.55,18.83
1449,2.67,2.30,-3.47,126.465,90.332,958.496,-21.30,-11.70,-29.55,18.92
1459,2.55,-1.29,-1.71,213.867,30.762,1123.047,-25.35,-10.65,-33.15,18.54
1469,2.20,0.92,0.22,76.660,89.844,766.602,-25.80,-10.95,-32.55,18.88
1479,1.11,-3.10,-4.14,220.215,-43.945,1046.387,-26.10,-11.55,-28.95,19.07
1489,1.43,0.22,-4.89,145.508,-4.883,1134.766,-22.35,-12.15,-28.05,18.88
1501,-1.48,-1.92,0.72,198.730,95.215,920.410,-22.35,-12.15,-28.05,18.88
1511,-2.07,-1.39,-3.71,61.523,57.617,1012.207,-17.40,-11.70,-25.80,19.02
1521,-1.27,2.05,-6.83,238.770,36.133,863.770,-17.85,-10.05,-26.10,19.07
1531,-1.40,-0.40,-3.25,125.488,47.363,959.961,-17.85,-10.05,-26.10,18.68
1541,-2.69,-1.95,-1.95,206.055,-73.730,1183.105,-22.65,-9.90,-31.65,18.54
1551,-2.29,-0.47,-3.31,175.293,90.332,950.195,-24.90,-10.65,-31.65,18.88
1561,-2.15,-2.27,-5.23,29.785,-18.066,1032.715,-26.10,-11.10,-31.95,18.92
1573,-3.27,-2.03,-5.65,269.531,13.672,830.078,-24.60,-11.10,-29.70,18.83
1583,-2.11,-0.60,-7.34,157.715,-92.773,1020.996,-24.60,-11.10,-29.70,18.88
1593,-0.70,-1.57,-5.45,159.180,-0.488,814.453,-18.45,-8.70,-25.65,18.92
1603,-0.50,-0.53,-2.85,76.660,156.738,1158.691,-18.45,-8.70,-25.65,18.92
1613,-0.14,-4.27,-4.93,158.691,-34.668,800.293,-18.75,-11.55,-26.40,18.83
1623,-0.85,-0.09,-2.54,93.750,-50.293,1345.215,-22.95,-9.45,-30.45,18.49
1633,-0.75,-1.05,-4.75,156.250,41.504,863.770,-22.95,-9.45,-30.45,18.83
1645,0.40,1.17,-0.76,252.441,10.254,1060.547,-25.35,-12.30,-30.15,18.68
1655,-1.85,3.14,-3.82,271.973,-50.781,668.945,-25.35,-12.30,-30.15,19.07
1665,-1.33,0.16,-2.62,238.770,27.832,1441.895,-18.90,-11.70,-25.35,19.07
1675,-2.69,1.40,-2.36,131.836,102.051,683.105,-18.75,-9.45,-26.70,18.88
1685,-1.94,1.60,-3.60,291.016,-81.055,1269.531,-20.70,-9.90,-30.45,18.88
1695,0.82,1.08,-3.80,200.195,-96.680,863.770,-22.95,-9.15,-31.65,19.07
1705,-0.42,-0.66,-5.27,152.344,16.113,968.750,-22.95,-9.15,-31.65,18.73
1717,0.31,-2.21,-2.30,356.445,-63.965,1011.230,-25.05,-10.95,-31.05,18.68
1727,-2.89,1.45,-6.02,159.668,121.094,832.520,-21.00,-12.30,-28.20,18.83
1737,-1.40,-2.32,-2.47,282.227,20.020,1036.621,-18.45,-12.30,-26.40,19.07
1747,3.02,-1.76,-2.72,130.371,-14.160,946.777,-18.60,-9.75,-28.35,18.83
1757,-0.34,-1.07,-3.36,206.543,-39.063,1066.895,-18.60,-9.75,-28.35,18.88
1767,-0.74,3.04,-6.47,297.363,4.395,1130.371,-25.35,-9.15,-32.70,18.88
1777,-1.37,2.21,-2.84,-66.406,121.582,993.652,-25.65,-11.10,-31.65,18.92
1789,-0.10,1.53,-1.71,276.855,-81.055,987.305,-23.70,-11.10,-30.15,18.83
1799,-0.07,2.79,-3.41,364.258,-77.637,961.914,-19.35,-11.70,-26.10,18.88
1809,2.56,-1.50,-6.67,-53.711,169.922,983.887,-19.35,-11.70,-26.10,18.83
1819,-0.38,0.05,-8.25,178.223,-124.512,1359.375,-21.45,-10.35,-30.90,18.92
1829,-1.04,2.26,-5.88,408.691,88.867,949.707,-24.00,-9.30,-33.00,19.02
1839,-1.96,0.68,-3.40,-65.430,128.418,1198.242,-24.00,-9.30,-33.00,19.02
1851,3.04,-3.47,0.55,318.359,-136.719,937.988,-21.45,-11.10,-28.20,19.07
1861,0.02,-0.82,-3.99,258.789,-122.070,854.004,-18.60,-10.50,-25.80,19.26
1871,3.86,-0.28,-0.98,-15.625,-137.695,1171.875,-18.60,-9.30,-28.35,19.02
1881,-2.52,1.10,-7.89,504.883,50.781,712.402,-21.45,-8.70,-31.95,18.92
1891,-1.27,-0.03,-5.30,246.094,49.805,924.805,-21.45,-8.70,-31.95,18.68
1901,1.69,-1.00,-3.05,220.703,86.914,940.430,-24.30,-11.70,-31.05,19.07
1911,2.11,2.56,-5.30,449.219,-117.676,959.473,-19.35,-13.20,-25.80,18.83
1923,2.28,1.52,-3.43,-90.820,-31.250,1177.734,-16.65,-8.85,-27.60,18.92
1945,0.96,1.10,-4.35,204.102,-28.320,954.590,-18.45,-7.95,-30.45,18.88
1954,-2.04,0.27,-3.61,63.477,102.051,1096.191,-19.50,-11.85,-27.90,19.07
1964,-1.02,-2.47,-5.32,337.402,21.484,1160.645,-19.50,-11.85,-27.90,19.07
1974,-3.15,0.85,-5.20,135.254,74.707,930.176,-18.15,-9.30,-26.85,19.07
1984,0.40,-0.77,-5.49,244.629,2.441,741.211,-23.55,-9.75,-33.00,18.83
1994,0.48,-1.93,-6.60,0.488,28.809,996.582,-23.55,-9.75,-33.00,19.02
2006,-0.03,-0.24,-8.21,171.875,159.668,1163.086,-19.50,-12.30,-28.20,18.83
2016,4.20,-1.03,-8.75,338.867,-156.738,1077.148,-19.50,-12.30,-28.20,19.07
2026,-2.83,-5.05,-7.85,-41.016,268.066,1187.988,-19.65,-8.85,-31.50,19.12
2036,0.29,1.69,-7.64,441.895,-148.437,838.379,-22.80,-9.75,-33.30,18.88
2046,-1.36,-0.73,-7.18,165.039,-76.660,863.281,-22.95,-11.10,-31.20,19.02
2056,0.59,-0.10,-6.46,93.750,-74.219,1115.234,-17.85,-11.25,-27.30,19.02
2066,2.54,-0.85,-7.15,120.605,61.523,985.840,-17.85,-11.25,-27.30,18.83
2078,1.88,-1.19,-8.83,197.754,-214.844,659.180,-21.30,-8.85,-32.55,18.54
2088,0.83,-1.53,-9.59,163.574,-269.043,1259.766,-24.30,-10.50,-33.00,18.83
2098,1.09,-5.62,-6.73,264.648,-51.758,1212.402,-21.00,-11.55,-27.90,18.88
2108,-4.45,-3.53,-9.05,270.996,-154.297,979.004,-15.90,-8.85,-26.55,19.26
2118,-4.46,-3.26,-8.78,-16.602,-14.160,1462.891,-15.90,-8.85,-26.55,19.12
2128,-1.47,-6.47,-9.85,177.246,95.703,759.277,-23.55,-9.30,-32.25,19.02
2138,-0.58,-0.03,-8.73,208.008,167.969,1031.738,-21.90,-9.45,-28.95,19.07
2150,6.48,-2.95,-8.06,356.445,165.039,798.340,-21.90,-9.45,-28.95,18.92
2160,7.24,-2.45,-6.60,234.863,271.973,1153.320,-17.40,-7.35,-27.30,19.07
2170,7.61,-3.60,-11.05,299.805,-175.781,974.609,-21.45,-9.45,-30.90,18.73
2180,6.17,-1.21,-5.16,172.363,-67.871,553.223,-22.05,-11.70,-29.85,19.07
2190,4.88,-3.11,-8.16,360.352,-152.832,887.207,-18.60,-13.65,-25.05,19.07
2200,-1.97,2.78,-4.63,116.211,-262.695,787.598,-18.60,-13.65,-25.05,19.12
2212,-12.09,-0.79,-1.43,326.660,55.176,1002.441,-22.20,-9.45,-30.15,19.21
2222,-11.34,3.10,-7.06,94.727,38.086,805.176,-22.35,-12.45,-29.10,19.07
2232,-8.01,8.56,-9.34,401.367,-247.070,1342.773,-18.45,-12.30,-23.70,19.02
2242,-2.92,-2.66,-5.66,62.500,70.801,1363.281,-17.55,-10.65,-26.40,19.07
2252,0.98,1.39,-5.93,69.824,-184.570,1254.395,-17.55,-10.65,-26.40,18.88
2262,0.84,5.48,-11.95,13.672,-0.488,1107.910,-23.40,-12.30,-30.15,19.21
2272,-3.09,4.21,-12.98,211.914,-213.379,725.098,-18.00,-12.30,-24.90,19.07
2284,-2.75,-1.84,-15.68,166.992,-265.625,1622.559,-16.80,-11.55,-25.65,18.92
2294,-10.68,1.07,-17.40,65.918,-103.516,1236.328,-22.80,-8.85,-29.10,19.21
2304,-0.96,-1.73,-19.05,389.648,-118.164,1561.523,-22.80,-8.85,-29.10,19.12
2314,-4.94,-2.68,-19.67,148.437,-153.809,520.508,-18.60,-12.90,-23.85,18.88
2324,-3.56,-6.66,-22.86,376.465,-362.305,1454.590,-18.90,-7.65,-26.55,18.88
2334,0.61,-5.62,-17.17,301.758,-142.578,640.625,-18.90,-7.65,-26.55,18.83
2344,-2.21,-8.69,-21.83,233.887,-197.266,1995.117,-23.25,-12.90,-26.85,18.83
2356,-2.05,-8.09,-17.23,-4.883,-110.352,947.266,-21.45,-9.45,-28.95,19.36
2366,-2.92,-4.99,-17.18,102.539,-159.180,1721.680,-24.90,-11.85,-30.45,19.07
2376,1.57,1.46,-17.37,467.285,-196.777,1090.332,-24.90,-11.85,-30.45,19.07
2386,0.57,-4.31,-16.08,411.133,-358.398,621.094,-18.75,-10.65,-26.40,19.07
2396,-0.71,-0.82,-15.90,255.859,-0.977,1334.961,-24.60,-12.30,-31.20,19.07
2406,0.49,1.83,-14.49,424.316,-103.516,659.668,-22.65,-12.30,-29.70,18.83
2416,-0.76,1.30,-17.30,323.730,-229.492,1026.855,-17.25,-10.35,-25.65,18.73
2428,-0.69,1.29,-16.18,-116.211,-54.199,1233.398,-17.25,-10.35,-25.65,18.68
2438,1.23,1.24,-11.57,103.027,85.938,1476.563,-24.15,-11.55,-31.20,18.83
2447,-2.95,7.65,-16.95,372.559,11.719,583.496,-18.75,-13.05,-25.95,19.07
2463,5.96,-2.52,-13.08,300.781,-330.078,490.234,-17.85,-9.75,-28.05,19.12
2472,1.29,-6.77,-28.88,-44.434,-98.145,1508.301,-22.95,-9.45,-29.70,19.07
2482,3.45,3.94,-13.87,-216.309,296.875,1330.078,-21.45,-11.55,-27.45,19.02
2492,4.93,3.41,-11.79,314.941,-217.285,564.453,-18.45,-8.70,-26.70,19.12
2504,-3.34,3.80,-16.44,212.402,-182.129,1201.172,-23.25,-8.10,-30.30,18.92
2514,-3.56,4.69,-22.51,175.293,-57.129,720.215,-23.25,-8.10,-30.30,19.02
2524,-0.52,-5.31,-22.37,-40.039,-279.297,473.145,-17.10,-10.05,-26.55,19.26
2534,3.86,-3.93,-19.73,396.484,-455.566,541.992,-21.30,-9.75,-29.10,19.12
2544,-4.98,-4.05,-20.68,-148.926,-110.352,1348.145,-22.05,-10.50,-31.05,19.02
2554,5.63,-6.34,-20.66,466.309,-84.961,1433.594,-16.20,-10.05,-25.80,19.07
2564,2.98,-1.56,-21.30,-40.039,63.477,1703.125,-16.20,-10.05,-25.80,18.92
2576,5.05,0.95,-21.08,309.082,-375.488,938.477,-18.00,-11.85,-26.40,19.21
2586,2.44,1.40,-22.71,232.910,-506.836,1999.939,-17.85,-6.90,-26.40,19.07
2596,-3.73,3.65,-21.50,544.434,-578.613,1552.246,-23.25,-9.30,-30.75,19.26
2606,-6.82,1.86,-22.00,180.176,-385.742,592.773,-23.25,-9.30,-30.75,19.12
2616,-11.67,-2.73,-18.31,434.082,-395.020,340.332,-17.40,-5.70,-27.30,19.12
2626,-9.33,-4.86,-24.99,29.297,-272.949,1386.719,-22.80,-8.55,-30.30,19.02
2638,-4.21,-11.67,-22.19,798.340,-486.816,562.988,-22.80,-8.55,-30.30,19.21
2648,3.10,-13.54,-22.06,414.062,40.527,1529.785,-19.35,-6.45,-28.80,19.12
2658,7.76,-13.63,-23.70,-171.875,-370.117,1000.488,-20.55,-8.10,-28.35,19.07
2668,-0.76,-8.10,-28.07,130.371,-240.723,333.008,-17.10,-8.10,-26.85,19.07
2678,3.29,-9.11,-23.86,165.039,120.605,1143.066,-20.85,-5.25,-29.85,19.12
2688,-1.62,-2.51,-24.98,-231.934,3.906,1008.301,-20.85,-5.25,-29.85,19.40
2698,3.47,4.60,-18.59,141.602,-43.945,489.258,-17.25,-5.55,-27.45,19.26
2710,-4.71,8.28,-18.12,10.254,-185.547,1322.754,-19.95,-5.55,-30.15,19.26
2720,-7.15,7.13,-20.47,77.148,-361.328,1607.422,-21.00,-7.05,-28.65,19.12
2730,-4.89,11.97,-17.87,230.957,-232.910,1148.438,-15.90,-6.15,-26.10,19.26
2740,-2.37,8.25,-19.81,316.895,-278.809,1680.176,-15.90,-6.15,-26.10,19.02
2750,-5.06,9.27,-20.81,-153.809,164.062,1583.008,-19.50,-7.05,-27.45,18.92
2760,1.77,8.14,-23.37,616.699,-288.574,470.703,-17.85,-6.45,-27.30,19.26
2770,1.16,0.85,-22.23,143.066,-45.410,958.496,-20.25,-6.75,-31.65,19.07
2784,-3.62,-1.73,-25.32,23.437,-62.500,975.098,-18.60,-7.35,-28.05,19.07
2794,4.43,-5.18,-26.44,255.371,-285.156,792.480,-18.60,-7.35,-28.05,18.92
2804,1.95,-7.12,-26.29,395.020,-348.633,1219.727,-20.70,-7.50,-29.70,19.12
2814,-3.68,-8.57,-26.51,-1.465,47.852,1306.641,-16.80,-7.05,-26.40,19.07
2824,4.02,-5.74,-29.99,-37.598,95.215,1015.625,-16.80,-7.05,-26.40,19.21
2834,12.95,-6.25,-28.89,201.172,-230.469,778.809,-18.90,-8.10,-29.85,19.02
2844,5.63,0.13,-25.32,321.777,-391.602,1014.160,-17.10,-7.35,-26.55,19.26
2856,4.95,1.52,-27.82,-20.508,-260.254,1030.273,-19.50,-5.85,-31.95,19.12
2866,1.08,1.39,-24.54,177.734,-441.895,755.371,-18.75,-8.70,-26.70,19.07
2876,-5.73,1.85,-27.37,-158.691,-61.035,1052.246,-18.75,-8.70,-26.70,18.92
2886,-7.50,-2.86,-29.59,-114.258,368.164,1007.324,-19.95,-7.50,-30.90,19.26
2896,0.76,-5.09,-28.12,-33.691,111.328,1354.004,-16.20,-7.65,-27.30,19.07
2906,1.16,-3.27,-27.52,222.656,97.656,1007.812,-18.45,-4.65,-29.40,19.07
2916,0.98,-6.68,-24.13,272.461,-50.781,1169.922,-18.60,-7.65,-30.75,19.12
2928,-3.69,-3.69,-28.91,273.926,-218.750,805.176,-18.90,-5.70,-32.55,19.07
2938,-6.63,-1.78,-30.21,151.367,20.508,765.625,-18.00,-7.95,-29.70,19.21
2948,-10.01,-3.83,-28.73,214.355,-223.633,747.070,-16.65,-5.25,-29.10,19.40
2958,-4.07,-8.14,-25.08,-331.055,-99.609,1374.512,-18.15,-6.45,-30.75,19.07
2968,4.90,-3.40,-18.94,312.500,-356.445,892.090,-18.15,-6.45,-30.75,19.21
2984,11.86,4.69,-26.96,135.254,-801.758,1376.465,-17.55,-5.10,-30.90,19.07
2994,0.82,11.67,-22.10,71.777,-422.363,477.051,-17.10,-8.10,-29.10,19.26
3004,-3.07,9.00,-31.05,148.437,-315.918,906.738,-17.10,-8.10,-29.10,19.12
3014,-12.95,5.77,-27.91,66.406,-668.457,691.895,-18.15,-6.45,-30.30,19.26
3024,-15.37,2.13,-27.73,275.879,-445.801,298.340,-13.95,-7.65,-26.10,18.92
3034,-17.69,1.40,-35.20,-44.922,-2.441,1234.863,-16.20,-4.50,-29.55,18.92
3044,-15.02,-0.11,-34.94,241.699,-417.969,1125.000,-16.80,-6.75,-27.90,19.21
3056,11.24,-1.09,-33.68,152.344,-252.441,990.234,-16.80,-6.75,-27.90,19.07
3066,12.94,-1.50,-36.21,59.082,-304.199,991.211,-19.50,-5.10,-30.45,19.12
3076,14.15,0.31,-34.53,260.742,-393.555,1067.871,-14.85,-6.75,-26.70,19.12
3086,10.40,-2.30,-34.41,166.992,-448.242,1113.770,-17.55,-5.10,-29.70,19.36
3096,3.49,0.00,-32.33,0.977,-194.336,1383.301,-15.75,-6.30,-27.45,19.12
3106,4.88,3.59,-37.59,-0.977,-351.562,1000.000,-15.75,-6.30,-27.45,18.83
3116,-5.29,0.83,-38.09,-183.594,41.504,1638.672,-19.20,-6.75,-30.90,19.26
3128,3.53,1.97,-38.75,-138.672,-150.879,1065.430,-17.85,-4.05,-30.75,18.88
3138,11.44,-2.27,-32.80,425.781,-511.719,669.922,-15.45,-8.10,-28.35,19.07
3148,1.87,2.03,-35.57,-235.352,61.035,1241.211,-14.70,-2.85,-30.30,19.12
3158,5.63,0.60,-34.41,-61.035,13.184,1098.633,-18.00,-4.65,-30.15,19.26
3168,-3.31,0.08,-34.57,-105.469,111.328,1444.336,-11.40,-3.15,-27.90,19.07
3178,5.36,6.20,-34.18,485.352,-229.492,241.211,-11.40,-3.15,-27.90,19.36
3188,0.48,-0.68,-30.68,-267.578,73.730,1999.939,-12.60,-4.65,-28.20,18.83
3200,2.01,1.82,-32.78,-297.852,-204.102,1872.559,-15.75,-1.95,-30.45,19.21
3210,5.95,-0.16,-33.60,538.574,-861.328,38.574,-13.50,-5.70,-29.10,18.92
3220,-11.53,-3.47,-34.76,-16.113,-253.418,480.957,-13.50,-2.55,-28.05,19.07
3230,-6.02,-8.79,-32.44,438.965,-537.109,322.266,-13.50,-2.55,-28.05,19.12
3240,-14.26,-9.30,-36.44,215.332,21.973,411.133,-12.00,-4.05,-26.55,19.12
3250,-5.66,-7.57,-34.64,-31.738,333.984,1531.250,-14.85,-4.65,-29.70,19.21
3260,-3.21,-4.96,-33.55,267.090,-224.609,1066.406,-12.60,-5.55,-25.95,19.07
3272,2.23,5.82,-32.68,-104.004,-379.395,619.141,-16.65,-2.85,-29.10,19.36
3282,10.78,-1.56,-35.18,178.223,-312.988,632.324,-16.65,-2.85,-29.10,19.12
3292,12.50,-1.94,-36.21,521.973,-354.980,863.281,-14.85,-3.15,-29.70,19.07
3302,-2.21,5.39,-36.83,-70.313,-275.879,1031.250,-13.95,-7.35,-27.60,19.12
3312,5.56,-3.53,-32.94,81.543,-211.426,905.762,-13.95,-7.35,-27.60,19.36
3322,2.02,-2.83,-32.29,427.246,-519.531,1481.934,-14.55,-5.85,-28.20,19.26
3334,-5.76,-4.36,-40.63,105.469,144.531,1028.320,-12.60,-2.25,-27.45,19.12
3344,-3.72,-0.35,-40.17,279.785,-133.789,922.363,-14.85,-3.90,-30.45,19.36
3354,4.12,-3.05,-28.66,324.707,-155.273,1000.000,-12.30,-4.35,-27.45,19.21
3364,-3.49,-0.51,-40.10,-198.730,73.730,1378.418,-12.30,-4.35,-27.45,19.12
3374,-1.17,-1.89,-36.73,452.148,-663.574,1150.879,-11.85,-5.55,-27.15,19.02
3384,2.55,-1.60,-35.65,319.824,-451.660,1023.926,-13.05,-3.45,-29.70,19.21
3394,2.10,1.16,-42.53,58.105,-430.176,1168.457,-13.05,-5.10,-28.20,19.07
3406,-0.73,-4.15,-35.43,262.207,-455.566,1667.480,-13.50,-1.35,-28.35,19.02
3416,-7.47,1.63,-32.05,-228.516,164.551,1597.168,-13.50,-1.35,-28.35,19.07
3426,-7.01,6.96,-35.74,209.473,-138.672,306.641,-11.40,-2.70,-27.90,19.12
3436,1.05,-0.89,-34.82,621.582,-470.703,265.137,-12.75,-5.25,-28.05,19.21
3446,2.30,-2.21,-37.60,260.742,-540.527,1284.668,-10.65,-3.15,-28.20,19.21
3456,6.15,-6.06,-36.43,-125.488,-206.543,1999.939,-13.20,-5.25,-29.10,18.83
3466,-2.25,0.15,-36.27,-70.313,-203.613,1009.766,-13.20,-5.25,-29.10,19.36
3478,9.51,-5.71,-37.33,467.773,-524.414,910.156,-11.40,-1.50,-26.40,18.92
3488,12.08,-9.18,-35.38,652.344,-574.219,730.957,-11.40,-1.50,-26.40,19.07
3503,-1.69,-9.18,-38.27,220.703,-216.309,1999.939,-11.10,-2.70,-25.95,19.21
3512,-11.60,3.20,-37.11,-260.742,-3.418,794.434,-12.75,-2.10,-31.05,19.36
3522,-10.70,2.55,-33.08,322.754,-587.891,31.738,-10.65,-3.45,-28.20,18.88
3532,-17.88,0.17,-29.76,-46.875,-636.719,450.684,-12.00,-2.55,-30.30,18.88
3542,-0.61,-2.04,-35.84,-280.273,-43.945,1995.605,-12.00,-2.55,-30.30,19.02
3552,-4.01,4.82,-39.92,-763.672,-12.695,1853.027,-12.75,-2.10,-31.50,19.12
3564,10.39,-1.21,-35.64,613.281,-843.750,1836.426,-11.25,-2.85,-28.35,19.36
3574,5.64,1.85,-32.07,-270.020,-738.770,1999.939,-12.30,-1.05,-30.90,19.36
3584,6.07,4.22,-40.78,203.125,-520.020,1467.773,-8.55,-2.55,-28.80,19.12
3594,-4.89,3.92,-42.04,300.293,-682.129,905.273,-8.55,-2.55,-28.80,19.36
3604,-13.06,2.44,-73.79,-33.691,-572.266,1514.648,-7.95,-2.70,-29.70,18.88
3614,-12.02,0.24,-38.44,144.531,-167.969,327.148,-9.90,0.00,-31.95,19.40
3626,7.62,0.56,-35.08,92.773,-125.977,661.621,-9.30,-1.65,-30.30,19.02
3636,17.53,0.55,-41.27,296.387,-105.469,652.832,-9.75,-0.15,-30.75,18.88
3646,18.55,-5.76,-39.44,188.477,-791.992,992.676,-9.75,-0.15,-30.75,19.07
3656,10.36,-0.06,-42.33,-280.273,-552.246,952.148,-10.50,-0.15,-31.50,19.36
3666,1.92,-4.19,-43.26,-224.121,-403.320,1336.426,-7.95,-2.25,-28.20,19.40
3676,0.27,0.85,-42.59,-235.352,-126.953,1509.277,-7.95,-2.25,-28.20,19.21
3686,5.69,2.81,-14.69,114.258,-275.391,1186.523,-8.25,-2.55,-30.30,18.88
3697,-10.93,-5.03,-52.38,61.035,-318.359,881.836,-10.35,-0.75,-31.20,18.83
3707,-8.69,-2.28,-52.89,-173.340,-298.340,976.074,-7.35,-1.65,-29.85,19.02
3717,1.46,0.39,-41.29,-20.996,-415.039,1419.922,-9.75,-0.45,-31.50,19.07
3727,-2.73,4.65,-36.77,-62.012,-178.223,601.562,-9.75,-0.45,-31.50,19.02
3737,-2.39,0.20,-44.81,-61.523,-211.914,510.742,-7.95,-0.30,-30.45,19.26
3747,0.79,-1.63,-38.11,331.543,-455.566,691.406,-6.90,-2.25,-28.65,19.07
3757,-4.53,-6.06,-50.95,-212.891,-1008.301,1325.684,-6.45,0.00,-31.20,19.26
3769,11.52,-8.33,-14.55,-564.941,297.852,1205.566,-5.55,1.35,-32.55,18.92
3779,1.86,-6.33,-26.27,-502.441,-181.641,1999.939,-7.35,1.35,-32.55,18.92
3789,-2.09,-0.70,-44.54,-34.180,-102.539,681.641,-5.85,0.15,-32.55,19.12
3799,-2.47,1.55,-31.61,-200.684,-23.926,1725.098,-5.85,0.15,-32.55,19.26
3809,4.83,-5.15,-49.48,65.430,-565.918,982.422,-6.30,0.45,-31.20,19.02
3819,-0.87,2.79,-42.81,-1.953,-258.789,1428.223,-6.90,1.50,-32.40,19.36
3829,2.06,-0.99,-43.44,95.703,-588.379,566.406,-6.90,1.50,-32.40,19.40
3841,2.18,1.77,-44.43,5.371,-673.828,753.418,-5.55,0.90,-31.80,19.02
3851,5.47,0.40,-32.93,-283.691,-79.102,1087.891,-5.55,0.90,-31.80,19.12
3861,6.01,2.76,-49.66,-318.359,-318.848,1431.641,-5.55,-0.15,-32.25,19.02
3871,4.69,8.13,-38.83,-45.410,-505.859,1073.730,-6.15,0.75,-32.70,19.07
3881,-3.11,0.04,-43.92,-356.934,-262.695,1707.520,-6.15,2.25,-33.15,19.26
3891,1.39,6.58,-42.62,-236.816,-264.160,732.910,-5.85,2.55,-33.75,19.26
3901,2.20,5.82,-39.09,-35.645,-93.262,1075.684,-5.85,2.55,-33.75,19.36
3913,0.44,2.24,-38.32,-172.852,-617.187,1174.316,-3.90,2.10,-35.25,19.45
3923,11.69,-1.82,-40.18,96.191,-615.234,866.211,-3.90,0.90,-34.05,19.45
3933,4.08,-7.06,-37.38,-252.930,-392.090,1458.496,-3.15,0.45,-33.75,19.26
3943,-1.23,-3.21,-42.35,-257.812,63.477,1163.086,-3.15,0.90,-34.50,19.07
3953,4.41,-2.89,-38.87,-51.758,-165.527,1225.586,-3.15,0.90,-34.50,19.26
3963,0.47,-4.79,-35.33,-43.945,-683.105,335.937,-3.45,0.75,-33.90,19.40
3973,-1.45,-8.95,-36.25,-115.723,20.996,950.684,-3.75,0.75,-33.15,19.36
3985,11.41,-5.24,-35.25,-365.723,-174.316,903.320,-3.75,0.75,-33.15,19.26
3995,8.63,-8.05,-37.66,-325.195,-110.352,1152.344,-3.00,1.50,-33.90,19.21
4005,4.14,-3.37,-33.24,-125.488,-416.504,1455.078,-2.85,1.65,-33.75,19.12
4020,-0.35,-2.90,-29.85,232.422,-680.664,757.812,-3.45,2.25,-33.45,19.26
4029,-7.27,-8.55,-34.42,50.293,-760.742,1318.359,-2.85,3.30,-33.75,19.26
4039,-12.21,-10.82,-31.71,-177.734,-330.566,1747.559,-2.85,3.30,-33.75,19.26
4049,-9.18,-2.88,-32.23,-436.035,-5.371,1093.750,-3.15,1.65,-35.25,19.12
4061,-2.79,-6.20,-33.56,-306.152,-230.957,1301.270,-1.65,1.65,-35.25,19.40
4071,2.87,-1.25,-42.64,-58.594,-191.406,1498.535,-1.20,2.85,-34.50,19.36
4081,3.76,-2.30,-35.31,-366.699,-177.734,1358.887,-1.20,2.85,-34.50,19.12
4091,3.89,0.53,-35.79,-367.187,-496.094,828.125,-0.15,1.65,-34.50,19.21
4101,12.12,-2.20,-34.96,-19.531,-604.004,652.832,0.90,3.30,-33.00,19.21
4111,12.14,-3.98,-36.89,-65.918,-596.191,980.469,0.45,0.90,-33.30,19.36
4121,6.63,-0.51,-35.82,-384.277,-430.664,1546.387,0.00,1.05,-32.70,19.07
4133,8.52,-6.36,-34.75,51.758,-656.738,946.777,0.00,1.05,-32.70,19.07
4143,1.02,-3.68,-38.53,-157.715,-250.000,1441.406,-0.15,0.45,-32.25,19.26
4153,1.95,-1.85,-36.27,-68.848,-570.312,1147.461,0.15,-0.15,-31.50,19.36
4163,-4.94,-2.54,-41.40,95.215,-432.617,673.828,0.15,-0.15,-31.50,19.21
4173,-10.49,-2.34,-33.18,309.570,-90.820,844.238,-0.15,0.90,-31.50,19.12
4183,-6.30,-4.24,-30.38,-63.965,-259.766,1265.625,-0.45,1.35,-31.80,19.21
4193,-5.98,1.21,-35.14,-705.566,215.332,949.219,0.75,1.50,-31.95,19.36
4205,1.67,7.35,-37.31,-313.965,-18.066,1055.176,0.30,1.95,-31.95,19.07
4215,5.46,9.27,-35.25,-263.184,-249.023,990.234,0.30,1.95,-31.95,19.36
4225,15.58,6.60,-41.51,148.437,-369.141,1178.711,1.05,1.95,-31.95,19.12
4235,12.89,5.88,-36.24,472.168,-1199.219,415.039,0.00,0.00,-30.45,19.26
4244,6.18,4.63,-34.01,59.082,-756.836,79.102,0.30,0.00,-32.40,19.07
4254,-18.76,1.45,-26.93,-11.719,-587.891,1449.707,0.90,-0.15,-31.80,19.12
4264,-13.67,1.71,-34.93,-40.039,-269.043,1107.422,0.90,-0.15,-31.80,19.12
4276,-17.06,-0.24,-38.95,72.266,-295.898,1647.949,0.45,0.90,-31.50,19.12
4286,-26.69,3.15,-36.38,-207.520,237.793,895.508,1.05,0.75,-31.95,19.12
4296,-11.68,-3.32,-40.69,-46.875,-65.918,774.902,1.50,0.30,-30.90,19.26
4306,-2.91,-6.63,-37.53,85.938,-136.719,1159.180,1.20,0.90,-31.80,19.21
4316,-7.32,-0.38,-39.24,-99.609,525.879,1209.473,0.90,0.15,-32.25,19.07
4326,-4.98,1.49,-36.28,-254.395,448.242,875.977,2.10,0.90,-31.80,19.26
4335,9.71,2.60,-32.14,451.660,-689.941,343.750,2.10,0.15,-33.30,19.40
4346,-10.91,11.66,-35.05,156.250,-231.934,534.180,2.10,0.15,-33.30,19.12
4356,-8.82,0.52,-31.95,283.691,-312.012,669.434,2.55,0.30,-31.95,19.26
4366,-11.84,-9.95,-37.82,311.523,-445.312,1999.939,4.20,1.50,-30.90,19.26
4376,-13.51,-3.86,-33.20,164.062,-134.277,1999.939,2.25,0.30,-31.65,19.36
4386,-2.83,-4.92,-27.21,148.926,-191.895,500.000,3.15,0.45,-30.30,19.02
4396,8.86,-19.28,-37.76,75.684,-416.504,765.137,3.15,0.45,-30.30,19.45
4405,6.92,-12.66,-35.65,-159.180,-353.516,1458.496,3.60,0.90,-31.50,19.36
4417,7.15,-15.11,-48.50,-307.617,-287.109,699.707,2.85,0.15,-31.80,19.26
4427,1.21,-12.51,-37.32,7.324,-88.379,1123.047,2.85,1.35,-30.75,19.36
4437,0.98,-16.28,-36.40,-79.590,155.762,899.902,3.15,0.15,-31.50,19.40
4447,-6.26,-16.64,-33.92,41.016,-250.977,1349.121,3.15,0.15,-31.50,19.40
4457,-7.69,-16.33,-38.02,37.598,-84.473,341.797,2.85,0.15,-30.30,19.07
4467,-4.24,-21.24,-40.34,75.195,-556.641,770.508,3.15,0.45,-32.55,19.12
4477,-1.08,-29.15,-36.90,115.723,-131.836,985.352,3.15,0.45,-32.55,19.26
4489,8.78,-31.30,-32.58,18.555,1.465,660.645,2.55,-0.30,-32.40,19.07
4499,-3.14,-21.60,-32.90,227.051,156.250,456.055,2.55,-2.25,-30.15,19.26
4509,4.61,-19.51,-38.09,-219.238,14.648,1245.605,2.55,0.30,-32.40,19.60
4519,-11.40,-19.52,-38.63,-84.473,-49.805,1173.828,3.15,-0.90,-31.50,19.40
4534,-0.83,-11.40,-35.00,-56.641,-197.266,1534.668,2.55,-1.05,-31.95,19.12
4543,3.12,-4.11,-29.47,-326.660,-385.254,1938.477,1.80,0.30,-31.20,19.40
4555,2.33,-7.23,-32.80,418.945,-994.141,1372.559,3.15,-1.35,-31.50,19.40
4565,-16.59,-2.97,-31.83,61.523,-633.301,349.121,2.25,0.30,-33.15,19.45
4575,-18.85,-3.76,-37.44,-18.555,-340.820,984.375,2.25,0.30,-33.15,19.07
4585,-29.40,-5.78,-34.13,-76.660,-496.582,1144.531,3.45,0.30,-33.45,19.40
4595,-31.59,-8.77,-36.35,-279.297,-56.152,788.574,1.80,-1.05,-31.95,19.36
4605,-7.08,-0.22,-24.04,-481.445,177.246,647.461,2.40,-0.45,-32.55,19.21
4615,19.94,2.18,-37.21,-396.973,-283.691,1593.262,3.15,-1.35,-32.55,19.21
4627,4.92,12.47,-44.52,-240.723,-1205.566,1854.004,3.15,-1.35,-32.55,19.12
4637,-12.27,21.15,-43.69,-850.098,-508.789,1472.168,3.45,-1.50,-32.40,19.12
4647,-1.50,18.32,-32.60,45.898,-170.898,1166.504,3.15,1.35,-33.00,19.21
4657,-6.46,18.93,-33.62,343.262,-615.234,914.062,3.15,1.35,-33.00,19.21
4666,-4.73,41.60,-37.60,358.887,-92.773,752.441,5.25,0.75,-31.95,19.40
4676,-19.63,5.18,-38.40,193.848,-548.340,373.535,3.75,-0.30,-33.90,19.07
4686,-12.58,2.14,-80.77,-58.105,-59.570,1761.719,5.85,0.15,-33.75,19.21
4698,16.05,4.18,-38.73,13.184,166.016,1088.379,4.50,-1.50,-33.45,19.07
4707,25.31,0.87,-27.27,428.711,-266.602,856.934,4.50,-1.50,-33.45,19.40
4717,14.09,-4.40,-32.37,414.551,-509.766,1805.664,4.95,0.00,-31.95,19.21
4726,8.98,-3.02,-39.66,51.758,-154.297,664.062,5.85,0.90,-32.55,19.07
4736,12.18,0.86,-42.02,-75.684,-687.500,329.102,6.30,-0.90,-31.05,19.07
4746,4.49,-12.07,-38.03,-47.852,100.098,559.082,5.85,-0.15,-33.75,19.21
4756,4.42,1.87,-30.56,-128.906,154.297,941.895,5.85,-0.15,-33.75,19.26
4768,-11.11,-0.40,-34.78,-358.398,-474.609,639.648,6.45,0.30,-32.70,19.36
4778,-17.95,4.50,-40.76,-157.227,71.777,672.852,4.95,-0.75,-33.15,19.36
4788,-1.05,-0.08,-29.08,122.070,-210.449,850.586,5.85,0.45,-33.30,19.26
4798,0.13,3.95,-30.90,-202.148,-362.305,1628.906,6.15,-2.25,-32.40,19.40
4808,-4.66,8.40,-35.35,-134.277,-260.254,382.324,6.15,-2.25,-32.40,19.40
4818,-4.58,6.83,-26.74,-345.215,-370.605,1170.410,6.60,-1.35,-33.75,19.12
4828,-1.94,6.47,-32.22,-103.027,-256.836,357.910,7.35,0.45,-32.55,19.40
4839,-2.27,2.78,-30.47,-74.707,-408.691,761.230,7.35,0.45,-32.55,19.21
4849,6.21,-1.43,-32.85,53.223,-571.289,857.910,8.70,1.05,-33.90,19.26
4859,-5.50,1.79,-31.96,133.789,-572.266,1355.469,6.90,-0.30,-34.65,19.45
4869,-10.05,-3.56,-37.38,263.672,-498.047,995.605,8.25,1.35,-31.80,19.21
4879,-5.08,-3.15,-39.71,51.270,-581.543,960.937,6.90,-1.95,-33.15,19.26
4889,-3.73,-1.50,-35.42,-39.063,-333.008,1237.793,6.90,-1.95,-33.15,18.92
4899,6.86,1.88,-30.69,112.305,-564.453,1312.012,6.90,-1.50,-33.45,19.55
4910,4.66,0.82,-33.84,117.676,-473.145,1057.617,7.80,-0.90,-33.75,19.40
4920,5.15,4.18,-35.27,322.266,-359.863,967.773,7.20,-0.30,-34.65,19.45
4930,9.31,0.92,-34.01,59.570,-772.461,829.102,9.30,-0.15,-33.75,19.36
4939,-4.44,-0.85,-31.98,-20.508,-572.754,1524.414,9.30,-0.15,-33.75,19.21
4949,2.37,-5.98,-32.99,183.594,-374.512,1599.121,8.25,0.90,-33.30,19.02
4959,-3.02,3.22,-33.71,113.281,-583.008,1782.227,8.25,-2.85,-35.25,19.21
4969,-5.11,2.34,-35.09,117.676,-269.531,1349.609,8.70,-0.75,-33.45,19.40
4981,5.92,-3.05,-33.60,-207.520,-313.965,1678.711,9.75,-2.10,-34.05,19.36
4991,1.35,4.73,-29.34,-268.555,174.316,789.551,9.75,-2.10,-34.05,19.26
5001,-4.23,7.11,-33.24,12.695,-91.309,1081.543,8.55,-1.65,-34.50,19.07
5011,-2.31,-1.05,-32.57,-107.910,-410.156,1358.398,10.05,0.15,-34.50,19.36
5021,-14.18,0.11,-28.29,-658.691,41.016,1151.367,10.05,0.15,-34.50,19.07
5031,-7.33,-0.50,-35.16,-298.340,462.891,1053.223,10.05,-0.15,-33.30,18.92
5047,9.28,3.09,-35.14,129.883,-244.141,626.953,10.35,-0.75,-33.45,19.07
5057,3.82,2.99,-35.53,-594.727,-257.324,1175.293,10.05,-1.35,-33.75,19.07
5067,1.14,-1.47,-35.24,-217.285,-139.648,1497.559,10.05,-1.35,-33.75,19.40
5077,-10.47,2.10,-37.98,-334.961,280.762,1036.621,10.65,-3.15,-33.15,19.07
5087,3.18,0.09,-34.56,-66.406,-125.000,1041.992,10.50,0.45,-35.25,19.21
5096,2.89,-1.10,-29.65,123.047,-386.719,960.449,10.05,-1.65,-32.25,19.45
5106,-9.94,2.21,-34.29,-14.648,-50.293,584.473,10.35,-0.75,-34.65,19.45
5118,-4.93,-0.30,-31.28,165.039,-440.918,865.723,10.35,-0.75,-34.65,19.21
5128,-3.85,-6.33,-38.06,-182.617,-427.246,1440.430,11.70,-0.90,-35.25,19.21
5138,0.32,1.21,-32.77,-48.828,-293.457,1065.430,11.40,-2.70,-32.40,19.55
5148,1.60,2.02,-26.28,57.617,-437.988,1432.617,12.30,-1.05,-34.65,19.12
5158,0.05,-3.26,-33.65,2.930,-605.469,1321.777,11.85,-2.25,-33.15,19.45
5168,-7.74,-9.63,-37.24,-110.840,-275.879,1026.367,11.85,-2.25,-33.15,19.12
5178,-8.52,-5.66,-33.57,-172.363,-169.922,1033.691,11.85,-2.25,-32.70,19.36
5190,6.53,-4.95,-24.32,-237.305,-551.758,660.156,11.40,-1.95,-35.40,18.92
5200,-2.51,-5.44,-33.03,-487.793,-229.004,915.527,11.40,-1.95,-35.40,19.36
5210,11.27,-4.13,-32.55,405.762,-253.906,666.992,12.00,-2.85,-35.55,19.45
5220,6.69,-6.11,-36.85,395.020,-415.527,1567.871,13.50,-3.30,-33.75,19.40
5230,5.33,-9.43,-35.53,257.324,-300.293,1493.652,11.85,-3.15,-35.40,19.36
5240,5.20,-6.71,-38.91,498.047,-931.152,954.590,13.80,-2.70,-34.20,19.21
5250,4.44,-4.11,-40.43,386.719,-508.789,601.562,13.80,-2.70,-34.20,19.07
5262,1.22,-1.02,-34.47,-157.715,-402.832,1178.223,13.50,-2.10,-33.30,19.07
5272,3.16,1.75,-31.62,87.402,28.320,1491.699,12.00,-3.30,-33.75,19.12
5282,6.98,-0.99,-35.69,-109.863,-708.984,873.535,14.40,-2.85,-34.50,19.36
5292,-4.63,1.31,-30.63,182.129,-372.070,804.687,13.50,-3.75,-34.80,19.40
5302,-1.74,3.47,-28.98,4.883,-743.652,874.023,13.50,-3.75,-34.80,19.36
5312,-8.10,-2.30,-32.77,238.770,-436.035,1081.543,12.75,-4.50,-33.75,19.64
5322,-3.91,-0.71,-29.02,216.797,-595.703,888.184,13.95,-2.85,-33.75,19.40
5334,-4.56,-2.41,-33.57,-202.148,-70.313,868.652,13.95,-2.10,-33.75,19.36
5344,-3.69,-1.37,-37.44,-171.387,197.266,1183.105,13.20,-6.45,-33.00,19.36
5354,5.21,-4.80,-34.68,-61.035,-401.367,1520.996,13.80,-2.70,-34.20,19.12
5364,7.60,3.16,-40.51,-116.699,-352.051,1111.816,13.95,-4.50,-33.30,19.26
5374,0.40,1.43,-42.46,-289.551,6.348,1470.215,13.95,-4.50,-33.30,19.26
5384,2.49,3.50,-28.42,425.293,-392.090,1273.438,15.15,-4.05,-34.05,19.36
5393,-6.11,10.21,-33.95,-398.926,-356.445,1131.348,13.50,-3.75,-35.55,19.21
5405,6.72,7.21,-37.46,92.773,-394.043,665.039,16.50,-3.15,-32.70,19.02
5415,6.01,4.69,-31.90,1.953,-552.734,1122.070,13.95,-4.50,-35.55,19.26
5425,-9.33,7.85,-36.63,-53.223,-297.852,1204.590,13.95,-4.50,-35.55,19.12
5435,0.37,1.69,-32.76,-206.055,-655.273,759.277,14.40,-5.70,-34.50,19.26
5445,7.51,1.45,-36.27,-24.414,-345.215,730.957,16.05,-3.90,-33.45,19.26
5455,11.15,-0.23,-37.04,-23.926,45.410,1113.770,15.30,-5.85,-34.20,19.45
5465,11.19,-3.69,-40.40,198.730,-499.023,1309.082,15.30,-3.15,-34.20,19.36
5477,-6.39,-2.38,-38.18,84.473,-676.270,837.402,15.30,-3.15,-34.20,19.45
5487,-14.99,0.44,-42.50,199.219,-184.082,1395.508,16.65,-2.10,-33.75,19.36
5497,-14.98,6.26,-33.88,-116.211,-44.922,787.598,15.90,-6.45,-34.05,19.12
5507,5.92,2.44,-36.12,-181.641,272.949,1023.437,15.90,-6.45,-34.05,19.12
5516,5.87,4.18,-41.74,404.785,-395.508,-157.227,17.55,-4.65,-34.95,19.12
5526,9.64,-5.05,-39.48,351.074,-376.953,447.754,15.15,-5.70,-35.25,19.45
5536,2.08,-5.79,-31.45,-63.477,-317.871,1693.359,16.65,-3.75,-33.75,19.40
5548,2.66,-1.50,-38.53,-73.242,-260.742,1462.891,15.90,-6.45,-34.80,19.45
5562,6.63,-0.98,-39.60,627.441,-235.352,817.383,15.90,-6.45,-34.80,19.26
5572,2.06,-2.22,-37.07,35.645,-214.355,1207.031,15.75,-7.50,-34.65,19.26
5582,1.36,4.25,-35.40,31.738,-778.809,256.836,16.50,-3.45,-34.65,19.26
5591,-6.89,1.20,-39.50,-16.113,-112.305,648.926,16.80,-5.85,-33.15,19.21
5601,-10.50,7.06,-34.02,243.652,-416.016,598.633,15.90,-5.25,-35.55,19.12
5611,-1.27,5.11,-26.63,473.145,-449.219,1027.832,15.90,-5.25,-35.55,19.07
5623,0.35,0.76,-38.65,160.645,-264.648,1492.676,15.45,-6.90,-35.55,18.92
5633,-3.05,8.58,-32.32,-51.758,-301.270,465.332,17.40,-5.25,-34.05,19.26
5643,8.18,1.47,-35.30,221.680,-367.187,1087.891,17.25,-6.30,-35.40,19.36
5653,17.23,-4.21,-37.82,98.145,-823.242,1309.570,17.85,-4.50,-35.25,19.07
5663,3.26,5.72,-33.17,43.945,-168.457,1222.168,17.85,-4.50,-35.25,19.26
5673,-5.72,0.91,-39.38,-52.246,-541.504,1424.316,17.85,-5.25,-36.00,19.12
5683,-4.02,3.00,-24.17,101.563,-290.527,951.660,18.60,-7.65,-33.00,19.36
5695,-0.24,0.36,-41.64,-32.227,-198.242,1339.355,18.45,-7.50,-33.90,19.45
5705,6.79,-1.10,-36.32,150.879,-596.680,1212.402,18.60,-6.45,-36.00,19.45
5715,6.85,-5.08,-42.04,102.051,-625.977,1931.641,19.20,-7.05,-34.20,19.12
5725,-0.08,-6.95,-34.93,187.988,-661.621,1416.504,16.65,-6.90,-34.50,19.21
5735,-4.61,-3.54,-28.63,-123.535,-44.922,1840.332,16.65,-6.90,-34.50,19.26
5745,10.14,-5.28,-42.01,164.062,-721.680,734.375,19.20,-9.15,-34.20,19.40
5757,-5.13,-8.26,-40.99,193.848,-355.957,441.895,19.35,-6.90,-36.30,19.36
5767,-2.48,-3.14,-38.82,246.582,-85.449,863.770,18.75,-8.70,-33.90,19.26
5777,4.96,-9.34,-39.36,-5.371,-471.191,449.219,18.45,-7.05,-37.35,19.36
5787,5.53,-7.35,-36.37,84.961,-279.297,728.027,18.45,-7.05,-37.35,19.40
5797,8.54,-1.83,-33.13,83.984,-168.457,324.707,18.75,-8.25,-35.40,19.07
5807,6.83,-0.39,-35.31,244.629,-582.520,375.488,19.95,-5.85,-34.95,19.36
5817,-6.92,-1.32,-30.92,-94.727,-127.441,947.266,18.90,-10.95,-34.50,19.55
5829,-1.98,-1.42,-38.26,-426.758,-316.406,522.461,18.60,-5.70,-36.00,19.36
5839,-1.08,2.73,-36.85,179.199,-510.254,300.781,18.60,-5.70,-36.00,19.40
5849,-4.84,2.68,-29.61,39.063,-155.762,1144.043,19.35,-7.35,-36.00,19.26
5859,-13.88,8.13,-33.20,20.996,-201.172,504.883,20.10,-7.35,-34.80,19.26
5869,-3.66,7.68,-34.41,117.676,-383.789,1251.465,20.10,-7.35,-34.80,19.07
5879,1.04,3.25,-36.30,47.852,-428.711,1058.594,20.25,-7.95,-34.95,19.36
5888,0.65,1.17,-39.66,-55.176,-455.078,1078.613,19.95,-7.95,-36.90,19.36
5900,-5.14,9.52,-31.55,-244.629,-226.562,852.539,21.00,-7.05,-36.15,19.40
5910,7.69,6.41,-41.50,122.070,-871.094,771.484,20.25,-9.15,-34.95,19.55
5920,0.60,4.21,-37.79,47.363,-629.883,1345.703,20.25,-9.15,-34.95,19.26
5929,4.52,2.56,-42.69,-147.461,-289.551,1633.301,20.25,-10.35,-34.95,19.07
5939,6.15,1.05,-44.45,365.234,-716.309,452.148,19.50,-9.90,-38.10,19.40
5949,-8.87,3.21,-42.25,199.219,-250.000,915.527,20.10,-7.65,-35.25,19.26
5959,-9.27,3.52,-39.48,-101.563,-511.230,1234.375,20.85,-9.75,-35.25,19.40
5972,-13.30,3.41,-36.18,-94.238,-282.715,994.141,20.85,-9.75,-35.25,19.55
5982,-11.74,8.37,-36.76,87.891,-186.523,441.406,20.25,-9.90,-36.60,19.40
5992,-5.90,5.50,-44.82,-64.453,-530.762,1062.012,21.90,-9.90,-36.60,19.40
6002,-5.03,-0.24,-38.85,-52.734,-99.121,1288.574,22.65,-9.15,-35.40,19.40
6012,4.48,-6.50,-39.78,-109.375,-81.055,1788.574,19.35,-12.45,-36.75,19.26
6022,1.65,1.85,-45.40,96.680,-776.367,826.172,19.35,-12.45,-36.75,19.07
6031,2.76,4.35,-44.30,444.824,-297.852,708.984,20.55,-12.15,-35.25,19.40
6042,-1.58,4.48,-43.30,-34.180,-801.758,498.047,22.05,-8.10,-37.05,19.55
6052,-8.79,3.66,-37.83,-7.324,-177.734,718.750,22.05,-8.10,-37.05,19.26
6062,-1.37,1.40,-40.66,125.488,-698.730,1152.832,21.00,-11.85,-38.10,19.45
6084,-6.92,0.76,-39.09,-285.156,-323.730,1203.613,22.05,-13.20,-37.50,19.55
6093,-6.21,2.03,-44.95,-214.355,37.109,672.852,21.45,-11.10,-36.60,19.07
6103,-6.85,10.53,-41.32,402.832,-590.332,639.648,21.45,-11.10,-36.60,19.40
6113,-7.66,7.92,-45.87,-352.539,78.125,360.840,20.55,-11.70,-38.25,19.40
6125,8.40,5.50,-46.97,58.105,-314.941,1070.313,23.55,-12.15,-37.05,19.55
6135,5.77,6.97,-46.34,-56.152,-426.270,1118.164,23.40,-13.80,-37.35,19.45
6145,0.56,-0.14,-41.54,75.684,-971.680,953.613,23.40,-11.10,-37.65,19.40
6155,-11.05,3.83,-44.00,-61.035,-574.707,802.246,23.40,-11.10,-37.65,19.21
6165,-7.82,0.55,-42.05,-7.812,-617.187,1348.633,23.25,-13.20,-40.05,19.21
6175,1.88,1.57,-45.53,438.965,-730.957,1187.012,23.25,-11.70,-37.50,19.07
6184,-13.66,1.98,-47.82,48.828,-396.973,503.418,22.35,-15.30,-38.25,19.36
6196,7.01,-2.34,-44.49,981.934,-865.234,-307.129,22.20,-12.75,-38.10,19.36
6206,13.83,3.68,-63.91,224.609,194.336,1527.344,22.80,-14.10,-37.50,19.45
6215,-12.00,0.94,-86.09,-804.687,-62.988,1617.676,22.80,-14.10,-37.50,19.21
6225,13.14,0.65,23.24,-33.691,-464.355,931.152,22.65,-12.30,-36.60,19.40
6234,13.84,4.29,-51.80,-278.809,-442.383,753.418,22.65,-12.30,-36.60,19.40
6244,-2.22,2.74,-47.78,-58.594,-639.648,760.254,23.40,-11.10,-37.65,19.40
6254,2.49,5.31,-129.73,370.117,-648.437,64.941,22.65,-16.20,-36.15,19.40
6266,-9.96,3.79,-50.65,-97.656,-574.707,792.969,24.60,-14.70,-37.65,19.55
6276,-7.89,5.44,-42.50,119.141,-446.289,765.137,24.60,-14.70,-37.65,19.40
6286,-8.53,4.53,-37.50,353.027,-694.824,1119.141,21.45,-13.50,-38.10,19.40
6296,-11.37,0.81,-41.17,39.551,-166.016,1358.398,24.15,-16.65,-37.35,19.12
6306,-11.13,-5.78,-54.51,-50.293,-876.465,672.852,22.95,-16.65,-37.35,19.07
6316,-0.18,-6.44,-42.80,398.926,-330.566,932.617,24.15,-15.90,-36.15,19.45
6328,2.77,-7.98,-41.84,-138.184,-614.258,643.555,24.15,-15.90,-36.15,19.26
6338,3.85,-4.08,-41.87,402.832,-463.867,353.027,22.80,-13.65,-38.55,19.36
6348,-1.98,-3.30,-41.32,-719.238,-4.883,1935.547,22.65,-17.85,-36.90,19.40
6358,7.96,1.40,-47.82,-143.066,19.043,1463.379,23.40,-18.60,-38.85,19.55
6368,10.36,3.94,-47.38,165.527,-510.742,58.594,24.90,-15.45,-36.90,19.40
6378,13.69,7.06,-44.34,272.461,-392.578,309.082,24.90,-15.45,-36.90,19.36
6387,4.21,5.92,-43.81,217.773,-490.723,561.523,22.65,-17.10,-38.85,19.45
6399,-11.30,11.21,-47.47,393.555,-206.055,538.086,23.55,-18.45,-36.00,19.26
6409,-12.47,8.44,-39.79,266.113,-391.602,972.656,23.55,-18.45,-36.00,19.40
6419,-6.69,1.43,-42.05,-214.355,-634.766,1056.152,23.55,-17.70,-37.05,19.40
6429,-0.40,-3.33,-49.50,143.066,-265.625,59.570,24.75,-18.90,-37.50,19.26
6439,5.63,3.23,-37.27,355.957,-265.137,1265.625,25.05,-18.00,-39.00,19.21
6449,-2.18,0.69,-40.48,-944.336,-505.371,1999.939,23.40,-17.10,-37.35,19.40
6459,11.21,-12.15,-44.68,788.086,-851.074,65.430,23.40,-17.10,-37.35,19.21
6471,6.89,-17.24,-44.40,238.770,-868.652,288.086,23.55,-16.80,-37.50,19.21
6481,-9.54,3.31,-44.52,-12.207,-443.848,674.805,24.00,-19.65,-36.75,19.12
6491,-4.15,-2.04,-47.85,96.191,-635.742,1713.867,24.30,-21.60,-37.80,19.40
6501,-6.01,-0.50,-47.33,-210.449,-506.348,709.473,24.00,-17.70,-37.80,19.60
6511,0.79,-2.44,-35.88,249.512,-560.059,791.016,24.00,-17.70,-37.80,19.40
6521,-11.37,-3.92,-43.45,-718.750,-245.117,1784.668,22.65,-19.80,-39.60,19.40
6531,-2.59,-2.75,-44.37,213.867,-703.613,689.941,25.35,-19.80,-36.90,19.12
6543,-7.37,-4.09,-42.01,-671.387,-664.551,1679.688,24.90,-21.90,-37.35,19.64
6553,3.82,1.62,-39.69,-421.875,-214.844,815.918,24.15,-19.50,-38.10,19.21
6563,4.37,13.12,-35.62,813.965,-978.027,893.555,24.15,-19.50,-38.10,19.12
6573,-5.35,1.33,-46.14,-770.020,-439.453,1999.939,23.55,-21.30,-39.00,19.45
6583,6.33,5.71,-44.47,903.320,-871.094,-575.684,22.95,-19.50,-38.40,19.40
6599,-9.34,2.08,-42.96,-574.219,-1119.629,1999.939,25.65,-21.45,-39.90,19.45
6608,-3.61,0.18,-50.57,213.379,-396.973,222.656,24.75,-20.10,-38.25,19.40
6619,-20.24,4.89,-45.19,-1521.973,568.848,908.203,24.15,-23.40,-36.15,19.40
6629,15.35,3.81,-34.82,1499.023,-881.836,-329.102,25.05,-22.80,-38.25,19.12
6639,-27.02,-0.44,-49.04,-1315.430,289.551,1999.939,25.05,-22.80,-38.25,19.45
6649,14.67,2.24,-44.41,961.914,-707.031,-987.305,24.75,-23.70,-37.50,19.55
6659,-14.24,0.11,-71.41,-1148.926,58.594,1999.939,23.40,-22.65,-38.85,19.55
6669,11.94,2.00,-52.81,533.691,-1379.395,46.387,25.50,-21.30,-37.50,19.36
6678,1.34,9.31,-71.30,718.262,-621.094,739.258,24.30,-22.80,-38.25,19.36
6690,5.40,6.00,-57.58,390.625,-896.973,265.137,24.30,-22.80,-38.25,19.36
6700,-2.47,9.02,-37.03,-515.137,-86.914,1032.227,24.30,-22.50,-38.55,19.21
6710,-5.76,2.75,-50.53,451.172,-871.582,1513.672,24.30,-24.90,-38.55,19.55
6720,6.46,5.52,-50.40,-109.375,-11.719,1999.939,23.25,-22.50,-39.75,19.21
6730,2.71,-7.32,-51.01,711.426,-1670.898,927.246,25.65,-23.10,-39.15,19.26
6740,6.34,-0.63,-50.43,-625.000,-296.875,1118.652,25.65,-23.10,-39.15,19.64
6750,-33.44,7.16,-245.55,416.016,-1298.340,1387.207,24.60,-23.85,-39.90,19.40
6762,2.25,-6.54,-11.19,792.480,-1758.789,1033.203,24.15,-23.40,-40.35,19.40
6772,2.95,9.25,-35.52,-782.227,136.230,1347.656,24.15,-23.40,-40.35,19.21
6781,-35.36,-5.03,-58.89,-1202.637,611.328,-375.000,23.70,-24.30,-39.90,19.40
6791,20.85,-5.23,-45.86,1069.336,-1426.270,-441.895,24.90,-23.85,-39.15,19.36
6801,-26.40,-4.42,-36.44,-773.437,-714.844,1999.939,24.30,-25.65,-39.75,19.40
6811,3.58,-6.89,-45.94,451.660,-880.859,-319.336,24.00,-23.25,-40.05,19.40
6823,-8.40,-13.19,-25.82,525.391,-1086.914,-481.445,24.00,-23.25,-40.05,19.55
6833,-12.45,5.79,-96.11,-134.766,154.297,494.629,23.70,-25.05,-38.85,19.55
6843,7.85,-0.13,-44.34,-134.277,-959.473,774.902,24.75,-24.00,-39.75,19.40
6853,12.58,2.94,-39.92,692.871,-926.758,101.563,24.75,-25.65,-38.55,19.21
6863,-21.23,1.70,-47.29,-1140.625,234.863,1999.939,24.15,-26.25,-39.90,19.45
6873,10.53,-3.98,-46.30,308.105,-960.449,236.328,24.15,-26.25,-39.90,19.36
6883,1.38,3.03,-52.88,49.805,-20.508,960.449,23.70,-25.80,-38.85,19.55
6895,13.94,-0.01,-44.76,2.441,-728.027,753.418,22.65,-25.50,-41.40,19.36
6905,-9.11,-5.68,-62.85,-493.164,-1324.219,1999.939,23.55,-26.40,-40.80,19.40
6915,7.85,-2.95,-44.42,374.512,-770.020,1098.145,24.15,-28.65,-38.40,19.36
6925,-23.11,0.27,-47.21,-535.645,159.180,1282.715,24.15,-28.65,-38.40,19.26
6935,3.12,-6.50,-47.40,-86.426,-873.047,417.480,24.15,-25.80,-39.90,18.92
6945,-7.79,-4.37,-48.19,-449.707,-271.484,877.930,23.70,-25.80,-41.40,19.45
6955,3.41,3.49,-45.02,-36.133,-869.141,1468.262,23.70,-25.80,-41.40,19.36
6967,-0.84,7.31,-48.57,-473.633,-664.062,1049.805,23.70,-27.75,-40.65,19.36
6977,2.40,3.47,-36.18,-238.770,-812.500,1295.898,23.55,-27.60,-40.80,19.55
6987,-1.45,6.99,-44.40,-58.105,-556.152,909.668,23.25,-27.15,-40.50,19.36
6997,-4.54,4.40,-49.25,-34.668,-521.973,990.234,22.35,-27.60,-41.25,19.45
7007,1.14,-2.94,-46.29,232.422,-784.668,1043.457,22.35,-27.60,-41.25,19.26
7017,-9.29,-5.03,-46.27,-348.633,-653.320,1842.285,23.40,-27.75,-41.85,19.07
7029,-2.47,-3.38,-57.80,-325.684,-156.738,1725.586,21.30,-27.60,-40.80,19.07
7039,3.68,-3.02,-46.79,-134.766,-440.430,505.371,21.45,-27.75,-40.35,19.12
7049,0.04,0.76,-55.44,-119.629,-118.164,806.641,21.45,-27.75,-40.35,19.45
7059,12.93,-9.92,-52.69,372.070,-625.488,800.293,22.80,-28.80,-40.80,19.26
7069,11.95,-1.54,-52.70,125.977,-414.062,748.047,22.05,-29.55,-40.05,19.55
7079,-3.34,-2.34,-45.56,-270.508,-825.684,1249.512,22.95,-29.85,-41.10,19.36
7089,4.76,-5.49,-37.68,20.508,-663.574,647.461,21.60,-29.25,-40.05,19.45
7100,0.15,-5.16,-41.19,-379.883,-979.492,1406.250,21.60,-29.25,-40.05,19.26
7115,-1.61,-2.09,-41.68,186.035,-432.129,867.187,22.65,-29.40,-40.65,19.45
7124,4.23,0.59,-38.53,-226.562,-568.359,759.766,21.90,-29.85,-40.35,19.36
7134,-2.34,1.00,-45.42,-538.086,-573.730,1793.457,21.90,-29.85,-40.35,19.36
7144,0.52,0.36,-42.43,-100.098,-331.543,898.926,19.35,-30.00,-40.80,19.36
7154,0.01,-4.61,-39.14,-275.879,-377.930,1544.922,21.60,-30.75,-40.80,19.21
7164,-3.91,-7.07,-41.90,-245.605,-218.750,1512.695,21.60,-30.75,-41.25,19.40
7176,-2.04,0.09,-52.45,-593.262,-834.473,1613.770,21.45,-29.85,-41.10,19.26
7186,3.15,-1.53,-39.97,-171.875,-452.148,1354.980,21.45,-29.85,-41.10,19.26
7196,3.04,1.47,-45.88,-136.230,-410.156,1163.086,21.60,-30.45,-40.80,19.45
7206,3.21,0.88,-38.55,-104.980,-485.352,1137.207,22.80,-30.75,-40.50,19.40
7216,-1.55,-1.36,-42.53,-121.094,-172.363,1462.891,21.90,-32.25,-41.10,19.26
7226,5.49,2.24,-45.53,-148.437,30.762,699.219,21.30,-30.45,-40.80,19.36
7238,13.79,-1.45,-39.68,80.078,-628.906,736.816,21.30,-30.45,-40.80,19.40
7248,7.83,6.07,-43.10,147.949,-604.004,875.000,19.50,-31.05,-39.15,19.40
7258,1.69,-2.63,-34.63,-271.484,-189.453,1326.172,19.65,-31.95,-41.25,19.12
7268,0.13,-2.47,-38.00,-209.961,-716.797,977.051,20.25,-32.55,-39.90,19.26
7278,-5.18,1.18,-35.31,-190.430,-380.371,744.141,19.65,-32.40,-41.25,19.45
7288,-10.10,-5.11,-45.70,-586.426,-460.449,1615.723,19.65,-32.40,-41.25,19.45
7298,-2.23,-4.95,-35.11,-54.688,-560.547,631.348,20.10,-31.95,-40.50,19.36
7310,2.22,2.55,-35.18,-83.008,-579.590,1403.320,20.10,-32.40,-41.25,19.55
7320,5.34,2.55,-42.53,-137.695,-213.379,333.984,20.10,-31.65,-40.50,19.55
7330,3.61,-1.18,-36.56,-258.789,-450.684,933.105,19.35,-31.65,-39.30,19.40
7340,-2.54,-2.56,-38.62,-598.145,-440.430,1936.035,20.25,-33.45,-40.65,19.07
7350,6.66,-5.88,-45.65,262.207,-864.258,900.391,18.90,-32.40,-40.80,19.26
7360,-8.72,-2.79,-45.47,172.852,-622.070,1704.590,18.90,-32.40,-40.80,19.45
7370,-3.57,-1.58,-41.57,-255.371,-512.695,1566.406,20.10,-33.60,-40.05,19.40
7382,2.95,-9.57,-41.93,-336.914,-470.703,1926.270,18.60,-31.95,-40.50,19.40
7392,3.25,-5.07,-47.09,-164.062,-190.918,1054.199,19.20,-33.45,-39.15,19.26
7402,13.98,-0.07,-36.18,512.207,-536.133,348.145,19.35,-34.35,-41.25,19.55
7412,3.37,-6.92,-42.76,-81.055,-772.461,1753.418,19.35,-34.35,-41.25,19.45
7422,1.27,2.11,-41.11,-103.516,-172.363,971.191,18.00,-33.75,-40.65,19.26
7432,5.91,5.60,-37.52,557.129,-666.504,618.164,18.15,-33.60,-40.50,19.40
7444,7.83,-3.63,-35.03,10.742,-1072.754,335.449,19.95,-35.40,-40.35,19.12
7454,-7.39,2.72,-39.87,225.098,19.043,1317.871,18.75,-33.45,-39.15,19.26
7464,-1.52,-9.82,-35.14,46.875,-476.074,1693.848,18.75,-33.45,-39.15,19.45
7474,-3.90,-2.61,-42.43,-165.039,-320.312,265.137,18.60,-34.05,-39.75,19.21
7484,-0.99,-2.31,-28.70,-109.863,-577.637,580.078,17.85,-34.05,-40.80,19.36
7494,2.83,-7.33,-33.36,-652.832,-164.551,1599.609,17.85,-34.05,-40.80,19.40
7504,12.89,-6.01,-27.31,405.762,-778.320,262.695,16.80,-36.15,-39.15,19.26
7516,3.37,-5.63,-38.11,-28.809,-828.613,1128.906,17.55,-34.20,-39.90,19.26
7526,2.35,3.55,-43.83,-129.883,-190.430,611.328,17.85,-35.55,-37.80,19.07
7536,-5.66,-4.37,-31.22,-404.785,-47.852,1292.480,17.25,-35.85,-39.90,19.36
7546,-0.73,3.42,-37.00,-188.477,-329.102,1015.137,17.25,-35.85,-39.90,19.60
7556,-2.73,-1.02,-38.44,202.148,-604.004,909.180,17.25,-36.60,-37.65,19.40
7566,-5.85,1.33,-39.83,-300.293,-68.359,1666.016,15.90,-35.25,-39.30,19.64
7576,4.96,-0.36,-39.08,170.898,-589.355,958.496,17.40,-34.80,-38.55,19.36
7588,2.34,-1.97,-36.89,-467.285,-436.523,1999.939,18.00,-34.95,-38.85,19.45
7598,5.77,-9.50,-40.28,335.449,-77.148,759.766,18.00,-34.95,-38.85,19.40
7608,1.44,-4.03,-34.75,342.285,199.707,1242.188,16.80,-35.40,-38.10,19.07
7618,-7.47,-2.27,-36.70,-463.379,-602.539,1447.266,16.05,-35.85,-39.15,19.45
7632,8.30,-8.60,-33.24,105.469,-829.102,126.465,15.30,-34.95,-39.15,19.36
7642,-2.21,4.27,-33.85,392.578,-317.383,541.016,15.30,-34.95,-39.15,19.36
7654,-0.69,8.44,-33.56,109.863,-544.922,129.395,15.45,-34.35,-37.80,19.55
7664,-2.78,10.71,-34.82,-282.715,-254.883,786.133,15.30,-37.05,-38.10,19.40
7674,2.92,-5.05,-38.47,-128.418,-591.309,1363.770,15.30,-37.05,-38.10,19.07
7684,3.42,1.47,-40.33,266.602,-579.590,569.824,16.65,-37.20,-37.05,19.60
7694,-7.15,2.61,-31.76,-223.633,-321.289,1573.242,16.65,-36.45,-39.30,19.40
7704,-2.60,0.14,-36.79,-428.711,-652.344,1585.449,16.65,-34.80,-39.30,19.55
7714,9.79,-1.15,-42.39,171.875,-744.141,-30.273,14.55,-37.35,-38.85,19.40
7726,3.93,-2.85,-38.00,91.309,-423.340,1089.355,14.55,-37.35,-38.85,19.26
7736,0.15,-3.41,-36.81,299.805,-552.734,272.461,15.45,-35.55,-37.80,19.55
7746,-1.56,-5.92,-36.52,-179.199,-685.059,1999.939,14.85,-36.60,-37.35,19.40
7756,2.78,-3.31,-36.69,121.582,-501.465,468.262,15.30,-35.40,-38.40,19.21
7766,-3.58,0.42,-38.04,378.906,-430.176,10.742,14.85,-36.60,-38.85,19.40
7776,-13.06,-6.92,-34.71,-1166.992,346.680,841.797,14.85,-36.60,-38.85,19.55
7786,12.37,0.82,-30.12,289.551,-495.605,639.648,14.70,-36.45,-38.55,19.40
7798,2.70,-2.25,-37.21,-172.852,-1072.266,1124.023,14.10,-36.15,-38.40,19.40
7808,1.26,-4.29,-40.49,371.582,-614.746,362.305,13.35,-36.60,-39.15,19.40
7818,-12.76,3.63,-29.93,-267.090,-387.695,1549.316,14.55,-37.05,-38.10,19.55
7828,-3.80,-3.82,-28.26,-457.031,149.414,1999.939,14.55,-37.05,-38.10,19.40
7838,12.39,2.56,-25.80,710.937,-352.051,415.039,13.80,-36.60,-38.40,19.40
7848,-8.44,0.21,-33.12,-405.273,-563.965,1350.586,13.80,-37.05,-37.35,19.60
7860,-5.34,1.31,-28.52,-308.105,-80.078,658.691,13.95,-36.45,-37.35,19.26
7870,0.59,-1.67,-32.24,-579.590,-75.684,1925.781,15.15,-37.95,-38.25,19.40
7880,13.69,2.57,-27.59,246.582,-176.758,619.141,15.15,-37.95,-38.25,19.45
7889,8.32,3.38,-32.29,379.883,-443.359,865.234,14.40,-37.95,-37.50,19.26
7899,5.05,11.71,-26.86,100.586,-159.180,1411.133,13.80,-36.15,-37.65,19.55
7909,5.38,3.29,-23.37,-163.574,-967.773,1249.512,13.80,-36.15,-37.65,19.40
7919,-4.73,-1.05,-35.21,101.074,-691.406,283.691,13.95,-34.35,-38.25,19.45
7931,3.47,-1.85,-35.69,106.445,-647.461,1100.098,12.60,-37.05,-38.85,19.21
7941,1.15,9.69,-28.13,232.422,-308.594,937.012,12.75,-35.25,-38.55,19.36
7951,-1.56,-1.98,31.76,-35.156,-411.621,1933.594,12.75,-35.25,-38.55,19.55
7961,7.83,1.80,-39.10,48.340,-537.598,729.004,13.20,-37.20,-38.25,19.40
7971,8.31,1.66,-28.63,424.805,-529.297,426.758,12.45,-36.00,-37.80,19.55
7981,-8.64,1.07,-30.19,-590.332,355.957,919.922,11.85,-38.55,-36.60,19.40
7991,7.43,-3.47,-25.34,398.437,-413.574,395.996,12.60,-36.60,-37.65,19.21
8003,-9.23,-6.82,-26.94,-446.289,-209.961,1514.160,12.60,-36.60,-37.65,19.60
8013,-3.68,-1.37,-24.37,78.613,-436.035,415.039,13.05,-37.35,-38.10,19.12
8023,0.18,0.37,-31.61,-141.602,-466.309,810.059,13.35,-35.85,-37.35,19.55
8033,4.19,-12.09,-25.38,-89.355,-651.855,1153.809,13.05,-38.55,-37.35,19.64
8043,12.05,-3.74,-22.85,9.277,-169.922,761.230,12.45,-36.75,-39.00,19.64
8053,-1.36,4.18,-29.97,-233.887,-371.094,1197.266,12.60,-37.80,-38.10,19.60
8063,11.47,-7.05,-23.92,-104.980,-637.207,1206.543,11.70,-37.20,-37.80,19.55
8075,-5.02,-1.43,-26.84,-496.094,-536.621,1661.133,12.45,-36.00,-39.00,19.26
8085,3.52,1.95,-27.98,158.691,26.367,958.984,12.45,-36.00,-39.00,19.55
8094,9.64,-4.44,-27.06,21.484,-336.426,1202.148,12.60,-38.25,-38.85,19.45
8104,-3.29,1.82,-31.44,-168.457,-306.641,1174.805,12.30,-36.60,-37.65,19.64
8114,1.79,0.83,-27.88,-62.988,-435.059,1176.270,12.00,-38.40,-38.25,19.40
8124,4.92,-1.20,-33.40,101.074,-381.348,840.332,10.95,-37.95,-39.00,19.60
8134,2.94,-5.12,-30.61,72.266,-251.953,945.312,10.95,-37.95,-39.00,19.45
8151,4.21,-3.79,-29.06,-149.414,-300.781,619.629,11.40,-37.05,-38.10,19.45
8160,4.82,1.02,-26.65,-93.262,-349.121,1282.227,12.00,-36.45,-37.80,19.45
8170,-3.00,-3.61,-34.00,-171.875,-281.250,773.437,11.70,-38.40,-36.75,19.45
8180,-0.08,-6.40,-27.89,58.105,-641.113,657.227,10.65,-37.05,-37.35,19.40
8190,-2.50,1.16,-32.23,121.582,-60.547,838.867,10.65,-37.05,-37.35,19.45
8200,5.07,-1.58,-32.82,-166.992,-13.184,1623.535,11.70,-37.95,-37.80,19.40
8212,8.14,0.46,-23.43,-144.531,-375.000,1253.418,12.45,-38.70,-36.75,19.40
8222,2.44,1.93,-33.75,-375.488,-200.195,1591.797,11.25,-37.65,-36.75,19.40
8232,-1.58,9.39,-31.91,301.758,-616.211,745.605,11.25,-37.65,-36.75,19.21
8242,-2.56,6.81,-32.01,-117.676,-67.871,652.344,11.25,-37.65,-37.05,19.55
8252,0.31,1.80,-34.12,111.816,-494.141,1011.719,10.05,-37.95,-37.80,19.64
8262,9.78,1.23,-24.24,-23.926,-207.520,553.223,10.05,-37.95,-37.80,19.45
8274,1.68,5.73,-28.29,-359.375,-453.125,1144.043,11.25,-37.65,-37.05,19.55
8284,0.91,1.69,-28.06,16.602,-357.422,1028.809,11.40,-38.55,-37.35,19.36
8294,0.51,3.66,-30.50,62.012,-457.520,1144.043,11.70,-36.45,-35.55,19.55
8303,-2.50,2.05,-31.43,-238.770,-180.664,1239.746,11.70,-38.40,-36.75,19.12
8313,10.50,1.04,-28.70,-413.086,-470.703,1329.102,11.70,-38.40,-36.75,19.64
8323,8.46,0.55,-33.44,-13.672,-494.629,784.668,11.40,-39.00,-36.60,19.64
8333,10.41,2.14,-29.04,-75.195,-692.871,1583.008,12.00,-37.95,-36.75,19.64
8345,7.94,3.83,-29.92,12.207,-863.770,609.863,10.95,-37.65,-35.55,19.55
8355,-3.69,3.99,-22.98,-186.035,-434.082,1486.328,10.05,-37.65,-36.75,19.40
8365,-3.60,-1.50,-34.09,-131.348,-189.453,1545.898,10.05,-37.65,-36.75,19.45
8375,3.95,3.44,-34.26,76.172,-432.129,430.176,10.65,-37.80,-38.40,19.45
8385,3.50,5.04,-31.84,-501.465,-480.469,1310.547,11.10,-39.00,-38.10,19.21
8395,4.51,1.39,-28.68,-151.855,-206.543,1527.832,10.50,-36.75,-37.05,19.45
8405,6.22,0.52,-30.98,32.227,-554.199,539.062,11.25,-38.40,-36.30,19.40
8417,-11.73,-0.69,-35.18,71.777,-621.094,1040.039,11.25,-38.40,-36.30,19.64
8427,-12.46,3.13,-34.92,-162.598,-327.637,688.477,10.50,-38.40,-36.75,19.45
8437,-4.98,2.56,-37.58,-114.258,-278.320,1408.203,9.90,-39.75,-37.35,19.40
8447,-8.61,-2.71,-39.05,-156.738,-430.176,1612.793,9.90,-39.75,-37.35,19.55
8457,-1.92,-1.42,-34.57,209.473,-423.340,533.203,10.50,-39.15,-36.30,19.40
8467,-9.85,2.80,-37.55,-170.898,162.109,1523.926,10.95,-38.70,-37.05,19.21
8477,0.56,-1.86,-39.42,-209.473,-329.102,633.789,10.95,-38.40,-36.00,19.40
8489,7.23,2.02,-33.96,-334.961,-291.992,1093.750,9.30,-39.90,-36.00,19.36
8499,13.00,-2.97,-36.56,-14.648,-501.465,1495.605,9.30,-39.90,-36.00,19.45
8509,12.76,2.90,-31.04,83.496,-632.812,290.527,9.90,-39.00,-35.70,19.40
8519,6.88,3.56,-40.10,167.969,-573.730,1048.828,8.25,-39.90,-36.00,19.40
8528,-3.98,-0.42,-39.26,-229.004,-380.371,1354.492,10.65,-39.30,-35.70,19.45
8538,-0.93,-4.92,-37.18,-192.871,-495.117,1333.008,9.30,-39.60,-35.55,19.26
8550,-2.14,-1.84,-38.78,-448.730,-128.906,1999.939,9.30,-39.60,-35.55,19.45
8560,0.31,-3.64,-33.74,-248.535,-170.410,1702.637,10.65,-39.30,-36.90,19.36
8570,7.63,-2.16,-35.31,700.684,-750.488,38.086,9.30,-39.90,-36.30,19.45
8580,-4.56,-1.57,-43.05,11.230,-511.230,991.699,9.00,-39.60,-37.05,19.36
8590,-4.50,-7.25,-39.85,-221.191,-497.559,1042.480,9.15,-39.75,-34.65,19.36
8600,5.87,-5.62,-39.52,383.301,-576.660,138.184,9.15,-39.75,-34.65,19.45
8610,0.79,1.40,-39.15,262.695,-211.426,542.969,9.15,-38.55,-34.95,19.45
8622,11.79,0.55,-40.24,198.242,-288.086,1395.996,9.60,-39.75,-35.70,19.45
8632,-6.64,-3.64,-45.54,-41.992,-669.434,1498.535,9.60,-39.75,-35.70,19.55
8642,0.37,-7.20,-38.40,104.004,-346.680,565.430,7.65,-40.20,-35.40,19.21
8652,-2.98,4.63,-41.16,-306.641,59.570,541.992,7.65,-40.20,-35.40,19.55
8667,-5.46,5.82,-40.05,-416.016,-350.586,860.352,8.70,-40.20,-34.95,19.64
8676,-2.00,0.95,-42.64,-508.789,-446.777,1815.430,8.70,-40.20,-34.95,19.40
8686,2.88,7.31,-41.69,541.992,-830.078,192.871,7.80,-39.15,-35.55,19.45
8695,7.49,3.34,-43.94,239.258,-818.848,149.902,8.55,-41.10,-35.55,19.40
8707,9.05,-3.08,-46.09,250.488,-805.176,346.191,8.55,-39.90,-36.75,19.45
8717,5.51,1.92,-54.33,212.402,-494.141,575.684,8.70,-40.50,-35.70,19.55
8727,-0.15,-2.17,-46.98,-140.137,-498.535,1026.855,8.70,-40.50,-35.70,19.55
8737,8.07,0.86,-51.37,-193.848,-712.891,1412.598,6.60,-38.40,-34.05,19.55
8747,8.86,2.21,-62.05,140.625,-949.707,361.328,7.20,-40.95,-33.45,19.40
8757,-5.51,0.18,-47.63,-395.508,-109.375,1524.414,6.15,-40.20,-36.15,19.26
8767,-2.15,-5.06,-53.70,-106.445,-759.766,1209.961,7.95,-39.75,-34.65,19.60
8779,0.52,-7.95,-54.13,-220.703,-638.672,1631.836,7.95,-39.75,-34.65,19.26
8789,-4.64,-6.37,-53.47,38.086,-460.937,337.891,6.90,-40.20,-35.40,19.36
8799,-4.93,-2.86,-49.18,-48.828,-442.383,1149.902,7.65,-42.15,-34.95,19.45
8809,-8.46,1.73,-46.95,-1191.895,92.773,654.297,6.30,-40.80,-35.25,19.55
8819,6.98,3.02,-53.50,244.141,-839.844,645.508,7.05,-41.10,-34.80,19.45
8829,-1.85,3.31,-46.57,201.172,-380.859,592.773,5.70,-41.40,-34.95,19.64
8839,7.73,-2.40,-47.85,-84.473,-783.691,1431.641,5.25,-39.30,-36.15,19.21
8851,-0.48,-3.73,-44.47,-159.180,-651.367,985.840,5.70,-40.95,-33.90,19.55
8861,6.89,-2.36,-50.39,-206.543,-305.176,1137.207,5.70,-40.95,-33.90,19.26
8871,4.11,-3.79,-44.75,527.344,-739.258,888.672,5.55,-40.35,-34.80,19.45
8881,-25.85,-2.60,-46.99,-264.160,333.496,926.270,6.60,-41.10,-33.00,19.55
8891,-14.66,-3.99,-36.93,-486.328,-593.750,1999.939,5.10,-40.35,-34.80,19.40
8901,-6.07,-1.20,-43.69,206.543,-641.602,629.883,4.95,-40.20,-33.45,19.36
8913,2.89,1.62,-47.89,-291.992,-305.176,819.336,4.95,-40.20,-33.45,19.45
8923,7.76,2.02,-50.76,375.977,-360.352,510.742,4.35,-42.00,-34.05,19.60
8933,5.56,6.30,-45.30,-211.914,-67.871,1383.789,4.35,-42.00,-34.05,19.36
8943,26.69,2.38,-40.73,531.250,-1181.641,-12.695,4.50,-43.35,-35.40,19.40
8953,3.32,6.12,-51.94,101.074,-708.984,563.477,4.50,-41.40,-33.90,19.64
8962,-10.82,-4.31,-47.63,-320.312,-606.445,1012.695,4.50,-41.40,-33.90,19.40
8972,0.24,0.51,-49.60,-210.937,-492.676,820.312,4.50,-42.15,-34.20,19.45
8984,-9.54,-4.88,-51.56,-446.777,-168.457,1911.133,4.20,-42.60,-34.20,19.55
8994,-8.90,-7.54,-48.26,-63.965,-293.945,849.121,3.15,-42.75,-34.80,19.64
9004,18.88,-7.40,-56.83,157.227,-729.004,459.473,3.15,-42.75,-34.80,19.45
9014,8.31,-0.92,-61.79,-854.004,-400.879,1999.939,2.55,-42.15,-33.90,19.12
9024,9.30,-3.15,-54.66,87.891,-500.977,446.289,3.75,-41.40,-34.20,19.55
9034,-5.37,6.65,-50.47,667.969,-748.047,404.785,3.75,-41.40,-34.20,19.45
9044,-7.27,-2.02,-53.73,-410.645,-529.785,1988.281,1.05,-42.90,-33.45,19.60
9056,-10.87,-4.29,-47.71,-109.375,-376.465,1362.305,1.80,-41.70,-34.65,19.40
9066,-7.04,-3.08,-47.15,-826.660,-328.613,1813.965,1.65,-42.30,-33.75,19.60
9076,13.23,3.99,-48.67,550.293,-562.988,47.363,0.30,-42.15,-34.65,19.45
9086,-3.95,2.07,-46.40,-233.887,-262.207,989.746,0.30,-42.15,-34.65,19.36
9096,-0.03,-5.91,-53.31,-95.215,-830.078,1911.621,1.05,-43.80,-33.45,19.26
9106,5.35,2.40,-44.20,185.059,-632.324,335.937,1.65,-41.10,-34.50,19.45
9115,-2.79,2.79,-46.62,143.066,-644.043,608.398,0.45,-42.30,-33.75,19.64
9127,6.37,3.82,-50.51,-16.113,-370.117,584.961,0.75,-43.80,-34.20,19.40
9137,2.71,9.24,-49.15,300.293,-291.504,1024.414,0.75,-43.80,-34.20,19.40
9147,-9.63,3.05,-51.64,-485.352,-107.910,1978.516,1.65,-42.30,-34.50,19.45
9157,11.01,-2.53,-43.31,238.770,-1395.508,-46.875,-0.45,-44.70,-35.55,19.36
9167,-12.10,-2.38,-48.16,-17.578,-565.918,446.777,1.05,-42.60,-34.20,19.12
9182,6.03,-0.85,-57.31,-62.988,-475.098,1150.391,-0.45,-44.40,-34.50,19.55
9191,3.43,-8.59,-46.63,-665.039,-317.383,1845.215,-0.45,-44.40,-34.50,19.55
9203,-6.18,-9.49,-47.92,-520.020,-592.773,1293.945,-0.15,-42.30,-33.30,19.45
9213,2.56,-8.00,-49.21,469.238,-812.500,758.301,-0.15,-42.75,-34.80,19.40
9223,6.77,-0.90,-56.31,64.941,-228.027,724.121,-0.15,-42.75,-34.80,19.64
9233,-1.60,-2.96,-47.67,-291.504,-424.316,1143.555,-1.65,-44.40,-33.00,19.26
9243,5.46,-1.05,-49.12,-167.969,-429.199,554.687,-2.10,-41.55,-33.30,19.45
9253,1.35,3.31,-47.64,60.059,-1068.848,-66.406,-1.65,-42.30,-34.05,19.45
9263,-20.47,-0.43,-39.52,-688.965,-419.922,1274.414,-2.40,-42.75,-34.50,19.60
9275,-12.73,6.28,-49.98,172.363,-416.016,683.105,-3.45,-42.15,-33.90,19.40
9285,-3.44,4.37,-52.47,-103.516,-675.293,964.844,-2.10,-42.30,-34.80,19.55
9295,10.69,0.32,-44.55,-268.555,-328.125,1406.738,-1.65,-42.00,-33.00,19.55
9305,9.55,12.45,-47.45,10.254,-840.332,536.133,-2.85,-43.50,-34.50,19.36
9315,1.66,10.54,-49.82,-419.434,-916.992,738.770,-2.85,-43.50,-34.50,18.92
9325,2.68,1.11,-56.34,-13.184,-687.988,914.062,-4.35,-42.30,-33.75,19.55
9335,6.05,5.17,-42.81,79.102,-425.293,1396.484,-3.90,-42.75,-35.25,19.40
9346,-10.98,-4.34,-52.83,-127.930,-349.609,1219.238,-3.60,-42.00,-34.50,19.55
9356,-5.11,-4.62,-50.57,-17.578,-274.902,497.559,-4.80,-43.20,-33.30,19.60
9366,1.92,2.32,-52.14,0.977,-500.488,953.613,-4.80,-43.20,-33.30,19.45
9376,4.01,-5.08,-47.69,-67.871,-597.656,1025.391,-4.95,-41.70,-33.90,19.36
9386,-1.63,-5.64,-56.01,-450.684,-354.004,791.992,-4.95,-42.90,-33.90,19.36
9396,0.85,0.61,-48.82,32.715,-402.344,532.715,-4.80,-42.30,-34.80,19.21
9408,1.70,2.25,-47.81,-177.734,-656.738,184.570,-3.75,-42.60,-33.15,19.21
9418,0.06,1.25,-43.46,-140.625,-557.129,787.598,-3.75,-42.60,-33.15,19.55
9428,-6.46,-3.49,-52.89,-261.230,-1027.344,1515.137,-6.15,-42.15,-34.65,19.45
9438,-4.32,2.70,-48.72,-19.531,-240.723,651.855,-5.10,-43.20,-33.00,19.36
9448,7.48,3.82,-45.43,189.941,-339.355,127.441,-5.10,-43.20,-33.00,19.40
9458,0.68,1.26,-51.89,110.840,-663.086,1127.441,-5.55,-40.80,-33.30,19.55
9468,12.69,0.04,-47.37,62.500,-637.207,1065.430,-7.80,-42.30,-33.00,19.26
9480,2.41,5.95,-43.52,-680.664,-543.457,1376.953,-6.90,-41.40,-34.65,19.40
9490,7.14,6.62,-47.52,69.336,-202.148,870.117,-6.45,-42.15,-33.45,19.36
9500,13.83,10.84,-39.63,407.227,-461.914,1605.469,-6.45,-42.15,-33.45,19.40
9510,-7.82,8.62,-47.65,-202.637,-1200.195,1410.645,-7.80,-41.10,-33.75,19.55
9520,1.47,-0.47,-44.58,-88.379,-1095.703,1567.383,-7.95,-40.95,-31.95,19.40
9530,-12.65,12.97,-50.34,-59.082,-504.883,988.770,-7.20,-40.50,-33.90,19.64
9540,-6.63,6.40,-46.08,-817.383,-138.672,1849.121,-7.35,-41.55,-33.00,19.45
9552,8.18,3.15,-42.38,289.551,-590.332,1347.168,-7.35,-41.55,-33.00,19.40
9562,0.24,3.39,-48.13,-535.156,-275.391,1677.246,-7.20,-39.75,-34.65,19.45
9572,3.32,0.15,-43.23,-440.918,-884.277,1999.939,-7.20,-41.70,-33.90,19.40
9582,4.16,3.31,-43.17,-207.031,-721.191,605.469,-8.55,-39.90,-33.75,19.55
9592,-4.45,-3.56,-46.50,-412.598,-481.445,1577.637,-7.35,-40.80,-31.80,19.45
9602,6.50,-1.74,-52.88,197.266,-596.680,618.164,-7.35,-40.80,-31.80,19.55
9612,2.75,2.39,-47.94,446.777,-255.859,747.070,-10.35,-40.95,-33.90,19.55
9624,18.50,0.88,-52.18,340.820,-875.977,-164.551,-8.70,-40.95,-32.40,19.45
9634,-1.99,7.45,-50.59,124.512,-881.836,768.555,-8.70,-40.95,-32.40,19.40
9644,7.44,-0.82,-48.16,-552.734,-397.461,1945.801,-9.90,-38.55,-32.70,19.45
9654,13.44,-3.68,-42.18,378.418,-672.363,381.348,-9.75,-42.30,-31.80,19.40
9664,5.03,10.09,-44.17,309.570,-291.016,327.637,-10.50,-39.90,-33.30,19.40
9674,-17.95,-5.99,-48.46,67.383,-798.828,1865.234,-9.60,-39.75,-32.70,19.26
9687,-10.89,-10.37,-49.02,-839.355,-602.051,1999.939,-11.10,-40.20,-32.70,19.45
9701,5.79,-2.10,-55.88,152.344,-1137.695,-177.734,-10.95,-40.35,-31.50,19.55
9710,-14.51,0.22,-56.18,375.977,-15.137,458.008,-10.35,-40.95,-32.40,19.64
9720,-8.82,-0.89,-39.82,-843.262,-420.410,1999.939,-10.95,-38.40,-33.00,19.36
9730,11.74,0.00,-50.73,218.262,-915.527,338.867,-10.95,-38.40,-33.00,19.36
9740,4.21,0.61,-53.47,-538.574,14.160,1192.871,-11.25,-39.90,-32.55,19.36
9752,14.74,7.36,-45.30,454.102,-627.441,915.527,-11.40,-39.00,-33.15,19.36
9762,-7.66,3.82,-48.77,-1000.488,-278.320,1850.586,-12.00,-39.90,-31.05,19.40
9772,9.71,0.90,-46.47,-176.270,-965.332,459.961,-11.25,-38.70,-33.00,19.12
9782,2.58,10.79,-39.46,790.527,-704.102,836.914,-11.25,-38.70,-33.00,19.40
9792,-11.15,1.69,-46.01,-450.684,-447.754,1999.939,-12.45,-39.15,-31.80,19.64
9802,8.32,2.88,-43.07,559.082,-1049.805,-30.273,-12.30,-37.35,-31.65,19.12
9812,-3.31,6.00,-48.12,23.926,-603.027,767.090,-12.30,-37.35,-31.65,19.60
9824,-3.13,4.46,-44.63,353.027,-358.887,340.820,-13.35,-39.75,-30.45,19.12
9834,-4.19,-1.67,-41.82,-1013.672,-275.879,1674.805,-13.35,-35.40,-31.65,19.12
9844,18.39,-2.41,-44.37,624.023,-1151.855,60.059,-12.45,-37.95,-32.55,19.55
9854,10.64,4.61,-51.12,173.828,-445.312,261.719,-13.35,-38.25,-33.15,19.60
9864,-2.36,-3.63,-50.66,-108.887,-545.898,1683.594,-13.35,-38.25,-33.15,19.55
9874,6.57,-8.07,-49.96,291.016,-821.777,425.781,-13.20,-39.15,-31.50,19.40
9884,-19.72,2.93,-43.54,-13.184,126.465,496.094,-14.40,-36.45,-31.80,19.40
9896,-10.51,1.25,-45.11,-243.652,-115.234,829.590,-13.95,-37.20,-32.25,19.40
9906,-8.19,3.79,-45.39,-666.504,-505.859,1846.191,-13.95,-37.20,-32.25,19.36
9916,12.24,0.34,-47.78,218.750,-534.668,808.594,-13.35,-36.15,-33.15,19.45
9926,-4.44,9.66,-35.23,434.570,-818.848,753.906,-13.50,-36.45,-33.75,19.40
9936,-4.85,4.53,-44.87,-333.008,-70.801,1337.891,-13.50,-36.45,-33.75,19.40
9946,19.62,6.76,-36.81,274.902,-1038.574,572.754,-13.95,-36.00,-33.75,19.40
9959,-1.63,-1.06,-36.93,-138.184,-926.270,989.746,-13.95,-36.00,-33.75,19.45
9968,-8.00,2.46,-45.40,-0.977,-458.008,1029.297,-12.45,-35.55,-32.55,19.45
9978,-18.16,-0.05,-47.37,-306.641,10.742,1999.939,-14.70,-35.55,-33.30,19.40
9988,-1.32,-6.15,-48.03,141.113,-960.937,1352.051,-14.70,-35.55,-33.30,19.36
9998,2.17,4.41,-43.18,-229.004,-728.516,751.953,-14.40,-35.25,-32.55,19.64
10008,7.60,-0.82,-42.18,-411.621,-1275.391,1220.215,-13.95,-33.60,-33.00,19.40
10018,10.66,3.37,-48.64,-149.902,-538.574,1091.309,-13.95,-31.95,-33.00,19.40
10030,12.78,0.20,-46.37,-470.215,-651.367,1999.939,-13.95,-35.25,-33.75,19.55
10040,8.97,8.80,-44.52,40.039,-391.602,70.313,-13.95,-35.25,-33.75,19.45
10050,4.40,4.45,-47.57,-303.711,-339.844,915.527,-13.95,-33.60,-32.55,19.45
10060,1.90,4.41,-44.50,-148.437,-1060.059,1994.629,-13.05,-32.55,-31.65,19.64
10070,-4.39,9.47,-41.35,-176.270,-521.973,759.277,-14.40,-32.40,-32.55,19.07
10080,-1.58,9.84,-49.18,-83.008,-424.805,1317.383,-13.80,-31.80,-31.65,19.40
10090,8.98,4.15,-38.09,-79.102,-1017.090,1392.090,-13.80,-31.80,-31.65,19.40
10102,-8.05,-1.88,-33.51,-27.344,-129.883,840.820,-14.40,-32.85,-33.30,19.36
10112,-14.44,16.95,-45.65,-258.301,-252.930,428.711,-14.10,-31.80,-32.40,19.55
10122,-2.26,4.21,-46.97,24.414,-218.262,1605.469,-12.00,-30.75,-31.50,19.26
10132,5.92,6.39,-45.45,-181.641,-781.250,190.918,-12.75,-31.65,-32.25,19.40
10142,16.48,10.38,-44.47,121.094,-1274.414,530.762,-12.75,-31.65,-32.25,19.55
10152,4.52,15.52,-46.70,-345.215,-92.773,743.164,-14.40,-30.75,-31.80,19.12
10164,2.63,9.14,-46.95,-337.891,-318.359,1308.105,-15.15,-32.85,-31.05,19.36
10174,-14.31,9.28,-46.51,-164.551,-234.375,1556.152,-15.15,-32.85,-31.05,19.36
10184,1.41,0.06,-41.80,-140.625,206.543,1437.012,-14.10,-31.05,-30.45,19.40
10194,16.50,-4.38,-37.45,-273.437,-320.801,1999.939,-13.35,-31.05,-30.90,19.40
10204,32.41,-10.42,-39.30,-391.602,-896.484,1999.939,-14.55,-31.80,-31.65,19.45
10219,25.08,-18.47,-49.32,-418.457,-1130.859,1999.939,-14.85,-31.35,-30.90,19.40
10228,23.43,-25.57,-47.58,-143.066,-714.355,1757.324,-14.10,-31.80,-30.45,19.26
10240,-5.10,-24.05,-56.08,-149.414,-1397.461,959.961,-15.75,-30.60,-29.40,19.12
10250,-10.24,-33.64,-57.78,-220.215,-775.879,1959.961,-16.50,-30.15,-28.65,19.36
10260,-5.55,-36.19,-47.10,-31.250,-896.973,1093.750,-15.75,-29.40,-29.40,19.55
10270,-6.94,-13.13,-50.73,-21.973,-581.543,1493.652,-15.75,-29.40,-29.40,19.55
10280,-17.44,-26.28,-53.50,78.613,-559.570,897.949,-16.20,-30.45,-28.05,19.60
10290,-23.66,-29.88,-55.08,-268.555,-225.098,924.805,-16.80,-30.15,-28.65,19.45
10302,-9.47,-16.76,-44.55,-491.211,284.668,1162.109,-18.75,-29.40,-28.20,19.36
10312,9.07,-16.40,-49.10,-170.898,-601.074,215.332,-17.40,-29.55,-28.35,19.45
10322,-8.44,-16.24,-52.21,-355.957,-562.988,599.609,-17.40,-29.55,-28.35,19.36
10332,-3.60,-17.95,-54.21,-187.988,-1133.301,633.301,-17.40,-28.80,-29.55,19.12
10342,-15.95,-1.80,-51.47,-206.543,-197.754,220.215,-18.00,-29.40,-29.40,19.36
10352,-2.28,-7.02,-51.15,601.074,-344.727,-147.461,-18.00,-29.40,-29.40,19.45
10362,-18.55,-11.14,-52.88,-448.730,-292.969,-73.242,-17.55,-29.40,-27.90,19.45
10374,1.76,-6.79,-52.98,-475.098,497.559,-70.801,-17.85,-29.25,-28.35,19.40
10384,37.88,-4.67,-44.03,-327.148,-107.910,1782.715,-19.95,-28.20,-29.40,19.40
10394,33.94,-2.15,-52.58,77.148,-750.000,755.371,-18.90,-28.80,-29.55,19.55
10404,25.89,4.75,-31.41,-277.832,-389.160,191.895,-18.90,-28.80,-29.55,19.12
10414,20.38,10.73,-42.91,-154.785,-661.621,1803.711,-18.75,-28.20,-30.15,19.07
10424,23.10,17.73,-40.34,-404.785,-1167.969,1102.539,-20.70,-27.45,-29.70,19.36
10438,-8.64,-3.00,-54.43,98.145,-721.680,544.434,-20.10,-26.85,-29.85,19.36
10447,-5.86,13.38,-49.10,-506.836,-196.289,1148.438,-19.35,-27.60,-29.55,19.26
10457,2.46,12.72,-34.82,-134.766,-618.164,856.934,-19.35,-27.60,-29.55,19.60
10467,2.31,8.53,-45.11,154.297,-268.555,1833.496,-19.65,-26.40,-28.80,19.21
10477,-1.66,21.40,-29.66,50.781,-361.816,1443.848,-20.25,-25.80,-28.65,19.55
10487,-3.53,3.11,-37.21,-66.406,-811.035,1514.648,-18.75,-25.50,-30.15,19.21
10497,-10.98,-3.74,-50.02,31.250,-318.359,1333.984,-19.95,-25.50,-28.65,19.40
10509,2.66,-9.85,-49.56,-166.504,-156.738,1240.234,-19.35,-26.85,-29.10,19.45
10519,10.21,-15.76,-49.05,-240.234,-173.340,994.141,-20.25,-28.65,-28.95,19.55
10529,20.41,-14.10,-40.57,272.461,-654.785,487.793,-21.30,-27.60,-30.30,19.36
10539,9.60,-13.31,-42.81,-424.805,-742.187,917.480,-21.90,-26.55,-30.45,19.40
10549,6.43,-18.76,-40.50,-317.383,-817.383,1037.109,-20.85,-28.05,-29.85,19.40
10559,-5.82,-9.92,-43.34,-60.059,-684.082,800.293,-20.70,-25.05,-30.45,19.40
10571,-15.29,-4.16,-42.15,-394.043,-471.191,1291.504,-19.35,-25.95,-29.10,19.64
10581,-8.96,1.82,-34.55,-110.352,-586.914,923.828,-19.35,-25.95,-29.10,19.55
10591,-6.28,-4.25,-49.05,138.672,-516.602,410.156,-20.70,-25.50,-29.70,19.45
10601,-9.63,-5.18,-36.08,-229.004,-132.812,1309.082,-21.45,-26.25,-30.45,19.55
10611,3.52,-4.17,-40.93,-176.270,-428.711,1245.117,-20.70,-25.80,-28.65,19.26
10621,3.21,-6.43,-37.50,-361.328,-431.152,1526.367,-21.30,-25.95,-30.75,19.64
10631,4.50,-1.48,-43.91,-101.074,-432.129,606.934,-21.30,-25.95,-30.75,19.45
10643,2.36,-2.21,-41.77,106.934,-655.273,529.785,-21.00,-24.60,-29.70,19.40
10653,-5.27,3.32,-42.34,-91.309,-257.324,559.570,-22.65,-25.50,-30.15,19.64
10663,-6.20,-0.76,-40.49,-120.117,-166.992,1180.176,-22.20,-25.80,-30.45,19.40
10673,-2.80,6.63,-36.05,-68.359,-233.887,872.559,-22.65,-26.25,-30.15,19.40
10683,1.85,1.98,-43.37,-262.695,-437.012,1304.199,-22.65,-26.25,-30.15,19.45
10693,7.55,5.73,-40.15,-116.699,-168.457,559.570,-22.05,-25.20,-28.80,19.60
10705,17.54,3.34,-42.66,-66.895,-551.758,1055.176,-20.25,-24.30,-29.40,19.26
10715,16.55,9.69,-40.94,-233.887,-601.074,926.270,-21.90,-23.40,-28.95,19.21
10725,16.82,11.67,-36.95,-133.301,-315.918,505.859,-22.20,-25.50,-28.20,19.40
10747,5.97,0.20,-36.47,-239.746,-227.539,1756.836,-21.60,-24.90,-28.05,19.40
10756,7.11,2.27,-39.47,111.328,-583.496,971.191,-22.05,-24.45,-28.35,19.40
10766,-0.05,0.88,-40.08,70.313,-179.687,1197.266,-22.05,-24.45,-28.35,19.40
10776,2.34,-4.29,-49.52,46.875,-556.641,1880.371,-21.60,-24.90,-28.80,19.55
10788,4.32,-6.63,-36.33,-147.461,-173.828,1180.664,-23.70,-22.20,-30.15,19.74
10798,4.58,-5.41,-39.24,271.484,-325.684,815.430,-22.05,-22.05,-30.30,19.55
10808,-6.45,-7.70,-43.86,-470.215,-204.590,1999.939,-24.15,-23.85,-29.70,19.26
10818,0.60,-12.68,-40.63,32.227,-325.195,1065.430,-24.15,-23.85,-29.70,19.60
10828,1.88,-9.92,-40.18,217.285,-212.402,695.801,-22.80,-23.70,-29.55,19.45
10838,-4.00,-6.24,-31.67,-173.340,-232.910,1271.973,-24.00,-22.80,-30.75,19.45
10850,-5.37,0.29,-4.78,100.586,-214.355,325.195,-24.15,-22.65,-29.70,19.64
10860,7.79,-5.66,-29.45,297.852,-437.500,389.160,-24.15,-22.65,-29.70,19.45
10870,-11.96,-2.05,-38.99,-391.602,-354.492,940.430,-22.80,-23.70,-29.10,19.36
10880,-12.32,-5.36,-32.77,-57.617,-541.504,1263.672,-24.00,-22.05,-31.05,19.40
10890,-14.99,1.69,-35.98,142.090,-133.301,570.801,-23.25,-21.30,-28.05,19.36
10900,-14.62,6.56,-31.80,52.734,-288.574,1233.887,-25.35,-23.85,-28.65,19.40
10910,-6.77,2.03,-29.77,-151.367,-392.578,1193.848,-23.70,-20.25,-29.40,19.40
10922,-5.66,6.60,-31.33,-507.812,386.230,1030.273,-22.65,-22.20,-28.65,19.40
10932,25.65,-8.34,-30.95,961.426,-1065.430,-231.934,-23.55,-22.50,-29.10,19.64
10942,-0.79,3.38,-32.22,-254.883,161.621,898.437,-23.55,-22.50,-29.10,19.45
10952,8.80,-6.69,-40.31,-337.402,-914.551,1522.461,-22.80,-23.25,-27.30,19.26
10962,1.95,-10.08,-44.10,66.895,-695.312,802.246,-23.25,-21.60,-30.30,19.45
10972,5.83,-3.18,-34.96,-118.164,-216.309,1110.352,-22.80,-21.60,-28.80,19.21
10984,4.11,-7.29,-30.18,355.469,-634.277,601.074,-24.00,-22.50,-30.75,19.21
10994,-5.79,-1.44,-37.52,-2.930,-16.113,1102.539,-24.00,-22.50,-30.75,19.12
11004,0.56,-2.15,-34.10,-502.930,142.578,1352.051,-24.00,-22.80,-29.55,19.64
11014,5.85,4.50,-40.78,-91.309,-271.973,567.871,-22.35,-22.80,-30.75,19.55
11024,11.27,1.69,-25.76,230.957,-392.090,312.500,-21.00,-19.50,-28.95,19.45
11034,-3.55,4.75,-21.08,-265.137,-526.367,1585.938,-21.45,-23.10,-29.70,19.40
11044,-2.79,-0.53,-31.83,169.434,-993.652,1109.375,-21.45,-23.10,-29.70,19.40
11056,-11.50,-1.60,-28.45,-52.246,-262.695,1493.164,-22.20,-22.20,-27.15,19.64
11066,-14.95,-0.24,-29.44,-66.895,-467.285,1359.375,-23.40,-23.10,-28.95,19.60
11076,-3.98,0.11,-35.06,382.812,-420.410,327.148,-22.05,-20.85,-28.05,19.21
11086,-21.07,-8.64,-38.70,-648.437,383.301,1104.980,-23.55,-23.25,-26.55,19.55
11096,-2.26,-8.22,-30.63,359.863,-403.320,371.582,-23.55,-23.25,-26.55,19.40
11106,-1.04,1.42,-50.66,204.102,-219.238,665.527,-24.00,-22.50,-28.35,19.45
11116,0.11,0.85,-28.73,-223.633,-597.656,1480.957,-24.15,-24.30,-27.90,19.64
11128,2.32,3.35,-36.94,440.918,-482.422,824.707,-24.15,-24.30,-27.90,19.40
11138,-6.17,1.82,-30.92,-943.848,-112.793,1754.883,-24.00,-20.85,-28.35,19.45
11148,-0.37,1.02,-34.66,-293.945,-263.672,1138.184,-24.30,-20.40,-29.85,19.45
11158,5.43,3.66,-37.73,558.594,-535.645,880.371,-23.40,-18.30,-28.95,19.36
11168,0.40,3.25,-40.92,-294.434,-787.109,1999.939,-23.55,-22.50,-29.85,19.40
11178,-6.09,-2.92,-39.83,-23.437,-553.223,1354.004,-23.55,-22.50,-29.85,19.40
11190,-6.36,-7.52,-33.24,-208.984,-591.309,1975.098,-22.20,-21.00,-29.70,19.40
11200,-3.82,-5.71,-41.78,664.062,-477.051,1019.531,-22.20,-17.40,-30.90,19.60
11210,3.93,-0.48,-38.69,24.414,-349.121,964.844,-24.00,-20.40,-28.05,19.45
11220,11.95,-1.20,-32.21,-866.211,-491.211,1999.939,-24.00,-20.40,-28.05,19.36
11230,30.79,-4.85,-35.39,761.230,-951.172,-51.758,-22.05,-17.25,-28.35,19.07
11240,-11.31,-8.72,-29.64,-857.422,-156.250,1722.656,-22.65,-19.05,-28.95,19.26
11250,14.69,-15.02,-35.11,381.348,-856.934,-42.969,-23.25,-18.00,-29.55,19.40
11268,11.78,-8.60,-37.71,441.406,-925.781,547.852,-24.00,-18.00,-27.30,19.45
11277,-2.78,-5.79,-35.77,513.184,-178.223,482.422,-22.95,-19.50,-27.45,19.60
11287,-6.24,-8.80,-30.91,-514.160,-618.652,1959.473,-24.00,-17.25,-28.35,19.40
11297,14.04,-3.66,-37.47,606.445,-817.383,-365.723,-23.70,-17.40,-28.65,19.40
11307,-25.18,0.63,-33.76,-414.551,464.844,-15.137,-23.70,-17.40,-28.65,19.36
11319,-13.56,7.27,-35.54,136.230,-257.324,333.008,-24.00,-16.05,-28.35,19.60
11329,-14.69,-3.76,-33.88,-462.891,-681.641,1999.939,-22.65,-19.05,-28.65,19.40
11339,0.68,-1.10,-34.51,719.238,-924.805,-332.031,-24.15,-18.60,-28.65,19.07
11349,-14.98,12.18,-44.73,-609.375,150.391,419.434,-24.00,-17.25,-28.80,19.55
11359,-1.31,-3.66,-55.60,136.230,-529.785,915.039,-24.00,-17.25,-28.80,19.45
11369,7.18,10.66,-40.85,430.176,-664.062,478.516,-24.15,-17.10,-30.45,19.21
11379,-14.21,5.74,-38.12,-769.043,-434.082,1681.152,-23.70,-15.90,-29.40,19.40
11391,-18.90,6.45,-45.75,-413.086,-28.809,1237.305,-23.55,-16.05,-30.75,19.45
11401,1.87,-3.00,-52.72,-437.012,-158.691,1999.939,-23.55,-16.05,-30.75,19.64
11411,18.07,1.05,-39.43,831.543,-564.941,775.391,-23.55,-16.05,-31.05,19.36
11421,-8.33,-3.59,-46.08,-772.461,-214.844,1999.939,-23.70,-13.50,-30.15,19.26
11431,17.33,-2.19,-45.02,384.766,-909.180,19.531,-22.05,-14.85,-29.10,19.60
11441,2.37,3.13,-30.85,132.324,-221.191,1013.184,-22.65,-15.45,-30.15,19.45
11453,3.47,6.34,-42.95,365.234,-220.703,879.395,-21.90,-13.05,-30.15,19.55
11463,-8.45,-5.95,-40.18,-1195.801,-1109.375,1999.939,-23.25,-15.60,-28.80,19.36
11473,9.25,-6.50,-42.18,1206.543,-1326.172,-1020.996,-22.65,-13.80,-29.70,19.36
11483,-20.82,0.73,-47.44,-349.609,653.809,-442.871,-22.65,-13.80,-29.70,19.55
11493,13.79,-12.79,-39.15,911.133,-1076.172,-150.391,-22.35,-15.30,-28.05,19.55
11503,-2.37,-0.79,-44.29,39.551,67.383,865.723,-23.25,-14.40,-29.85,19.26
11513,-13.31,0.02,-44.40,-197.266,-490.723,1953.125,-21.90,-14.70,-30.15,19.36
11525,-4.02,-4.62,-45.20,-941.406,-797.363,1999.939,-22.35,-16.05,-29.55,19.36
11535,15.74,-3.05,-41.60,1263.184,-904.297,-580.078,-22.35,-16.05,-29.55,19.40
11545,-35.47,-0.27,-43.89,-1099.121,672.852,916.992,-23.40,-13.80,-31.20,19.36
11555,11.10,-5.40,-41.34,358.398,-1153.809,-165.039,-21.90,-14.70,-30.45,19.36
11565,-3.61,8.89,-45.84,104.492,-179.199,451.660,-23.40,-11.55,-31.95,19.55
11575,1.89,-3.85,-40.98,-347.656,-431.152,1999.939,-22.20,-14.70,-30.15,19.45
11587,-5.47,-1.26,-44.27,-909.180,1.465,1712.402,-22.20,-14.70,-30.15,19.45
11597,15.28,-3.04,-43.37,667.480,-1032.227,108.398,-21.60,-12.45,-31.05,19.60
11607,-6.58,1.92,-44.56,-189.941,-96.191,1031.250,-20.85,-14.85,-31.80,19.40
11617,-5.83,-10.38,-43.08,100.098,-40.039,1135.254,-22.05,-13.65,-33.00,19.45
11627,7.39,-4.03,-51.47,97.168,-80.566,1208.496,-20.70,-12.30,-30.90,19.40
11637,0.13,-11.21,-39.98,-671.387,-55.176,1999.939,-19.95,-14.70,-31.20,19.36
11647,19.89,-4.84,-42.47,948.730,-643.066,-428.711,-21.90,-11.85,-31.65,19.45
11659,36.02,-10.82,-17.78,1032.715,-1116.211,-1172.363,-20.25,-11.85,-30.90,19.55
11669,11.34,2.49,-38.60,-492.187,250.000,739.746,-20.25,-11.85,-30.90,19.40
11679,3.90,-4.99,-29.76,688.477,-1264.648,1604.492,-20.70,-11.85,-30.45,19.26
11689,2.52,7.30,-31.86,57.129,-548.340,991.211,-20.10,-11.25,-30.75,19.07
11699,-31.58,0.92,-36.81,-538.086,-686.035,1999.939,-21.30,-14.40,-30.30,19.55
11709,5.28,0.44,-46.18,375.488,-268.555,1274.902,-21.60,-12.15,-32.25,19.45
11721,16.46,-3.89,-39.21,977.539,-619.629,-101.074,-20.70,-12.75,-30.90,19.21
11731,2.91,-5.13,-27.83,-516.602,-339.844,1999.939,-20.70,-10.65,-30.90,19.45
11741,12.00,-10.53,-36.47,444.336,-860.352,264.160,-20.70,-10.65,-30.90,19.60
11751,-5.05,2.23,-39.95,-482.910,-251.465,619.141,-19.95,-12.75,-29.40,19.40
11761,11.17,-4.01,-34.04,627.930,-1053.711,-333.984,-19.95,-12.75,-29.40,19.45
11771,-0.60,7.55,-36.31,-83.496,-343.262,591.309,-19.95,-12.75,-29.40,19.40
11786,-2.76,5.34,-28.30,-724.609,-763.672,1999.939,-20.70,-13.05,-29.70,19.45
11795,9.56,10.11,-42.60,300.781,-1101.074,332.520,-21.30,-9.75,-29.55,19.12
11807,7.19,14.21,-32.63,378.906,-405.273,940.430,-21.90,-9.90,-28.65,19.45
11817,-6.55,10.95,-47.94,-1295.898,660.156,116.211,-21.90,-9.90,-28.65,19.55
11827,24.92,9.68,-32.87,1711.426,-855.469,-1065.918,-21.90,-9.15,-28.95,19.45
11837,-24.52,3.23,-48.19,-326.660,-329.590,914.062,-19.95,-10.35,-30.45,19.36
11847,-8.31,-7.76,-48.46,271.973,-334.961,1999.939,-19.95,-10.35,-30.45,19.45
11857,-2.74,-0.67,-37.24,405.762,-854.980,353.516,-19.50,-7.50,-30.45,19.55
11867,-27.53,-8.73,-59.78,-435.547,353.516,1259.766,-20.70,-8.25,-30.15,19.40
11879,-33.29,-16.53,-47.99,-1491.211,1457.520,857.422,-20.70,-9.90,-30.90,19.36
11889,24.03,-5.21,-50.91,1060.059,-970.215,-642.090,-20.10,-8.10,-31.05,19.45
11899,-13.51,-4.17,-47.13,-931.641,-463.867,1496.094,-20.10,-8.10,-31.05,19.55
11909,26.56,-1.50,-28.74,72.266,-585.937,1081.055,-18.45,-8.70,-30.90,19.40
11919,-2.36,3.68,-32.48,-591.797,-1064.941,1999.939,-19.35,-7.65,-31.50,19.26
11929,21.21,3.85,-35.06,635.254,-704.590,642.090,-18.00,-7.05,-30.45,19.26
11941,11.44,6.06,-49.90,833.984,-1092.285,404.785,-18.45,-9.15,-31.65,19.26
11951,-33.53,-0.27,-52.40,-1800.293,824.219,735.352,-18.45,-9.15,-31.65,19.55
11961,-0.71,3.54,-25.35,1473.633,-940.430,-1193.848,-17.25,-7.50,-30.90,19.40
11971,-25.26,-4.18,-37.25,-1183.594,950.195,691.406,-18.75,-8.70,-30.15,19.55
11981,6.20,-11.33,-32.79,1122.070,-676.270,143.555,-17.25,-7.05,-30.15,19.64
11991,-15.83,-12.30,-48.69,-1148.438,999.512,934.570,-17.85,-7.35,-29.85,19.55
12001,14.66,-11.11,-40.05,1510.742,-12.207,-1528.320,-17.85,-7.35,-29.85,19.12
12013,16.20,-4.24,-37.95,957.031,-226.562,-1564.453,-16.50,-7.50,-27.90,19.45
12023,-26.15,-15.33,-34.04,-543.945,-11.719,660.645,-16.50,-7.50,-27.90,19.26
12033,10.26,5.15,-27.22,94.727,-475.586,237.305,-18.45,-9.90,-29.40,19.40
12043,-17.34,-6.76,-48.01,255.859,-892.090,1507.324,-19.20,-8.70,-28.20,19.55
12053,-9.60,7.00,-35.76,190.918,-96.680,1142.090,-17.40,-9.75,-28.05,19.55
12063,-6.35,-6.18,-32.62,618.652,-1210.938,1055.176,-19.20,-9.15,-29.70,19.36
12075,-3.49,-9.25,-45.53,1811.523,-1146.484,386.230,-19.20,-9.15,-29.70,19.40
12085,-11.94,-1.63,-37.55,-1401.367,568.359,1474.121,-17.10,-9.30,-29.10,19.55
12095,19.21,-0.85,-52.64,893.066,-1249.023,-338.867,-18.45,-7.95,-31.65,19.60
12105,-22.89,-2.67,-37.17,-1615.234,301.270,864.258,-16.80,-5.85,-30.90,19.36
12115,10.50,9.76,-32.09,925.293,-767.090,-508.789,-17.40,-7.65,-29.55,19.55
12125,-24.41,-4.00,-42.27,-1572.266,238.770,1662.598,-17.40,-7.65,-29.55,19.40
12135,18.31,1.65,-28.84,640.137,-1018.066,-660.645,-17.55,-5.55,-31.65,19.60
12147,16.49,-0.79,-43.08,-95.703,-597.656,632.324,-17.25,-6.75,-30.45,19.45
12157,-5.73,2.72,-39.66,6.348,-379.883,1750.488,-17.25,-5.85,-30.15,19.36
12167,17.83,6.18,-47.14,-397.949,-506.836,616.699,-15.75,-4.35,-29.70,19.36
12177,-0.22,-10.27,-26.31,789.062,-1543.457,1339.844,-15.75,-4.35,-29.70,19.40
12187,-13.44,2.07,-41.79,90.332,-327.637,1370.605,-17.10,-6.90,-28.80,19.26
12197,-13.75,-11.54,-44.02,593.262,-1633.789,1384.766,-18.00,-4.65,-30.45,19.40
12209,1.24,-10.39,-58.24,276.367,-792.969,944.824,-18.00,-4.65,-30.45,19.26
12219,-0.40,-14.26,-41.82,560.547,-187.988,-354.492,-16.50,-5.85,-30.15,19.45
12229,13.04,-11.69,-56.48,345.703,-501.953,-141.602,-15.15,-4.05,-29.10,19.55
12239,6.13,-15.48,-45.85,-396.973,83.008,1448.730,-15.90,-3.30,-28.35,19.45
12249,18.17,-5.47,-33.85,181.641,-863.770,285.645,-16.20,-5.25,-28.35,19.36
12259,-7.73,3.21,-47.35,-1321.289,-2.930,1455.078,-16.20,-5.25,-28.35,19.40
12269,7.63,10.92,-34.34,474.121,-516.602,1148.926,-15.45,-2.85,-28.80,19.36
12281,10.06,10.88,-34.34,190.430,-750.000,117.676,-15.90,-3.75,-29.10,19.55
12291,-5.31,5.79,-35.27,255.859,-1057.129,1999.939,-16.80,-4.65,-29.70,19.26
12306,-2.51,8.80,-35.28,-188.965,-432.129,732.910,-15.30,-2.25,-30.15,19.36
12315,3.84,0.00,-34.66,514.648,-903.809,1084.473,-16.20,-4.50,-30.30,19.64
12325,-1.32,-1.47,-43.76,-77.637,230.957,1186.523,-16.20,-2.55,-30.30,19.64
12335,8.53,-6.76,-30.21,918.945,-1153.320,656.738,-16.20,-3.30,-29.85,19.36
12347,22.87,-6.95,-38.70,1071.777,-1476.563,1034.668,-14.85,-3.90,-30.90,19.40
12357,-27.40,-3.44,-46.12,-1411.133,-61.523,1949.707,-14.85,-3.90,-30.90,19.12
12367,4.43,-5.39,-37.25,450.684,-755.859,626.465,-13.05,-1.95,-30.45,19.26
12377,-16.24,-2.98,-48.76,-203.125,-865.234,1916.992,-12.60,-3.90,-30.90,19.64
12387,-3.33,-2.68,-33.09,-17.090,-47.363,986.816,-12.60,-3.90,-30.90,19.36
12397,-7.15,0.04,-47.16,28.809,-474.121,47.852,-13.20,-2.55,-30.30,19.40
12409,8.69,-5.96,-33.70,244.141,-186.035,1335.449,-14.10,-3.45,-28.65,19.36
12419,-4.31,7.58,-39.11,-820.801,-179.687,1965.332,-13.95,-4.50,-29.85,19.40
12429,12.49,3.44,-42.73,183.594,-299.805,821.289,-13.50,-0.90,-29.85,19.55
12439,3.05,-1.27,-47.98,255.859,-860.840,1046.875,-13.50,-0.90,-29.85,19.64
12449,-5.88,-4.79,-41.14,-362.305,-174.805,782.715,-13.95,-4.05,-30.30,19.21
12459,-0.41,0.59,-36.52,426.758,-770.508,37.598,-13.80,-2.25,-31.65,19.40
12469,-3.19,1.56,-43.20,-941.895,10.742,1307.129,-13.20,-2.55,-29.10,19.55
12481,-7.38,-0.24,-38.47,-25.879,-42.480,1807.617,-12.75,-4.05,-30.75,19.60
12491,2.34,2.24,-50.06,-532.227,-3.418,1354.004,-12.75,-4.05,-30.75,19.40
12501,16.40,-4.73,-43.47,589.844,-944.824,770.508,-11.40,-1.95,-31.95,19.74
12511,-5.08,1.69,-44.61,-445.312,-295.898,1749.023,-11.85,-3.45,-30.45,19.26
12521,-3.20,-12.43,-37.13,461.426,-1291.992,303.223,-11.40,-1.95,-31.65,19.21
12531,-32.17,-9.94,-44.21,-734.863,-174.316,424.805,-11.40,-1.95,-30.90,19.07
12541,-11.49,-4.89,-32.18,527.832,-245.605,1163.086,-11.40,-1.95,-30.90,19.55
12553,-9.27,-0.17,-37.21,-792.480,154.785,1091.309,-11.70,-1.35,-31.05,19.45
12563,-1.14,-4.63,-38.57,473.145,-677.246,451.660,-11.70,-1.35,-31.05,19.55
12573,-1.63,0.15,-56.11,-563.477,19.531,679.687,-11.70,-1.35,-31.05,19.55
12583,21.73,-2.03,-40.04,436.035,-784.668,516.113,-13.20,-1.65,-30.75,19.40
12593,12.37,0.68,-43.40,166.016,-499.023,706.055,-13.20,-1.65,-30.75,19.21
12603,-2.61,-1.37,-37.73,-779.297,-121.582,1644.531,-11.40,-1.95,-30.15,19.36
12615,-18.49,2.91,-44.69,-952.637,-455.078,937.500,-11.40,-3.15,-30.45,19.55
12625,-4.75,-0.46,-38.88,523.926,-754.883,484.375,-10.65,-0.75,-31.20,19.55
12635,-19.00,4.91,-33.08,-416.992,47.363,1999.939,-10.50,-3.30,-31.05,19.21
12645,9.40,4.18,-44.58,-67.383,-572.754,633.789,-9.30,-2.10,-31.05,19.60
12655,0.21,-1.20,-32.51,166.992,-716.309,1587.402,-10.50,-0.45,-31.80,19.60
12665,1.60,4.09,-41.57,-525.879,-191.895,1094.238,-10.50,-0.45,-31.80,19.36
12675,2.37,0.98,-29.98,-29.785,-646.973,426.758,-8.55,-2.10,-31.80,19.55
12687,12.93,3.66,-45.42,269.531,-594.238,1351.563,-8.70,-0.30,-31.95,19.40
12697,6.02,-1.44,-39.92,-213.379,-455.078,1374.512,-9.30,-0.45,-32.25,19.64
12707,8.25,3.85,-36.41,-108.887,-839.844,762.207,-10.65,-1.05,-31.95,19.21
12717,-1.50,-5.53,-39.42,206.543,-888.184,1214.355,-10.65,-1.05,-31.95,19.21
12727,-10.44,2.11,-41.10,-267.578,-85.449,1197.754,-9.30,-0.15,-33.00,19.40
12737,-0.94,-0.85,-38.88,320.801,-1221.191,534.180,-10.05,-0.15,-31.50,19.55
12747,-13.75,2.74,-41.80,-688.477,-178.711,627.441,-10.05,-0.15,-31.50,19.40
12759,-3.56,-9.08,-39.86,-415.039,-129.395,1504.883,-8.55,0.15,-30.30,19.36
12769,12.54,-10.05,-51.28,-188.477,-739.258,1163.574,-9.15,-1.95,-32.40,19.36
12779,2.44,-6.02,-38.03,-46.387,-234.375,1595.703,-7.80,0.45,-31.50,19.55
12789,10.08,-6.35,-46.34,-298.340,-771.484,698.242,-7.95,-0.30,-32.40,19.07
12799,1.44,-8.01,-36.24,-266.113,-627.441,1294.434,-7.95,-0.30,-32.40,19.40
12809,15.47,-3.89,-45.25,-166.992,-492.676,319.336,-7.80,0.15,-33.00,19.40
12825,16.29,7.04,-43.96,-176.270,-666.992,375.488,-7.95,0.30,-32.70,19.55
12835,4.37,7.16,-38.03,-144.043,-886.230,538.574,-7.65,0.00,-33.90,19.26
12845,10.30,3.70,-43.95,95.703,-792.480,1101.563,-7.65,0.00,-33.90,19.55
12854,-3.95,3.70,-42.99,-343.262,17.578,1492.188,-7.65,0.00,-33.90,19.36
12864,11.68,7.31,-44.13,-133.789,-232.910,920.410,-7.05,0.90,-31.80,19.60
12874,3.56,4.33,-43.89,317.383,-729.492,1053.711,-7.05,0.90,-31.80,19.55
12884,-8.97,1.30,-43.06,-136.230,-482.422,769.043,-5.85,0.75,-32.70,19.36
12896,-6.26,1.02,-45.68,-23.437,-1022.461,623.535,-5.85,1.35,-31.80,19.40
12906,-11.07,-9.15,-47.80,-265.137,-488.770,1786.133,-5.85,0.15,-32.55,19.36
12916,0.27,-6.83,-48.70,-193.848,-336.426,805.176,-5.25,0.75,-32.40,19.55
12926,-1.10,-3.92,-49.55,-213.379,-339.844,1333.984,-6.30,0.90,-31.05,19.64
12936,3.52,-0.48,-46.61,-489.746,-484.375,1323.730,-6.15,2.25,-32.40,19.26
12946,10.27,2.96,-42.50,-297.852,-925.293,500.000,-6.15,2.25,-32.40,19.45
12956,9.05,-2.73,-35.53,35.645,-1005.371,1377.930,-6.90,1.95,-34.65,19.64
12968,6.48,0.08,-45.16,3.906,-848.633,717.285,-5.55,2.10,-34.05,19.45
12978,-10.81,3.21,-36.22,-437.988,-316.895,1881.348,-5.55,2.10,-34.05,19.12
12988,-5.66,1.51,-45.60,-83.496,-710.937,1323.730,-4.80,2.10,-33.75,19.64
12998,-4.65,1.63,-44.33,27.832,-303.223,1260.254,-3.75,2.70,-34.65,19.36
13008,3.45,3.75,-44.60,-35.156,-850.586,1190.430,-5.25,1.05,-34.20,19.21
13018,2.98,-2.16,-42.08,-314.941,-325.195,1807.129,-4.50,1.05,-34.95,19.21
13028,2.60,-5.98,-39.85,30.762,-741.211,1024.902,-4.50,1.05,-34.95,19.40
13040,-2.76,-4.50,-43.92,0.977,-601.562,412.598,-3.60,1.35,-34.50,19.36
13050,-13.24,-7.96,-46.51,-227.539,-712.891,1119.629,-4.50,3.15,-33.15,19.55
13060,-7.46,-10.89,-50.05,-54.199,-823.730,1068.848,-4.80,0.90,-33.30,19.45
13070,-7.11,-14.42,-43.53,-356.445,26.367,1425.781,-2.55,1.95,-34.65,19.36
13080,1.98,-10.02,-48.50,-83.008,-225.098,853.027,-2.55,1.95,-34.65,19.36
13090,2.30,-4.24,-55.05,-381.836,-232.422,1277.344,-1.05,2.25,-35.40,19.26
13100,12.75,-5.07,-41.01,81.055,-477.051,795.410,0.15,1.35,-34.80,19.12
13112,13.56,1.49,-50.64,-157.227,-895.996,706.055,-0.90,1.35,-34.05,19.36
13122,5.28,1.04,-41.10,-94.727,-543.945,946.777,-1.05,1.50,-31.95,19.07
13132,3.34,-4.92,-48.34,-192.871,-787.109,187.500,-1.05,1.50,-31.95,19.45
13142,-6.36,3.82,-54.95,-113.770,-524.414,759.766,-0.90,2.10,-33.75,19.40
13152,1.04,-2.53,-42.03,-24.902,-1084.961,1065.918,-0.15,2.10,-31.80,19.40
13162,-0.95,-0.30,-46.01,-174.805,-509.277,444.336,-0.15,2.10,-31.80,19.40
13172,3.85,-1.10,-50.94,-44.434,-771.484,1111.328,-0.90,0.15,-31.50,19.12
13184,5.10,2.04,-56.36,-170.898,-658.203,1026.855,-0.75,0.75,-33.15,19.45
13194,13.52,6.13,-45.70,-191.406,-621.094,771.973,0.90,1.65,-32.55,19.36
13203,1.50,8.95,-48.60,-636.230,-576.172,1186.035,0.90,2.10,-32.25,19.60
13213,-2.60,6.27,-46.45,-44.922,-1427.734,786.133,0.90,2.10,-32.25,19.64
13223,-20.80,4.26,-51.75,-155.762,-838.867,1121.582,-0.45,0.45,-33.00,19.55
13233,-23.64,3.85,-57.01,-259.766,-524.414,1168.457,-0.15,1.35,-32.25,19.64
13245,-28.73,3.77,-51.74,-140.137,52.734,912.598,0.45,1.35,-33.75,19.55
13255,-10.23,4.24,-51.95,-191.406,-84.473,1465.820,0.45,1.35,-32.55,19.40
13265,0.37,5.92,-43.84,-156.738,-587.891,1479.004,0.45,1.35,-32.55,19.36
13274,4.05,2.89,-49.47,121.582,-987.305,1169.434,0.45,0.15,-31.50,19.64
13284,-7.40,9.05,-50.31,-208.496,-588.867,925.293,2.10,-0.15,-32.25,19.64
13294,-5.31,0.37,-49.68,-395.020,-781.250,1374.512,1.80,1.05,-33.45,19.36
13304,-21.56,-5.58,-49.08,-91.309,-608.398,1582.520,1.05,1.05,-32.70,19.64
13316,-29.04,-12.44,-50.92,201.660,216.797,823.730,2.10,2.55,-31.50,19.45
13326,-13.48,-15.32,-49.36,-236.328,-254.395,1999.939,1.20,1.35,-33.00,19.40
13340,12.96,-8.02,-54.11,-404.785,-273.437,1339.355,1.20,1.35,-33.00,19.60
13350,10.57,-14.52,-49.14,336.914,-631.348,481.934,2.40,-0.15,-33.00,19.40
13360,-7.62,-9.83,-49.66,-572.266,161.621,413.086,2.40,1.35,-32.55,19.40
13370,7.53,-12.31,-53.94,619.629,-708.008,114.746,2.85,0.45,-32.25,19.45
13380,-12.63,-18.04,-52.55,-317.871,81.543,568.848,3.15,0.90,-33.30,19.21
13390,4.12,-30.31,-53.76,853.027,-1038.574,-407.227,3.15,0.90,-33.30,19.45
13402,6.02,-30.45,-44.92,487.793,-608.887,633.301,2.10,0.15,-32.55,19.26
13412,-3.30,-39.37,-48.47,247.559,-938.965,1398.926,2.55,-1.05,-33.15,19.21
13422,-7.54,-29.07,-60.36,-911.621,-26.367,658.203,2.85,-0.45,-32.25,19.45
13432,18.72,-33.60,-42.03,458.496,-1285.156,-836.914,1.80,0.30,-31.95,19.55
13442,-5.80,-27.81,-46.82,-693.359,-1050.293,1901.855,1.80,0.30,-31.95,19.64
13452,10.05,-25.27,-50.62,401.367,-1470.703,377.441,2.40,-0.15,-32.55,19.40
13464,-0.98,-11.63,-54.43,363.281,-1710.938,-606.934,3.00,-0.30,-31.65,19.55
13474,0.58,-19.39,-48.36,-825.684,-403.809,1542.480,1.80,-0.30,-32.70,19.36
13484,2.50,-16.10,-49.65,-142.090,-728.516,418.945,1.80,-0.30,-32.70,19.45
13494,9.02,5.20,-40.20,-112.305,-635.254,851.074,1.80,-0.30,-32.70,19.21
13504,-7.64,13.82,-47.95,-664.062,-783.203,1999.939,2.55,-0.75,-33.45,19.40
13514,-13.43,24.82,-45.85,-486.816,-121.094,825.195,2.40,1.65,-33.00,19.45
13524,-13.86,5.73,-53.75,112.305,-547.852,37.598,3.60,-0.15,-33.75,19.40
13536,-11.45,18.19,-42.50,-34.668,-1236.328,854.004,3.45,1.95,-28.20,19.36
13546,-9.65,27.52,-56.47,-179.687,-359.375,1132.813,3.45,1.95,-28.20,19.40
13556,13.85,18.05,-48.15,-267.090,-1048.340,33.691,4.50,3.45,-27.90,19.40
13566,29.83,37.73,-33.14,-94.238,-602.051,1371.582,4.50,3.45,-27.90,19.40
13575,14.34,27.69,-52.15,169.922,-902.832,926.270,4.50,3.45,-27.90,19.40
13585,4.86,13.66,-54.45,-254.883,-600.098,800.781,5.55,0.90,-33.75,19.64
13594,10.18,9.10,-51.67,-83.496,-1057.617,1384.277,3.45,-0.30,-33.15,19.45
13606,-1.10,-8.97,-54.94,-123.535,-231.934,1393.066,7.20,-38.40,-33.00,19.55
13616,0.17,-8.00,-53.42,-56.641,-540.039,1276.855,7.20,0.00,-33.15,19.45
13626,8.16,-1.89,-42.56,232.422,-386.230,830.078,7.20,0.00,-33.15,19.45
13636,11.50,-9.04,-56.66,-395.996,36.133,1251.465,6.45,0.00,-33.90,19.55
13645,16.75,-8.80,-58.09,-39.551,-805.176,756.348,6.45,0.00,-33.90,19.26
13655,4.21,0.05,-54.11,-207.031,-503.906,658.691,6.90,0.00,-33.15,19.40
13664,5.40,-2.50,-51.46,-270.020,-269.043,1603.516,6.15,0.00,-33.45,19.36
13676,13.56,3.26,-49.45,160.645,-757.812,662.109,6.15,0.00,-33.45,19.40
13686,10.85,0.40,-47.98,-765.137,-705.078,1000.977,7.65,0.00,-33.90,19.26
13695,1.39,9.45,-42.50,-309.082,-870.117,954.102,6.45,0.00,-34.20,19.40
13705,-8.01,3.41,-41.25,21.973,-634.277,21.484,8.55,0.45,-33.00,19.40
13714,-10.22,7.52,-48.27,189.941,-183.105,853.027,7.95,-0.75,-33.90,19.36
13724,-5.03,0.48,-39.95,-41.016,-712.402,823.242,7.95,-0.75,-33.90,19.26
13734,-5.65,6.05,-44.35,-247.559,-304.199,703.613,8.70,0.30,-33.90,19.55
13745,6.16,3.93,-41.08,-135.742,-726.074,1370.117,9.15,-0.30,-34.95,19.45
13755,4.44,7.90,-40.92,-330.078,-388.672,1185.547,9.15,-0.30,-34.95,19.40
13765,1.59,4.03,-48.07,251.465,-522.949,585.449,9.30,-0.15,-33.30,19.55
13775,2.79,-4.40,-46.15,-59.082,-583.008,1090.332,8.70,0.30,-34.95,19.45
13785,3.76,-2.42,-47.75,-234.375,-385.254,1294.922,8.55,-0.15,-34.80,19.40
13795,-5.37,-0.65,-45.08,-87.402,-625.977,709.961,9.60,-1.05,-34.20,19.36
13805,-2.09,-0.53,-49.17,-227.051,-288.086,1646.484,9.60,-1.05,-34.20,19.40
13817,2.63,-4.88,-45.74,164.062,-521.973,1067.871,10.95,-1.65,-34.80,19.12
13827,11.73,0.46,-43.76,-186.035,-853.027,1659.668,9.60,-1.65,-34.80,19.45
13837,-1.92,1.95,-48.37,-350.098,-767.578,946.289,10.95,-2.10,-35.55,19.45
13851,4.65,2.66,-44.03,401.855,-682.617,954.590,10.95,-2.10,-35.55,19.40
13861,-1.11,-1.10,-42.33,-110.352,-676.270,1591.309,9.75,-0.15,-34.80,19.12
13873,-1.99,1.95,-44.95,-144.531,-346.191,985.840,10.05,-1.65,-32.55,19.40
13883,-0.95,-0.76,-53.22,-425.293,-86.426,1808.105,11.25,-0.15,-34.80,19.12
13893,-5.56,-2.23,-47.46,175.781,-281.738,559.570,10.50,-0.45,-34.50,19.40
13903,1.31,-3.11,-43.38,30.762,-370.605,1591.797,10.50,-0.45,-34.50,19.64
13913,0.25,-2.53,-41.56,-411.621,159.180,1999.939,11.85,-1.05,-33.45,19.45
13923,3.13,-11.45,-48.09,229.980,-526.367,351.562,13.20,-1.35,-34.50,19.55
13933,7.59,-4.73,-42.10,-12.695,-582.031,1177.246,13.20,-1.35,-34.50,19.40
13945,5.24,-5.47,-38.56,182.617,-277.344,908.691,12.45,-0.45,-34.05,19.64
13955,4.88,-11.55,-46.18,-426.758,-119.629,899.902,12.45,-2.55,-34.80,19.45
13965,6.14,-7.90,-44.28,35.645,-453.613,429.199,12.00,-2.10,-33.75,19.07
13975,8.51,-5.18,-45.02,64.453,-1447.754,1065.430,13.50,-0.45,-33.00,19.45
13985,-12.78,-2.81,-31.87,-134.766,-1305.176,1999.939,13.50,-0.45,-33.00,19.40
13995,-3.14,-15.27,-41.85,121.094,-611.328,458.984,12.60,-1.05,-34.95,19.40
14005,5.76,-6.27,-44.27,-9.766,-658.203,1140.137,13.95,-2.85,-33.30,19.45
14017,0.32,-3.57,-47.49,21.484,-579.102,638.184,14.70,-1.65,-36.30,19.55
14027,-4.23,6.03,-40.63,-812.988,-153.809,957.031,13.35,-0.75,-35.40,19.55
14037,32.43,31.45,-250.14,-126.953,-796.875,1041.016,13.35,-0.75,-35.40,19.64
14047,-0.18,1.27,-3.53,481.445,-661.133,910.156,14.55,-2.70,-34.65,19.36
14057,-2.93,3.09,-29.98,-507.812,-40.527,937.500,14.55,-1.95,-34.20,19.55
14067,-2.05,1.15,-43.27,207.031,-772.949,219.238,14.55,-2.70,-35.70,19.45
14079,-4.69,3.53,-43.97,40.039,-738.770,1727.051,14.70,-1.65,-36.00,19.60
14089,-0.60,-2.27,-39.04,529.785,-866.211,34.180,14.55,-3.45,-34.95,19.45
14099,0.36,-1.34,-39.42,-404.297,-376.953,522.461,15.45,-2.85,-34.05,19.26
14109,11.17,-5.25,-43.90,-20.020,-480.469,1528.320,15.45,-2.85,-34.05,19.64
14119,-1.05,8.07,-40.69,46.875,-699.707,714.844,15.45,-3.30,-36.30,19.55
14129,-6.89,7.79,-49.01,-728.516,-279.785,829.102,16.20,-2.10,-34.50,19.36
14139,1.82,4.64,-36.85,113.770,-729.004,934.570,14.85,-4.35,-34.65,19.64
14151,2.40,4.62,-42.80,48.828,-352.051,1887.695,14.40,-2.10,-35.25,19.36
14161,-3.38,5.08,-45.95,160.645,-648.926,251.465,14.40,-2.10,-35.25,19.40
14171,7.07,4.21,-49.27,-159.180,-348.145,1016.602,14.10,-3.90,-35.40,19.64
14181,8.40,1.19,-46.00,-718.750,-625.977,1999.939,16.05,-2.25,-37.35,19.64
14191,-0.02,4.74,-49.21,333.984,-552.734,618.164,17.85,-4.50,-34.50,19.45
14201,-17.05,1.32,-39.55,557.617,-1193.359,1275.879,16.50,-4.35,-36.60,19.55
14211,-10.16,-1.53,-45.80,-840.332,-431.152,1786.133,16.50,-4.35,-36.60,19.12
14223,-1.22,-0.87,-51.38,-943.848,202.637,1060.547,15.90,-5.25,-34.05,19.40
14233,7.15,-0.26,-46.92,1226.563,-678.223,447.266,16.20,-5.25,-35.25,19.21
14243,-9.69,2.54,-57.39,-809.082,290.039,502.930,16.50,-3.15,-34.20,19.45
14253,7.72,-2.34,-41.85,230.957,-659.668,678.223,16.20,-5.25,-35.25,19.64
14263,-1.40,1.85,-48.24,-228.027,-237.793,1052.734,16.20,-5.25,-35.25,19.40
14273,4.76,-3.92,-50.26,-317.871,-685.547,1456.055,17.55,-6.30,-34.65,19.40
14283,9.57,9.07,-26.40,513.184,-728.516,-115.723,16.50,-5.85,-35.40,19.40
14294,-4.47,-2.99,-46.59,-31.738,-547.363,1920.410,16.50,-5.85,-35.40,19.36
14304,-0.82,-0.68,-50.11,212.891,-635.254,454.102,15.75,-6.30,-34.20,19.26
14314,-7.47,-1.85,-38.84,-545.410,-460.449,714.355,17.40,-5.25,-36.30,19.40
14324,15.34,0.05,-46.44,361.816,-704.590,-701.660,18.00,-4.65,-35.70,19.55
14334,13.20,11.71,-43.24,239.746,-406.250,1501.465,18.00,-7.05,-34.95,19.74
14344,7.73,0.30,-36.51,-656.250,-923.340,1999.939,18.00,-7.05,-34.95,19.40
14356,-1.34,8.51,-39.33,-331.543,-871.094,1175.781,18.60,-4.05,-35.25,19.40
14370,3.18,6.20,-43.43,-485.352,-808.105,1979.492,18.75,-6.30,-37.35,19.40
14380,-4.89,7.76,-43.08,392.090,-1011.719,139.648,18.90,-6.45,-34.80,19.21
14390,3.03,7.08,-44.44,-326.660,-946.777,617.187,18.90,-6.45,-34.80,19.64
14400,5.50,-0.59,-40.17,144.043,-399.414,1999.939,19.65,-4.95,-35.25,19.64
14410,5.22,-0.14,-46.93,238.770,-763.184,870.605,19.65,-6.90,-35.55,19.26
14420,-9.11,-4.31,-46.20,-280.273,-609.863,1936.035,20.10,-6.45,-37.05,19.55
14430,-7.30,-5.88,-45.53,-216.309,-388.672,1286.621,19.50,-5.85,-36.60,19.36
14442,-6.28,-10.35,-45.47,-830.078,-86.914,1999.939,19.50,-5.85,-36.60,19.60
14452,12.70,-7.92,-42.83,708.496,-1226.074,-168.457,19.65,-5.70,-35.55,19.40
14462,-0.34,-3.83,-47.24,-471.680,-22.461,993.652,19.20,-7.95,-36.60,19.74
14472,-5.67,-10.15,-45.62,47.363,-441.895,1999.939,19.65,-8.55,-36.75,19.60
14482,2.59,2.94,-47.92,717.773,-220.215,690.430,20.55,-6.90,-36.00,19.55
14492,-4.32,-5.60,-43.43,-899.414,288.086,336.914,21.45,-7.95,-36.15,19.88
14502,5.15,-5.82,-38.92,276.367,-664.062,-560.547,19.95,-9.15,-36.15,19.55
14514,8.92,-8.20,-36.34,931.641,-672.852,489.258,19.95,-6.75,-37.35,19.40
14524,8.21,-0.55,-43.50,331.055,-740.723,496.094,19.95,-6.75,-37.35,19.40
14534,-12.64,-3.50,-43.01,-865.723,-623.535,1999.939,19.65,-7.65,-36.30,19.07
14544,5.94,-1.44,-39.34,207.031,-148.926,159.180,21.90,-7.50,-36.15,19.40
14554,-7.07,8.58,-40.37,-36.133,150.391,794.434,20.25,-8.25,-35.70,19.26
14564,13.89,-7.34,-37.57,-619.629,-317.383,1935.547,21.30,-7.35,-36.30,19.60
14574,16.78,2.73,-34.70,679.687,-606.445,-41.016,21.30,-7.35,-36.30,19.60
14586,20.98,-4.77,-34.73,366.211,-824.219,-181.152,20.85,-9.30,-35.25,19.45
14596,5.00,6.84,-37.79,-138.672,-404.785,1280.273,21.00,-9.15,-37.35,19.55
14606,8.60,4.95,-38.22,41.992,-980.957,1999.939,21.90,-9.15,-35.70,19.55
14616,-7.47,8.61,-34.54,243.652,-473.633,866.699,22.80,-10.50,-36.75,19.07
14626,-18.04,11.95,-34.56,-551.758,-139.648,1256.348,22.80,-10.50,-36.75,19.55
14636,-23.08,5.28,-34.67,422.363,-307.129,988.770,20.85,-10.50,-36.00,19.45
14648,3.08,2.90,-33.48,23.926,-669.922,1999.939,22.95,-9.90,-37.65,19.45
14658,6.28,9.70,-33.21,122.559,-1123.535,583.008,21.00,-8.70,-38.10,19.45
14668,-18.21,2.19,-46.42,-662.598,-17.090,1068.359,22.05,-10.95,-36.75,19.64
14678,10.79,2.98,-41.40,718.750,-1079.102,-229.492,20.10,-9.30,-37.50,19.36
14688,-3.89,18.69,-32.89,543.945,-231.445,910.156,21.45,-9.90,-36.60,19.55
14698,-10.16,-3.97,-45.39,-579.102,-900.879,1999.939,21.30,-10.95,-37.80,19.26
14708,4.86,2.39,-46.79,395.996,-1198.242,-148.926,21.30,-10.95,-37.80,19.45
14720,8.15,1.71,-36.00,408.203,-873.047,77.637,22.35,-11.25,-37.80,19.12
14730,-0.60,3.98,-42.78,-260.742,-182.129,826.660,22.05,-10.50,-37.05,19.40
14740,-4.46,0.76,-44.69,415.527,-278.320,623.047,22.20,-11.85,-37.35,19.60
14750,8.08,4.33,-50.47,233.887,-648.437,333.008,22.20,-11.85,-37.35,19.64
14759,-9.10,4.82,-49.08,-454.590,-270.508,-336.914,22.20,-11.85,-37.35,19.60
14769,3.36,0.34,-41.16,483.398,188.477,1180.664,22.35,-10.50,-36.75,19.26
14778,27.74,10.02,-50.63,565.918,-800.781,-160.156,24.15,-12.30,-36.15,19.55
14790,15.56,5.81,-34.43,393.066,-1178.223,-5.859,22.95,-11.55,-37.65,19.55
14800,-6.11,7.33,-33.18,-411.621,-46.875,840.820,22.95,-11.55,-37.65,19.40
14810,2.62,4.21,-33.81,370.605,-1513.184,465.820,23.25,-12.45,-38.25,19.45
14820,-9.11,2.73,-54.75,199.219,-466.797,1225.098,23.40,-12.30,-37.35,19.40
14830,-9.18,3.39,-40.39,145.508,-995.605,1839.844,24.00,-13.65,-38.55,19.36
14840,-8.11,-5.33,-41.54,196.289,-199.219,959.473,23.25,-14.10,-38.25,19.36
14854,-25.24,-12.89,-55.76,-1098.145,548.828,895.996,23.25,-14.10,-38.25,19.55
14863,9.74,-14.36,-56.81,1108.398,-738.770,-538.086,22.95,-15.00,-37.35,19.74
14873,1.23,-0.24,-46.78,-1276.855,-242.187,995.117,24.15,-14.70,-38.10,19.36
14896,23.17,2.79,-51.21,566.406,-788.086,-321.289,22.80,-15.30,-37.05,19.12
14905,-9.44,-5.89,-39.84,-1101.074,535.645,516.113,22.35,-14.40,-38.25,19.55
14915,24.51,6.07,-42.67,811.523,-1344.238,-1077.637,23.70,-13.80,-38.40,19.60
14925,-12.15,18.84,-46.56,-228.516,-388.672,194.336,23.25,-16.05,-36.00,19.45
14937,-20.05,8.76,-41.29,-395.996,-416.992,815.430,23.25,-16.05,-36.00,19.40
14947,-10.38,-3.38,-34.04,112.305,-550.293,1999.939,23.55,-14.40,-37.50,19.45
14957,-20.24,5.95,-43.55,234.863,-413.574,1479.492,24.00,-16.80,-38.25,19.60
14967,-10.01,-2.71,-36.23,-330.566,-294.922,1999.939,23.70,-14.70,-39.90,19.45
14977,6.46,-3.36,-38.65,509.277,-582.520,322.266,24.75,-16.05,-38.55,19.36
14987,0.27,-13.76,-33.11,-884.766,-107.910,1999.939,24.75,-16.05,-38.55,19.60
14999,-5.41,-1.43,-50.40,-1577.637,516.602,669.434,23.40,-15.00,-38.10,19.45
15009,19.36,-0.60,-37.76,602.051,-812.988,-559.082,24.30,-14.85,-37.05,19.26
15019,6.79,4.89,-49.53,-313.965,-324.707,297.363,24.75,-17.25,-38.25,19.64
15029,5.92,-3.31,-49.02,641.602,-1532.715,174.805,23.55,-15.60,-39.75,19.40
15039,-10.56,1.52,-55.67,-43.457,-97.656,362.793,23.55,-15.60,-39.75,19.55
15049,-6.75,-4.17,-35.68,124.023,-550.293,1821.289,25.05,-17.25,-37.80,19.55
15059,0.60,10.87,-39.81,464.844,-204.590,1003.906,23.70,-17.10,-39.60,19.40
15071,11.42,1.40,-34.95,221.191,-568.848,1215.332,24.90,-19.05,-37.65,19.36
15081,-7.88,-4.63,-41.42,-232.422,-857.422,1999.939,24.60,-17.10,-39.15,19.40
15091,11.87,1.35,-39.18,205.078,-583.008,648.926,24.15,-18.30,-36.90,19.40
15101,-19.41,1.57,-57.08,-532.715,-729.492,1999.939,24.75,-18.45,-38.55,19.45
15111,8.49,1.50,-42.11,558.594,-328.613,875.977,24.75,-18.45,-38.55,19.45
15121,-16.01,-7.96,-46.47,-924.316,-612.793,1999.939,24.30,-18.45,-38.55,19.64
15131,4.35,-1.59,-35.87,-107.910,-721.680,823.242,23.70,-17.85,-38.85,19.55
15143,0.81,-2.57,-38.94,300.293,-788.086,347.168,25.05,-17.70,-38.55,19.55
15153,-18.91,-2.44,-40.38,-960.937,-291.504,1999.939,24.60,-19.05,-38.40,19.64
15163,-1.52,6.83,-37.17,566.406,-721.680,-382.324,24.60,-19.05,-38.40,19.55
15173,-6.44,14.32,-49.18,-658.203,130.859,940.918,23.40,-18.60,-39.15,19.40
15183,10.57,4.39,-44.78,1336.426,-1030.273,-905.273,25.50,-19.65,-38.55,19.55
15193,-4.51,13.23,-43.26,-377.930,-11.719,1064.941,25.50,-18.45,-40.05,19.55
15205,-13.64,5.48,-45.76,-633.301,-637.695,712.402,24.60,-19.50,-39.15,19.55
15215,104.50,42.26,-250.14,507.324,-602.539,692.871,24.60,-19.50,-39.15,19.55
15225,-14.73,4.24,-62.44,-375.000,140.625,1083.496,25.65,-20.25,-40.35,19.60
15235,7.56,1.01,-27.53,923.828,-1097.656,141.113,24.60,-19.50,-39.90,19.55
15244,8.82,4.50,-34.51,160.645,-689.453,451.660,25.05,-21.60,-39.00,19.64
15254,-8.31,-2.89,-42.78,-204.102,-1238.770,1999.939,25.50,-21.60,-40.50,19.55
15264,9.23,-0.78,-53.08,-534.668,-198.730,1341.797,24.30,-20.10,-40.50,19.60
15276,5.89,-1.47,-61.56,-586.426,-137.207,747.559,23.70,-21.90,-39.15,19.60
15286,7.86,-6.29,-48.15,820.801,-1230.469,1146.484,25.35,-23.10,-39.15,19.36
15296,2.98,3.79,-46.85,-529.785,-52.734,1999.939,25.35,-23.10,-39.15,19.60
15306,6.92,-3.03,-37.60,788.574,-1444.336,28.320,26.10,-21.90,-39.15,19.45
15316,-6.89,6.83,-42.72,-867.676,-15.137,1333.496,25.50,-24.00,-39.00,19.21
15326,4.02,-3.43,-54.20,989.258,-1335.938,863.281,24.75,-22.05,-39.00,19.64
15338,4.74,0.37,-42.90,1073.242,-1070.313,66.406,25.05,-22.05,-39.00,19.26
15348,-16.24,3.44,-44.40,-879.395,-33.203,373.535,25.05,-22.05,-39.00,19.60
15358,11.97,-4.78,-39.41,1282.227,-1246.094,-140.625,24.30,-22.05,-39.75,19.60
15368,-11.91,1.66,-48.74,-992.676,-263.672,922.363,25.05,-23.25,-39.00,19.55
15378,7.27,-7.42,-37.26,555.664,-895.020,-454.590,24.90,-24.30,-38.85,19.60
15388,-7.92,5.97,-51.63,-945.801,-32.715,381.348,25.05,-23.25,-39.75,19.40
15398,12.03,-0.29,-42.09,725.586,-682.617,-545.410,25.05,-23.25,-39.75,19.36
15415,-3.60,4.14,-60.79,-146.973,47.363,1999.939,23.40,-24.30,-40.65,19.55
15425,8.88,-2.05,-47.90,1030.273,-1444.824,792.480,24.15,-23.40,-39.90,19.26
15435,-7.10,6.35,-43.44,-1161.133,-143.066,916.016,25.05,-24.90,-39.00,19.79
15445,7.18,-9.48,-44.55,969.727,-1182.129,633.301,25.05,-24.90,-39.00,19.60
15455,-16.78,-4.15,-52.35,-1062.988,456.543,898.437,24.60,-24.30,-39.90,19.64
15467,-17.55,-2.02,-62.36,-1001.953,-112.793,481.445,24.15,-23.85,-39.60,19.60
15477,16.89,-13.91,-46.61,967.285,-1237.793,120.605,24.15,-23.85,-39.60,19.45
15487,-4.79,-4.50,-42.78,-886.719,84.473,955.078,22.80,-24.45,-40.50,19.26
15497,24.28,2.17,-34.39,534.668,-710.937,-428.711,23.25,-27.15,-38.55,19.64
15507,-17.82,-4.54,-49.14,-438.477,-339.844,1393.066,22.80,-24.90,-39.30,19.45
15517,15.19,-2.20,-43.65,145.020,-578.613,732.422,23.70,-24.30,-39.15,19.45
15527,-5.84,1.69,-37.21,-165.527,-390.137,1561.035,23.70,-24.30,-39.15,19.55
15539,-15.05,2.70,-52.72,-213.867,-1128.418,1999.939,22.95,-26.25,-39.90,19.55
15549,11.37,5.63,-36.73,16.113,-582.520,875.000,22.05,-25.20,-40.05,19.74
15559,-7.60,-1.16,-44.78,59.082,-1443.359,1999.939,22.80,-28.05,-39.00,19.21
15569,-2.99,7.22,-34.02,-547.363,-361.816,1038.086,23.70,-27.45,-39.60,19.55
15579,0.61,-1.37,-38.83,1013.672,-1127.930,1406.738,23.70,-27.45,-39.60,19.55
15589,-0.17,-1.60,-40.89,-727.051,66.895,1554.199,22.95,-26.55,-39.60,19.21
15599,17.35,-4.80,-37.40,934.570,-1338.379,102.051,24.15,-27.75,-40.35,19.64
15611,5.32,-4.32,-66.14,586.426,-1292.969,45.898,21.90,-27.00,-39.60,19.55
15621,-14.47,3.44,-40.31,-424.805,-155.273,1458.496,21.90,-27.00,-39.60,19.55
15631,9.79,-7.85,-44.11,487.793,-1451.660,-162.598,21.90,-27.00,-39.60,19.40
15641,-22.76,-2.10,-41.82,-1224.609,73.730,902.344,22.05,-27.60,-40.80,19.60
15651,7.34,-2.23,-54.34,560.547,-1087.402,-455.566,22.80,-28.05,-39.30,19.60
15661,-17.30,-4.81,-47.15,-1285.156,586.914,920.898,22.80,-28.05,-39.30,19.36
15673,0.08,3.74,-45.27,456.055,-312.988,240.234,22.65,-28.65,-39.90,19.64
15683,13.02,-3.60,-46.25,-202.148,-364.258,763.184,22.35,-28.80,-40.05,19.64
15693,8.38,-2.56,-40.92,352.539,-854.492,931.641,21.30,-28.35,-40.50,19.36
15703,-6.92,-1.11,-39.15,-1017.578,-119.141,1323.730,21.30,-28.35,-40.50,19.45
15713,12.51,-9.15,-37.11,583.496,-1304.688,556.152,22.05,-28.80,-40.05,19.36
15723,-35.05,-10.79,-48.59,-687.012,165.527,1314.453,20.85,-30.45,-40.50,19.55
15733,17.08,-12.89,-62.63,231.445,-514.648,384.277,21.90,-27.45,-39.90,19.45
15745,7.76,-4.77,-54.53,-190.918,-590.332,1026.855,22.20,-30.60,-38.85,19.60
15755,-4.43,-0.65,-31.11,509.277,-1148.438,1244.629,22.20,-30.60,-38.85,19.60
15765,12.01,0.18,-35.63,-647.461,-447.266,1300.293,21.60,-29.25,-40.05,19.36
15775,-0.29,-9.39,-38.63,677.246,-790.039,1999.939,21.00,-30.15,-39.60,19.21
15785,2.58,10.09,-37.86,-615.234,340.332,1999.939,22.80,-29.25,-40.50,19.64
15795,12.47,-3.62,-44.18,-48.828,-1681.641,1999.939,21.30,-30.00,-40.80,19.60
15807,5.50,-0.73,-48.66,323.730,-1294.922,435.547,21.30,-30.00,-40.80,19.55
15817,-20.25,4.79,-38.60,-959.473,-167.480,1273.926,20.55,-30.45,-40.50,19.79
15827,2.79,1.75,-42.22,629.395,-1103.516,162.109,21.00,-28.65,-40.65,19.40
15836,3.05,3.74,-50.27,-577.148,-134.766,1581.055,21.00,-28.65,-40.65,19.07
15846,6.96,-5.76,-33.06,409.668,-658.203,1979.492,20.55,-32.85,-42.00,19.64
15856,8.66,-0.58,-42.98,-491.211,-202.637,1962.402,21.30,-31.20,-39.75,19.74
15866,22.74,-1.85,-32.90,462.402,-1043.945,1838.867,20.25,-31.80,-40.65,19.64
15878,28.55,-7.36,-18.98,864.746,-1457.031,-316.895,19.35,-31.65,-39.75,19.40
15888,-19.79,-3.72,-31.32,-1186.523,-307.617,1625.977,19.35,-31.65,-39.75,19.60
15898,11.38,-7.42,-49.04,540.527,-768.555,-453.125,21.00,-31.35,-40.35,19.55
15908,-15.76,-11.04,-26.31,22.461,-824.707,1206.543,18.90,-33.15,-39.30,19.40
15918,0.02,-2.46,-55.28,-185.547,-194.824,945.801,19.50,-31.35,-42.15,19.45
15932,2.93,-4.25,-56.24,636.719,-907.715,1303.223,20.10,-30.75,-39.30,19.55
15942,-10.04,7.02,-67.08,-1044.434,123.535,1568.359,20.10,-30.75,-39.30,19.74
15954,-2.91,-0.37,-36.63,-1272.461,346.191,854.004,19.20,-31.80,-38.85,19.36
15964,11.97,-4.89,-47.99,438.965,-1332.031,8.789,21.00,-31.35,-39.15,19.55
15974,-16.82,5.79,-44.89,-711.426,-623.535,1350.586,19.95,-33.75,-40.35,19.64
15984,8.41,2.55,-36.53,-163.574,-836.914,-77.637,19.95,-33.75,-40.35,19.40
15994,-8.27,2.72,-51.50,360.352,-523.926,1101.074,18.90,-31.65,-40.50,19.40
16004,-2.21,-1.28,-46.63,-197.754,133.789,937.012,19.95,-33.45,-40.65,19.55
16014,11.86,-6.34,-42.92,940.918,-948.730,1467.773,19.95,-33.45,-40.35,19.64
16026,-0.81,-4.34,-42.35,1088.379,-854.980,1508.301,18.15,-32.85,-39.75,19.45
16036,-3.13,2.02,-49.11,-739.746,162.598,1276.367,18.15,-32.85,-39.75,19.64
16046,15.57,-3.26,-53.56,923.340,-1045.898,-52.246,19.50,-33.75,-40.35,19.40
16056,-21.53,-4.49,-50.82,-275.879,-523.926,1649.902,19.35,-34.05,-38.25,19.60
16066,5.23,-5.53,-46.93,301.758,-608.887,595.703,19.35,-34.05,-38.25,19.60
16076,-2.77,-2.96,-37.39,167.969,-2000.000,1999.939,18.45,-32.55,-38.40,19.40
16088,-5.15,-2.10,-67.34,1323.242,-1017.090,1093.262,17.85,-32.85,-37.80,19.40
16098,-4.21,5.89,-13.63,-329.590,411.621,1626.465,18.75,-35.40,-38.85,19.40
16108,27.54,-0.47,-40.42,537.109,-1309.082,1219.727,17.85,-34.80,-39.00,19.45
16118,-1.13,-0.98,-49.31,-230.469,-686.035,1916.016,17.85,-34.80,-39.00,19.55
16128,15.36,4.11,-40.58,-276.855,-505.859,658.203,17.55,-34.65,-38.85,19.40
16138,4.02,-0.52,-30.60,499.512,-1233.887,-275.879,18.90,-35.25,-39.75,19.40
16148,-8.73,-1.32,-45.92,-1203.613,163.086,1108.398,17.10,-34.05,-38.25,19.60
16160,-7.95,0.97,-47.41,-905.273,-51.270,1999.939,17.55,-34.65,-38.40,19.55
16170,10.60,5.31,-52.78,182.129,-901.855,857.910,17.55,-34.65,-38.40,19.45
16179,-3.12,-1.23,-34.92,-560.059,-247.070,1574.219,16.05,-33.75,-39.15,19.55
16189,14.53,-1.18,-36.68,1048.340,-1004.883,1999.939,16.05,-34.65,-39.60,19.40
16199,1.57,-1.39,-31.68,200.195,-566.895,1648.438,16.05,-35.85,-39.15,19.64
16209,1.47,-8.50,-39.27,-657.227,-770.996,897.461,14.85,-35.40,-39.90,19.60
16221,-5.79,-0.05,-41.33,-513.184,-106.445,63.965,14.85,-35.40,-39.90,19.64
16231,6.97,0.37,-32.53,813.477,-906.738,-7.324,15.75,-35.40,-37.65,19.64
16241,-14.47,-0.97,-36.56,-1421.387,59.082,1999.939,17.10,-35.55,-38.55,19.40
16251,16.31,-1.73,-33.50,118.652,-765.137,1536.621,15.75,-33.45,-39.90,19.40
16261,-1.30,-0.21,-39.95,-68.359,-667.480,1999.939,16.05,-36.15,-38.10,19.64
16271,0.66,-2.76,-43.12,-701.660,-455.566,521.973,16.65,-35.25,-38.55,19.64
16281,9.05,-1.52,-28.92,616.211,-778.809,531.738,15.75,-34.20,-38.40,19.36
16293,12.27,-2.25,-32.82,498.047,-1095.703,557.129,16.20,-35.55,-37.05,19.60
16303,-10.41,-7.25,-37.55,-1018.066,-415.527,1999.939,16.20,-35.55,-37.05,19.74
16313,12.27,-6.66,-55.30,-537.598,-317.871,1377.930,16.05,-35.40,-38.40,19.55
16323,8.87,-8.27,-58.21,634.277,-783.691,127.930,15.30,-36.60,-39.15,19.40
16333,-7.76,-7.98,-36.31,-942.871,-595.215,951.172,14.40,-37.20,-37.80,19.40
16343,5.73,-4.11,-34.56,17.090,-769.531,1773.926,14.85,-35.40,-39.60,19.79
16353,5.21,3.20,-39.89,-719.727,-487.793,1999.939,14.85,-35.40,-39.60,19.55
16365,0.50,1.33,-46.70,680.664,-990.723,1186.035,14.40,-37.65,-38.55,19.40
16375,-8.63,-0.41,-50.56,-443.848,-627.441,624.023,13.50,-35.25,-37.80,19.79
16385,-7.70,1.18,-30.56,235.352,-1011.719,501.953,14.70,-35.55,-37.80,19.45
16395,-3.73,0.02,-38.44,-1015.137,-166.016,1999.939,14.70,-35.55,-37.80,19.36
16405,14.34,-6.62,-49.11,195.312,-287.598,958.008,14.70,-35.25,-38.55,19.26
16415,19.46,-1.69,-35.01,904.297,-1525.879,1086.914,14.10,-37.35,-38.40,19.21
16427,-2.47,-4.37,-41.50,-110.840,-688.965,650.391,14.40,-37.20,-37.50,19.40
16437,-10.01,0.27,-49.33,-449.219,-95.703,1356.934,14.10,-37.05,-37.65,19.21
16451,0.05,-0.05,-46.18,-509.277,44.922,646.973,14.10,-37.05,-37.65,19.64
16461,-3.02,6.60,-31.04,379.883,-488.770,500.977,14.10,-36.60,-37.35,19.74
16471,-6.80,8.83,-38.40,-693.359,500.977,418.457,12.60,-35.40,-37.35,19.60
16481,11.67,2.37,-41.76,69.336,-810.059,1773.438,12.60,-35.40,-37.35,19.40
16491,2.73,5.64,-48.30,-135.742,-666.992,1999.939,13.95,-37.65,-36.75,19.64
16501,5.15,-0.45,-42.78,-364.746,-808.594,458.984,13.80,-38.25,-38.40,19.40
16513,1.53,6.79,-48.94,-24.414,-541.504,235.840,13.05,-35.40,-38.85,19.55
16523,-1.63,-3.11,-38.93,453.125,-1048.340,550.781,13.20,-36.75,-38.25,19.64
16533,-17.94,1.12,-44.54,-405.762,-99.609,617.676,13.20,-36.75,-38.25,19.36
16543,-5.07,-0.89,-31.27,20.996,-720.215,1495.117,12.75,-35.55,-39.75,19.64
16553,-10.14,-3.15,-37.62,-19.531,-438.477,1844.727,12.30,-37.05,-38.40,19.64
16563,-2.56,-0.37,-32.69,-333.984,-429.199,969.727,12.75,-37.20,-39.30,19.36
16575,-3.21,0.51,-36.75,-569.336,-23.926,1096.680,13.05,-37.35,-38.85,19.45
16585,15.79,0.12,-41.21,646.973,-806.641,149.414,13.50,-36.75,-36.75,19.45
16595,-1.24,7.24,-43.69,-510.254,126.953,375.000,12.00,-37.95,-39.00,19.55
16605,16.49,9.32,-47.24,209.961,-852.539,457.520,12.00,-36.45,-75.45,19.64
16615,-5.40,0.24,-45.06,4.883,-907.227,980.957,13.05,-37.80,-36.90,19.45
16625,-6.89,0.83,-37.53,-587.402,-238.770,510.742,13.05,-37.80,-36.90,19.64
16635,-3.68,-0.50,-40.98,435.059,-441.895,582.031,12.60,-36.60,-36.90,19.55
16647,16.06,-9.48,-40.24,633.789,-1159.668,460.937,12.60,-38.25,-36.60,19.64
16657,2.78,4.50,-53.60,-431.641,-257.812,1330.566,11.85,-37.80,-36.90,19.55
16667,19.62,6.37,-46.97,-279.297,-916.016,1073.242,10.95,-36.45,-37.80,19.36
16677,10.77,-3.97,-41.67,267.090,-817.383,846.191,10.65,-38.25,-37.35,19.45
16687,5.99,5.55,-48.92,-824.707,-68.848,451.172,12.00,-37.95,-36.75,19.55
16697,5.05,2.95,-40.66,637.695,-1333.496,1045.410,11.85,-37.35,-38.10,19.60
16706,7.47,-2.63,-45.82,104.492,-554.199,449.707,11.85,-37.35,-38.10,19.64
16718,-11.52,-0.93,-50.47,-219.727,-139.648,255.371,10.50,-39.15,-36.00,19.60
16728,-3.21,-12.94,-49.35,740.723,-381.348,1909.180,11.10,-38.25,-38.10,19.55
16738,-17.78,-6.95,-47.73,-773.437,22.461,1106.934,11.10,-37.35,-38.85,19.36
16748,14.99,-4.60,19.18,-97.656,-288.574,1280.273,9.90,-39.30,-35.70,19.64
16758,4.22,-5.70,-39.87,-382.324,-787.598,1861.328,9.90,-39.30,-35.70,19.64
16768,6.47,-6.82,-43.19,-873.535,-568.359,135.254,9.15,-37.35,-37.65,19.36
16780,12.08,-3.44,-49.73,-622.070,-427.246,866.699,11.25,-37.20,-36.30,19.55
16790,19.81,2.71,-42.01,337.891,-757.324,1850.098,9.60,-39.30,-36.90,19.40
16800,-14.89,9.81,-36.62,-286.133,-712.891,1376.953,9.15,-37.35,-37.35,19.45
16810,8.43,1.85,-36.56,-489.746,-184.570,572.266,9.15,-37.35,-37.35,19.55
16820,-6.06,-6.10,-13.72,642.090,-480.469,370.117,9.60,-39.30,-35.70,19.40
16830,-11.49,6.15,-36.52,-530.273,163.086,1572.754,9.30,-39.60,-36.00,19.55
16840,15.37,11.15,-34.50,-158.691,-559.570,739.746,9.75,-37.65,-37.05,19.74
16852,11.96,5.62,-26.27,-765.137,-558.594,1255.371,9.75,-39.60,-34.80,19.60
16862,9.36,2.69,-38.59,537.598,-880.859,451.172,9.75,-39.60,-34.80,19.60
16872,-1.96,16.72,-56.98,-629.395,288.574,1261.719,8.70,-38.55,-35.70,19.64
16882,25.29,4.76,-41.38,87.402,-990.723,1845.703,9.75,-38.40,-34.50,19.64
16891,-1.15,9.02,-35.37,-472.168,-25.391,409.668,9.75,-38.40,-34.50,19.40
16901,-2.52,1.78,-45.32,261.230,-703.613,1208.984,9.00,-37.95,-36.00,19.40
16911,-10.53,6.56,-33.92,-517.090,-792.969,1999.939,8.70,-38.55,-35.40,19.74
16923,-1.55,-3.50,-37.54,236.816,-416.016,1249.512,9.15,-40.50,-35.70,19.45
16933,4.41,0.18,-43.76,-726.074,-370.117,-45.410,8.55,-39.90,-37.05,19.60
16943,7.64,8.77,-41.33,596.191,-750.488,675.781,8.55,-39.90,-37.05,19.64
16953,1.98,2.01,-33.73,109.863,-805.176,1170.898,9.30,-39.15,-34.05,19.45
16968,-9.69,-1.19,-48.71,-323.242,-276.855,797.852,9.00,-38.70,-36.00,19.64
16977,-0.44,0.10,-48.62,642.578,-666.504,-265.137,9.15,-39.30,-35.40,19.60
16989,-0.10,-0.92,-36.98,533.691,-507.324,494.141,9.15,-39.30,-35.40,19.40
16999,1.34,-3.13,-41.89,-35.156,-537.598,1815.430,8.70,-39.75,-36.90,19.60
17009,1.78,-0.82,-39.41,-1120.117,-219.727,1405.762,9.00,-39.15,-35.25,19.40
17019,15.52,3.18,-46.58,695.312,-603.027,803.223,9.00,-40.80,-35.55,19.64
17029,1.01,3.29,-45.61,-156.250,-411.621,1043.457,8.25,-38.70,-36.00,19.88
17039,14.44,-1.48,-44.09,-6.348,-726.074,1308.105,8.25,-38.70,-36.00,19.26
17049,12.24,2.24,-34.21,508.301,-1341.309,1741.699,8.40,-39.30,-34.95,19.55
17060,2.11,6.75,-43.60,-145.020,-874.023,1710.449,9.30,-39.60,-35.25,19.45
17070,-11.57,-2.54,-51.81,-533.203,-372.070,1076.172,7.95,-37.80,-36.15,19.45
17080,-1.66,-3.03,-38.42,784.180,-667.480,312.012,7.35,-39.90,-36.00,19.45
17090,-6.73,-5.94,-51.85,-142.578,-430.176,1376.465,7.35,-39.90,-36.00,19.64
17100,4.94,-3.80,-42.32,-28.320,-432.129,429.687,7.05,-40.35,-36.30,19.60
17110,8.79,-7.13,-34.97,1058.105,-830.078,674.805,8.40,-39.30,-36.90,19.40
17120,-6.38,-12.81,-46.34,-317.871,-104.004,644.531,8.40,-39.30,-36.90,19.64
17132,-4.53,-5.67,-50.00,175.781,-372.559,743.164,7.35,-39.90,-36.00,19.40
17142,-8.56,-4.11,-35.47,-747.559,145.996,1646.973,7.05,-39.90,-35.55,19.55
17152,5.73,0.89,-36.73,1022.949,-872.559,-228.027,7.65,-40.95,-35.70,19.40
17162,-15.04,3.12,-45.21,-794.922,171.387,508.789,5.85,-42.00,-35.25,19.40
17172,11.52,5.60,-37.98,72.266,-230.957,1594.727,5.85,-42.00,-35.25,19.40
17182,14.86,5.81,-40.36,379.395,-712.891,731.934,6.30,-39.15,-34.80,19.55
17194,2.05,8.87,-46.53,392.090,-695.801,233.887,7.05,-40.35,-34.80,19.36
17204,-2.84,7.90,-47.65,-421.875,-686.035,1862.793,6.15,-40.20,-36.15,19.55
17214,2.03,7.45,-40.10,-267.090,-406.738,1165.527,6.90,-39.75,-35.40,19.26
17224,4.10,-0.38,-41.17,320.312,-967.773,786.621,6.90,-39.75,-35.40,19.40
17234,-6.06,2.66,-42.08,-444.824,-679.687,1203.125,6.45,-39.30,-36.15,19.64
17244,2.11,5.08,-40.89,385.742,-1048.828,618.652,6.15,-38.55,-34.65,19.64
17253,4.20,3.02,-46.75,-285.645,-410.156,579.590,6.15,-40.50,-34.20,19.40
17265,-0.92,2.43,-46.36,-270.508,325.195,1145.020,4.95,-41.40,-35.40,19.45
17275,3.69,-1.31,-44.18,232.422,-889.160,1268.066,4.95,-41.40,-35.40,19.64
17285,-9.31,-1.40,-46.79,-194.336,-815.918,1172.852,6.60,-40.80,-34.50,19.55
17295,-0.34,-8.18,-46.95,-181.152,-712.891,1999.939,5.55,-41.55,-36.00,19.79
17305,-0.55,-4.52,-45.29,183.594,-563.965,1920.410,5.55,-41.55,-36.00,19.40
17315,-3.24,-2.63,-43.64,-376.465,-462.891,930.664,5.85,-41.55,-35.55,19.40
17325,5.52,-2.07,-50.92,21.484,-833.984,925.293,4.95,-40.95,-34.95,19.64
17337,8.24,3.09,-51.99,-113.281,-667.969,624.512,4.50,-42.15,-34.95,19.55
17347,3.27,-6.88,-48.47,-78.613,-340.332,1489.746,4.50,-42.15,-34.95,19.60
17357,-4.51,4.56,-45.82,-13.184,-618.652,663.086,5.10,-40.80,-35.25,19.40
17367,0.35,1.89,-47.53,-415.527,-573.242,1256.836,5.25,-41.70,-34.95,19.64
17377,-5.97,-1.13,-44.52,-199.707,-947.754,747.070,5.25,-41.70,-34.95,19.55
17387,-8.64,-2.86,-49.47,-555.176,-492.676,1784.668,4.20,-40.95,-34.95,19.64
17399,-4.98,8.73,-53.24,-260.254,153.320,1140.137,4.20,-40.95,-34.95,19.55
17409,6.95,4.92,-43.93,-217.285,-181.152,1055.176,3.45,-42.15,-34.95,19.64
17419,6.76,-2.93,-44.73,122.070,-669.922,330.078,3.45,-41.40,-36.15,19.64
17429,2.01,-2.56,-49.05,97.168,-826.172,1936.523,3.60,-41.10,-35.25,19.45
17439,-6.73,-9.53,-52.93,-237.793,-713.867,873.047,2.55,-41.40,-36.60,19.64
17449,-5.18,-3.53,-52.47,-52.734,-463.867,526.855,2.55,-41.40,-36.60,19.36
17459,-4.85,-7.24,-47.25,105.469,-609.375,983.398,2.10,-41.55,-35.55,19.74
17471,-1.33,-6.51,-52.55,-157.715,-327.148,782.715,3.00,-41.40,-35.70,19.55
17499,0.80,-4.65,-50.22,109.863,-1021.973,1086.914,1.80,-41.70,-34.65,19.36
17509,-10.44,-1.44,-45.51,88.379,-694.824,985.352,1.65,-43.20,-34.80,19.36
17519,-15.01,-6.47,-46.01,-347.656,-349.121,683.105,0.90,-42.30,-34.50,19.45
17529,3.58,-6.25,-52.54,332.031,-803.223,1129.395,0.90,-42.30,-34.50,19.64
17539,-16.83,-1.51,-48.64,-486.816,-76.172,1576.172,0.90,-42.00,-36.30,19.60
17552,-11.70,-1.36,-54.73,-338.379,-597.168,1273.438,-0.15,-42.75,-35.25,19.64
17561,12.84,6.24,-48.37,-61.035,-780.762,767.090,1.65,-42.30,-37.50,19.55
17571,4.75,-0.15,-53.34,-200.684,-322.754,1603.516,0.30,-42.60,-36.15,19.64
17581,13.38,6.77,-46.44,-301.270,-613.281,749.512,0.30,-42.60,-36.15,19.36
17591,7.13,7.08,-43.26,-331.543,-592.285,1434.570,-2.25,-42.15,-34.65,19.74
17601,4.69,1.49,-39.82,219.238,-963.867,388.184,-1.20,-41.55,-35.25,19.55
17611,-20.10,4.27,-44.05,-534.668,-459.961,911.133,-1.05,-41.70,-33.45,19.64
17623,-10.16,-4.59,-47.74,-228.027,-142.090,890.625,-1.80,-42.60,-34.95,19.64
17633,-7.60,-4.67,-62.53,-34.180,-544.922,1064.941,-1.80,-42.60,-34.95,19.64
17643,-4.32,3.46,-51.98,-363.281,-262.207,951.172,-0.90,-41.55,-35.25,19.64
17653,10.78,3.95,-55.72,209.961,-802.246,761.719,-2.55,-41.70,-34.20,19.40
17663,-0.03,0.46,-40.39,-373.535,-273.437,831.055,-1.20,-41.55,-34.05,19.36
17673,12.64,1.72,-43.31,-232.910,-522.949,509.766,-2.40,-43.20,-34.05,19.36
17683,12.05,1.56,-37.37,702.637,-1016.113,564.453,-2.40,-43.20,-34.05,19.55
17695,3.69,3.69,-42.02,-41.504,-948.730,224.609,-2.55,-43.35,-35.40,19.36
17705,-22.75,-4.01,-46.72,-521.484,-368.164,686.035,-3.00,-41.40,-34.20,19.40
17715,-12.18,-1.18,-44.56,179.199,-538.574,632.324,-3.00,-41.40,-34.20,19.64
17725,-8.22,4.94,-51.18,-500.488,80.566,648.926,-3.00,-42.15,-33.90,19.64
17735,14.20,0.70,-41.40,-2.441,-565.918,756.836,-3.15,-42.00,-34.50,19.40
17745,19.10,10.81,-49.92,-107.910,-534.180,681.152,-4.20,-42.15,-34.65,19.26
17757,-4.29,5.78,-49.80,-13.184,-838.379,508.789,-3.90,-42.75,-34.50,19.64
