Time_ms,GyroX_degps,GyroY_degps,GyroZ_degps,AccelX_g,AccelY_g,AccelZ_g,MagX_uT,MagY_uT,MagZ_uT,Temp_C
1322,0.49,-1.08,-3.79,46.875,73.730,1029.785,-26.25,-13.20,-32.25,16.96
1338,-0.36,0.20,-0.10,388.672,1.953,976.074,-23.25,-12.45,-29.55,16.91
1348,-0.46,-0.94,-0.04,72.266,-5.859,1150.879,-23.25,-12.45,-29.55,16.96
1358,-0.39,-6.13,-1.37,32.227,92.285,1092.285,-21.30,-12.90,-29.10,16.91
1368,0.55,0.85,-2.78,275.391,10.254,829.590,-20.25,-11.85,-28.95,16.91
1377,0.40,-0.81,-2.48,-24.902,56.641,1259.277,-20.25,-11.85,-28.95,16.82
1387,2.31,0.39,-0.49,287.109,-48.340,818.359,-21.30,-11.70,-28.05,16.96
1397,1.00,0.01,-1.90,102.051,13.184,1159.180,-22.05,-12.45,-29.85,16.77
1409,1.80,-2.62,-1.18,142.090,-8.789,998.047,-22.80,-11.25,-31.05,16.82
1419,0.24,0.74,-2.15,33.691,72.266,969.238,-24.15,-12.30,-32.40,16.96
1429,0.62,-3.25,-2.80,173.340,-159.668,1078.613,-24.15,-12.30,-32.40,16.91
1439,1.50,-3.06,-1.66,51.270,75.195,970.215,-27.60,-12.30,-32.40,16.96
1449,1.19,-0.82,-3.29,68.359,72.266,1240.234,-25.50,-13.20,-32.55,16.96
1459,2.73,-1.63,-8.32,98.145,-36.133,810.547,-25.50,-13.20,-32.55,16.77
1469,1.08,-0.90,-2.73,54.199,4.883,1473.633,-22.05,-12.45,-29.85,16.72
1481,0.24,0.74,-9.18,22.949,398.926,724.609,-21.90,-11.85,-28.20,16.72
1491,0.35,-0.24,-0.67,87.891,-24.414,1794.434,-20.70,-12.30,-28.65,16.91
1501,0.24,3.57,-10.47,164.062,-4.395,606.934,-20.25,-12.30,-29.70,16.91
1511,1.22,-0.70,-2.67,249.023,-64.453,1005.859,-20.25,-12.30,-29.70,16.82
1521,2.48,2.27,0.61,103.516,-14.648,1089.844,-22.65,-12.75,-31.65,17.10
1531,-1.81,-0.31,-2.73,201.172,23.437,889.160,-25.35,-11.85,-33.15,16.96
1541,0.11,-3.72,2.89,168.457,-37.109,1190.918,-25.35,-11.85,-33.15,16.58
1553,-0.52,-0.68,-2.39,151.855,164.062,772.949,-25.05,-11.70,-33.30,16.96
1563,-0.18,-6.56,-4.09,213.867,-147.461,1138.184,-24.00,-12.15,-30.30,16.72
1573,1.71,-1.92,-3.75,146.484,61.523,973.145,-21.90,-12.30,-29.70,16.82
1583,-0.96,-0.85,-1.69,124.023,-3.906,1003.418,-21.90,-12.30,-29.70,17.10
1593,0.55,-2.22,-4.89,201.660,-49.805,1262.207,-20.25,-11.10,-28.65,17.25
1603,1.02,-2.82,-2.21,139.160,131.348,1054.688,-19.65,-10.50,-30.75,16.91
1613,-0.62,-0.40,2.05,88.867,-35.156,902.344,-19.65,-10.50,-30.75,16.91
1625,0.40,-1.38,-7.54,159.668,-107.910,1155.762,-25.05,-11.70,-34.05,16.96
1635,-3.50,2.83,-6.03,227.539,2.930,902.344,-25.50,-10.50,-31.80,16.96
1645,-1.54,-1.95,-5.00,192.871,-37.109,1068.848,-26.40,-12.75,-33.45,16.77
1655,-2.08,1.60,-6.03,276.855,24.414,877.930,-24.15,-11.85,-31.20,16.91
1665,-1.17,0.18,-5.27,174.316,66.895,1010.742,-24.15,-11.85,-31.20,17.01
1675,1.64,-2.71,-5.74,108.398,59.570,1204.102,-19.65,-12.15,-29.10,16.91
1685,-0.05,-0.25,-3.18,79.102,41.016,1094.727,-19.95,-11.10,-28.95,16.96
1697,0.34,-0.35,-5.17,123.047,-124.512,1071.289,-20.85,-10.95,-31.05,17.01
1707,-1.24,1.04,1.34,311.523,54.688,1033.691,-23.40,-9.90,-33.15,17.15
1716,-2.28,-1.74,-9.76,181.641,75.684,986.328,-23.40,-9.90,-33.15,16.62
1726,-0.96,-1.02,-3.97,132.812,-82.031,859.375,-26.40,-11.85,-33.45,17.01
1736,-1.99,1.84,-3.67,197.266,-7.324,1150.879,-23.40,-11.85,-31.95,16.91
1746,-2.00,0.33,-7.79,183.594,85.938,1014.160,-23.40,-11.85,-31.95,17.10
1756,2.45,0.67,-4.08,175.293,32.227,1265.137,-20.10,-12.15,-27.60,17.10
1768,-0.52,-1.00,-4.59,183.594,57.129,912.109,-20.85,-11.25,-29.85,17.10
1778,1.17,-4.84,-4.49,76.660,41.504,1188.477,-22.20,-11.85,-32.40,16.77
1788,0.23,-1.17,-5.70,153.809,17.578,972.168,-25.50,-11.25,-35.25,16.91
1798,-0.15,-0.10,-6.90,236.328,-106.934,931.641,-25.50,-11.25,-35.25,16.62
1808,-4.32,-0.94,-8.16,118.164,-16.113,1140.137,-25.50,-11.25,-33.30,17.15
1818,-0.70,0.92,-5.35,119.629,15.137,965.820,-22.05,-11.25,-30.75,17.10
1830,-2.28,1.23,-7.67,215.820,-4.395,928.711,-22.05,-11.25,-30.75,16.96
1851,1.02,2.07,-4.45,151.367,13.672,954.590,-22.35,-11.25,-34.05,17.10
1861,-1.87,4.88,-8.47,145.996,38.574,1007.324,-23.55,-10.95,-36.00,17.15
1871,-1.24,1.56,-7.45,91.797,44.922,1221.191,-24.90,-10.65,-36.15,16.96
1881,-0.96,0.18,-6.29,151.367,-2.441,1107.910,-24.90,-10.65,-36.15,17.01
1891,-0.77,0.31,-9.29,194.336,-25.879,1285.156,-20.70,-11.85,-30.90,16.72
1901,-0.97,3.62,-6.49,149.414,84.473,1222.656,-19.35,-11.70,-29.10,17.25
1913,-0.05,0.51,-6.33,-33.691,-41.992,1558.105,-18.75,-11.85,-32.40,17.10
1923,1.83,-1.40,-8.15,189.941,-40.039,1360.840,-22.80,-9.30,-34.05,16.96
1933,2.51,-1.82,-9.96,88.867,-170.898,1298.828,-22.80,-9.30,-34.05,17.10
1943,1.96,-0.99,-10.31,165.527,-164.062,1099.609,-23.55,-11.25,-33.75,17.01
1953,2.98,1.43,-5.31,149.902,-148.437,963.379,-20.85,-12.90,-29.10,16.96
1963,-0.33,-1.98,-10.02,127.930,-61.523,909.668,-20.85,-12.90,-29.10,16.91
1973,0.43,0.78,-10.76,142.090,-167.969,1153.809,-17.85,-10.95,-29.85,16.91
1985,1.52,-0.69,-11.65,192.871,-165.527,853.516,-24.60,-9.15,-33.15,16.96
1995,1.21,0.69,-10.60,218.750,-80.078,842.285,-23.55,-11.25,-33.75,16.82
2005,1.32,-0.01,-10.76,142.090,-178.711,1052.734,-23.55,-11.25,-33.75,17.10
2015,1.52,2.11,-11.37,82.520,-39.063,694.336,-17.55,-9.15,-29.70,17.10
2025,-1.39,2.01,-11.87,159.180,-30.273,854.004,-18.60,-10.50,-33.00,16.96
2035,-1.20,0.35,-11.07,272.949,-214.355,876.465,-18.60,-10.50,-33.00,17.01
2047,2.01,2.32,-14.49,125.488,174.316,969.727,-24.75,-12.15,-33.00,17.01
2057,2.20,-1.96,-14.17,219.238,-190.918,1327.148,-21.60,-11.70,-29.85,17.15
2067,0.67,-0.95,-13.48,204.102,4.883,1126.465,-17.10,-12.15,-28.35,16.82
2077,-1.11,-0.21,-15.75,142.090,0.488,1221.680,-17.40,-9.30,-29.10,16.91
2087,0.75,0.00,-15.07,65.918,67.383,845.703,-17.40,-9.30,-29.10,17.25
2096,2.05,-1.28,-17.95,83.008,-123.047,996.094,-23.70,-10.35,-33.45,17.15
2106,-1.56,-0.83,-15.29,233.398,-6.836,937.988,-21.45,-12.30,-31.20,17.15
2118,-2.37,-1.67,-16.46,238.770,-234.375,996.094,-20.10,-11.25,-28.80,17.10
2128,-1.41,-0.83,-16.10,72.266,-83.984,759.766,-18.00,-9.45,-28.95,17.25
2138,-0.08,-3.56,-11.98,206.055,-151.855,918.457,-21.00,-7.95,-32.70,17.10
2148,1.08,-1.25,-14.90,151.367,-88.379,1040.527,-22.80,-9.30,-33.30,17.10
2158,1.71,-0.47,-13.44,20.020,38.086,1155.273,-21.60,-10.95,-30.75,17.25
2168,5.25,-6.07,-11.90,203.613,-189.453,986.816,-21.60,-10.95,-30.75,17.01
2178,1.32,-2.65,-17.14,198.242,-163.574,933.594,-17.85,-9.75,-28.35,17.25
2190,-0.28,-5.24,-13.69,38.086,-1.953,946.289,-20.70,-8.70,-33.15,17.25
2200,-2.17,-3.73,-17.42,171.387,-215.332,1230.957,-22.35,-10.50,-34.05,17.01
2210,-4.36,-5.82,-16.76,200.195,66.895,1152.344,-21.60,-10.50,-29.55,17.10
2220,-6.37,-3.82,-14.64,178.711,49.316,782.715,-21.60,-10.50,-29.55,17.01
2230,-1.04,-1.25,-15.27,122.559,49.805,1164.063,-17.40,-8.10,-29.85,17.10
2240,0.85,-2.54,-16.31,131.348,171.875,849.609,-22.65,-7.50,-33.90,17.25
2250,3.26,-2.71,-18.87,231.445,-46.875,1028.320,-22.65,-7.50,-33.90,17.25
2262,6.29,-4.51,-16.81,316.895,-189.941,1340.332,-20.10,-10.05,-29.10,17.10
2272,5.60,-0.60,-18.18,200.684,-61.035,864.746,-17.10,-9.30,-27.60,17.25
2282,7.49,1.81,-12.76,231.445,-44.922,708.496,-18.45,-7.50,-31.20,17.25
2292,3.27,2.29,-15.69,191.895,-51.270,750.488,-22.65,-8.70,-32.70,17.25
2302,-0.52,5.82,-12.94,136.719,-186.523,860.352,-22.65,-8.70,-32.70,16.77
2312,-7.09,4.05,-14.69,106.934,-161.133,773.926,-17.55,-9.45,-27.45,17.29
2322,-7.56,1.54,-15.70,146.484,27.344,1097.168,-18.15,-8.10,-28.05,17.01
2334,-12.05,5.61,-15.34,82.520,65.430,908.203,-18.15,-8.10,-28.05,17.01
2344,-4.90,2.34,-16.16,124.023,232.422,1337.402,-18.15,-9.75,-26.85,17.25
2354,0.44,1.60,-16.27,85.938,-112.793,1026.855,-18.15,-9.75,-26.85,17.34
2369,4.80,3.49,-11.99,121.582,170.410,1129.395,-20.70,-7.95,-30.15,17.25
2379,3.88,2.20,-19.76,299.316,-386.230,770.996,-20.70,-7.95,-30.15,16.77
2389,0.65,-3.96,-15.74,170.898,-202.148,1330.566,-19.35,-9.75,-26.85,17.01
2399,-5.32,-2.28,-18.83,50.781,-180.176,1289.551,-17.40,-7.65,-25.35,17.25
2411,-2.53,-1.28,-23.25,241.699,-359.863,1087.402,-21.00,-7.95,-29.40,17.29
2421,-3.92,-0.52,-21.72,275.391,-376.953,1385.742,-24.15,-8.70,-30.90,17.29
2431,-3.60,-0.53,-23.09,103.516,-182.129,696.289,-20.25,-9.45,-27.45,17.49
2441,0.74,-2.70,-21.43,179.199,-136.719,1249.512,-17.25,-8.70,-26.40,17.01
2451,-0.16,-2.50,-20.73,42.969,-277.344,586.426,-20.85,-6.90,-30.75,17.15
2461,-3.24,-2.50,-22.11,169.922,-127.930,1538.086,-20.85,-6.90,-30.75,16.91
2471,-3.20,-2.34,-24.48,107.422,-151.367,740.234,-20.10,-10.50,-26.55,17.10
2483,-3.37,-3.37,-23.01,147.949,-35.156,1372.070,-17.85,-8.85,-27.60,17.01
2493,-3.12,-3.98,-20.80,-30.762,5.859,1300.293,-20.85,-6.90,-32.25,17.25
2503,-0.43,-5.18,-21.66,85.449,-69.336,1104.980,-22.05,-9.30,-31.05,17.44
2513,2.17,-1.71,-22.81,194.336,-159.668,1082.031,-22.05,-9.30,-31.05,17.25
2523,-0.54,-1.58,-21.85,-17.578,-153.809,963.867,-18.60,-7.65,-28.05,17.01
2533,-2.32,-1.78,-23.41,140.137,-117.676,798.828,-21.60,-6.90,-32.25,17.01
2545,0.69,-0.08,-19.04,212.402,-265.137,1055.176,-18.90,-9.75,-26.85,17.25
2555,0.65,0.48,-25.54,174.805,-290.039,470.215,-18.60,-7.65,-28.05,17.15
2565,-0.87,0.76,-20.15,158.691,-334.961,987.793,-22.20,-6.30,-31.95,16.82
2575,3.50,4.42,-22.58,249.512,-241.699,690.430,-21.00,-9.90,-30.45,17.25
2585,0.02,2.25,-20.98,175.293,-325.684,912.109,-21.00,-9.90,-30.45,17.25
2595,2.70,0.63,-18.24,30.273,-75.684,952.637,-19.65,-6.45,-30.30,17.10
2605,0.68,0.68,-20.16,194.336,-261.230,821.289,-23.40,-8.70,-32.40,17.34
2619,-0.96,-1.42,-20.34,1.465,80.566,1280.762,-23.40,-8.70,-32.40,17.25
2629,-0.14,1.91,-22.23,271.484,-172.852,638.672,-17.55,-8.25,-29.40,17.25
2639,1.34,-4.16,-22.99,289.551,-315.430,1168.457,-21.60,-6.90,-31.50,17.25
2649,-3.48,-6.96,-24.07,45.410,28.809,1601.074,-21.00,-9.45,-31.95,17.29
2659,5.23,1.52,-22.47,-8.301,59.570,936.035,-17.55,-8.25,-28.65,17.25
2669,3.49,0.07,-22.21,241.699,-248.047,589.844,-17.55,-8.25,-28.65,16.82
2679,1.65,-3.28,-24.85,190.918,-303.223,1361.328,-22.35,-7.65,-32.25,17.34
2691,3.73,-1.31,-24.29,153.320,-230.957,1099.121,-19.35,-9.30,-28.80,16.96
2701,5.02,0.40,-20.97,143.555,-206.543,969.727,-17.55,-6.30,-28.95,16.91
2711,6.09,4.66,-23.18,19.043,-38.574,1044.922,-19.95,-6.30,-33.15,17.44
2721,-3.69,7.52,-24.82,352.051,-268.066,618.164,-19.95,-6.30,-33.15,17.25
2731,-6.90,2.53,-23.30,204.590,-297.363,418.457,-18.00,-7.05,-28.20,17.25
2741,-11.07,-3.06,-22.98,176.758,-136.230,1258.301,-18.60,-5.70,-31.50,17.01
2751,-5.48,-2.79,-22.53,163.574,-160.156,1408.203,-18.60,-5.70,-31.50,16.91
2763,-4.31,-7.37,-24.69,141.113,-235.352,729.004,-17.55,-7.50,-29.40,17.25
2773,-2.92,-13.83,-18.66,307.129,-217.285,918.457,-19.35,-5.25,-30.75,16.91
2783,2.23,-14.50,-15.61,545.898,-243.652,518.066,-21.00,-7.95,-32.70,17.29
2793,0.41,-12.95,-23.32,-2.930,-235.840,1273.438,-17.40,-7.65,-28.35,17.25
2803,-1.11,-15.82,-40.12,29.297,-131.348,1538.574,-17.40,-7.65,-28.35,17.44
2813,3.38,-8.08,-20.49,36.133,-20.020,1148.438,-22.35,-5.70,-33.30,17.29
2823,-7.31,-6.74,-27.24,-173.828,-40.039,927.246,-17.40,-6.90,-28.80,17.44
2835,-1.30,-1.85,-19.68,-181.641,163.574,1242.188,-17.40,-6.90,-28.80,17.15
2845,0.11,-3.81,-24.41,53.223,-28.320,1238.770,-17.85,-6.45,-30.30,17.15
2855,3.12,7.15,-24.36,-86.426,9.277,913.086,-17.85,-6.45,-30.30,17.01
2865,2.77,6.87,-26.50,-221.680,17.090,1741.211,-21.90,-2.85,-30.30,17.25
2875,4.50,7.53,-22.77,178.711,-97.656,1192.871,-21.90,-5.55,-34.65,17.29
2892,1.87,3.16,-25.26,-33.691,-389.160,1787.109,-17.10,-3.75,-29.10,17.34
2901,-1.94,6.16,-28.77,260.742,-309.082,667.480,-18.75,-2.70,-33.15,17.44
2911,-2.50,3.66,-25.14,-19.531,-7.324,1139.648,-18.60,-6.15,-30.75,17.44
2921,2.09,2.24,-12.87,283.691,-60.059,926.758,-14.55,-3.45,-28.65,16.96
2931,-2.67,-1.67,-23.63,20.508,79.590,1434.082,-19.65,-2.10,-32.25,17.15
2941,-0.85,-2.18,-22.08,229.004,-61.523,1092.773,-18.45,-5.85,-29.70,17.10
2951,1.37,-2.15,-28.08,160.156,33.203,1001.953,-15.90,-3.75,-29.10,17.25
2963,0.16,-11.75,-25.11,139.648,-241.699,1753.418,-15.90,-3.75,-29.10,17.34
2973,0.34,-4.54,-21.89,169.434,-95.215,995.117,-17.55,-7.05,-28.95,17.34
2983,4.73,-5.15,-27.27,333.984,-327.637,1000.488,-15.15,-4.50,-30.30,17.25
2993,2.72,-0.53,-24.53,-0.977,-204.590,849.121,-18.45,-3.90,-33.15,17.10
3003,3.90,-5.08,-20.28,335.937,-386.719,546.387,-18.00,-6.30,-28.20,16.96
3013,3.16,-0.37,-24.84,96.680,-150.391,657.715,-18.00,-6.30,-28.20,17.25
3023,-2.73,-1.31,-23.96,225.586,-35.645,105.957,-18.15,-5.25,-32.25,17.15
3035,-0.04,-1.63,-22.93,2.930,324.219,1510.254,-17.40,-6.15,-28.80,17.15
3045,4.58,-7.15,-25.63,380.859,-131.348,1401.367,-17.40,-6.15,-28.80,17.25
3055,1.68,-7.09,-22.45,74.219,-204.102,930.664,-18.75,-5.55,-32.40,17.25
3065,-3.25,-0.01,-22.86,149.414,32.715,764.648,-15.90,-6.90,-28.80,17.29
3075,-3.66,-5.37,-23.21,256.348,33.691,378.418,-16.80,-4.35,-31.20,17.44
3085,-3.97,-1.15,-22.30,38.086,-215.820,1262.695,-20.25,-5.10,-32.70,17.01
3095,-9.58,1.56,-22.14,9.766,88.867,856.445,-20.25,-5.10,-32.70,17.10
3107,-13.47,-7.67,-23.92,-91.309,78.125,1229.980,-17.40,-6.15,-31.05,16.91
3117,-5.02,-0.37,-20.52,76.660,154.785,437.012,-13.35,-4.35,-29.40,17.10
3127,3.76,2.83,-18.88,59.082,-129.395,572.754,-18.00,-3.90,-32.40,17.29
3137,3.66,1.38,-21.79,87.891,-222.656,1070.313,-16.05,-7.05,-29.40,17.34
3147,3.50,4.40,-23.13,59.082,-433.594,416.992,-14.85,-3.45,-29.40,17.34
3157,1.90,6.15,-22.54,53.223,-205.078,516.602,-18.45,-4.65,-31.20,17.25
3167,-1.42,2.94,-27.26,239.746,-513.184,495.117,-18.45,-4.65,-31.20,16.91
3179,-6.12,7.66,-26.92,83.984,-371.582,707.520,-14.85,-2.70,-30.90,17.01
3189,-2.91,-2.98,-24.17,180.664,-321.777,1087.402,-18.00,-4.65,-30.45,16.96
3199,-3.47,-5.58,-23.37,99.609,-238.281,1327.148,-14.40,-4.95,-28.05,17.25
3209,0.42,-2.56,-29.98,85.449,-182.129,1412.598,-17.10,-2.85,-29.55,17.25
3219,7.01,0.09,-27.88,214.844,-49.805,709.961,-17.10,-2.85,-29.55,17.34
3229,5.16,1.82,-26.47,190.430,-218.262,657.227,-14.55,-3.90,-28.20,17.49
3239,4.32,2.62,-30.64,-9.277,-307.617,795.410,-17.40,-2.85,-31.50,17.25
3251,-0.30,1.86,-27.21,111.816,-207.520,1062.988,-17.40,-2.85,-31.50,17.29
3261,-1.16,-1.72,-27.32,4.883,-205.566,791.016,-16.50,-0.75,-30.15,17.25
3271,-4.10,-0.68,-29.48,266.113,-43.945,812.500,-16.50,-4.35,-30.15,16.96
3281,-4.29,-1.79,-28.15,29.297,73.242,874.512,-14.40,-3.30,-27.60,17.34
3291,-2.52,-0.74,-24.75,50.293,33.203,974.609,-16.20,-2.85,-32.25,17.25
3301,-0.29,3.63,-22.31,97.656,111.816,851.074,-16.20,-2.85,-32.25,17.10
3311,5.21,-2.40,-25.53,-5.371,111.816,721.191,-15.45,-0.15,-31.05,17.15
3323,1.75,3.82,-25.24,-30.762,-237.793,1004.883,-16.65,-2.85,-31.50,17.25
3333,5.91,3.23,-19.24,116.211,-520.996,826.172,-13.50,-1.65,-29.55,17.15
3343,2.76,3.46,-30.50,159.668,-408.691,702.148,-15.30,-1.50,-33.45,17.29
3353,3.81,9.82,-26.10,89.844,-361.328,896.973,-14.40,-5.25,-31.05,17.15
3363,1.42,2.98,-24.82,-67.871,-382.324,939.941,-14.70,-1.65,-30.30,17.29
3373,2.15,3.61,-24.32,263.184,-513.672,837.891,-15.30,-3.15,-32.40,17.34
3383,-13.32,2.58,-31.75,215.332,-131.348,1052.246,-15.30,-3.15,-32.40,17.34
3395,0.27,-1.98,-30.81,123.047,-235.840,1587.891,-15.45,-0.15,-32.55,17.25
3410,-10.60,-11.18,-30.05,313.965,136.230,1392.578,-12.60,-0.75,-31.20,17.34
3419,-6.82,-4.96,-37.15,-161.133,160.645,889.648,-14.40,-3.75,-31.05,16.91
3429,-3.24,-17.06,-9.24,224.609,125.000,1794.922,-14.40,-3.75,-31.05,17.25
3439,0.98,-3.32,-68.45,-5.371,-215.332,1131.836,-15.45,-1.35,-31.05,17.25
3449,-0.83,-3.83,-37.44,-18.066,-421.387,1310.547,-12.00,-4.50,-27.30,17.34
3459,-2.69,-0.56,-30.57,254.883,-635.254,875.000,-12.00,-4.50,-27.30,17.44
3471,-1.28,-1.52,-34.85,271.484,-179.199,62.988,-14.10,-3.45,-29.40,17.34
3481,-0.05,-6.10,-28.82,-475.098,431.641,1520.020,-12.00,-0.90,-28.35,17.29
3491,7.16,-4.08,-19.08,125.977,-772.461,-292.480,-16.65,-2.55,-30.75,17.34
3501,-2.55,-6.56,-29.50,-81.055,-149.414,1403.320,-13.05,-3.45,-29.40,16.82
3511,3.38,-0.57,-37.28,17.578,-258.301,580.078,-13.05,-3.45,-29.40,17.25
3521,-0.82,-4.02,-33.44,257.812,-76.172,1338.379,-13.50,-4.05,-29.85,17.44
3533,2.77,-8.39,-28.37,148.437,-404.785,790.527,-14.40,-0.90,-30.75,17.49
3543,1.34,3.01,-26.55,-35.156,57.617,630.371,-14.40,-0.90,-30.75,17.25
3553,-4.78,-0.08,-33.25,162.109,-192.871,1918.457,-12.75,-2.85,-29.55,17.25
3563,8.15,2.76,-28.00,-15.137,-318.848,627.441,-14.70,-1.35,-32.25,17.10
3573,-1.24,-1.36,-31.95,116.699,-328.125,1321.289,-11.85,-1.50,-29.40,17.34
3583,2.07,-0.05,-30.01,-53.223,-85.449,956.055,-13.20,0.15,-32.25,17.01
3593,-1.38,-2.50,-37.74,183.105,-1.465,1243.164,-13.20,0.15,-32.25,17.29
3605,-3.83,-0.11,-28.85,7.324,-191.895,720.215,-12.30,-0.75,-30.45,16.91
3615,-0.53,-4.07,-30.18,289.551,-612.305,1042.480,-12.60,-1.50,-30.15,17.15
3625,-3.28,2.53,-38.37,-3.418,-289.551,413.574,-11.40,-0.75,-30.15,17.44
3635,-5.25,-1.11,-34.57,128.906,-2.930,1095.215,-13.20,-1.65,-31.50,17.29
3645,-0.36,2.19,-28.68,94.727,-54.688,718.262,-13.20,-1.65,-31.50,17.01
3655,4.09,-1.05,-30.04,103.027,-261.230,1314.941,-12.00,-0.15,-31.05,17.15
3665,3.19,-4.82,-35.07,316.895,-231.934,1452.148,-12.30,-1.95,-28.65,17.01
3677,4.16,-6.69,-28.58,371.094,-538.574,1020.020,-12.00,-2.85,-30.30,17.25
3687,-2.02,-3.24,-30.47,-114.258,-139.160,671.875,-12.00,-0.45,-30.30,17.01
3697,-9.24,-4.02,-28.47,137.695,18.066,385.742,-12.30,-0.45,-30.30,17.34
3707,-7.53,2.25,-32.66,-62.988,-237.793,294.922,-12.45,-0.15,-32.25,17.34
3717,0.79,0.21,-28.27,214.355,-338.379,434.082,-12.45,-0.15,-32.25,17.44
3727,9.38,15.48,-37.42,-495.117,7.324,879.395,-11.70,-0.90,-32.25,17.44
3737,-1.94,-0.01,-25.73,-12.695,-137.207,1479.980,-10.65,0.00,-32.40,17.10
3749,4.92,6.20,-30.56,323.730,-486.816,421.387,-10.65,0.00,-32.40,17.34
3759,3.57,4.04,-31.23,-15.625,-505.859,1175.293,-10.95,-0.45,-33.75,17.25
3769,1.37,-2.25,-34.36,46.387,-340.820,1532.715,-10.50,1.65,-33.30,17.01
3779,1.23,5.88,-28.06,-128.906,-427.246,577.637,-10.95,-0.45,-33.30,17.25
3789,-4.30,-0.18,-32.86,164.551,-666.504,1062.988,-10.50,0.45,-34.05,17.34
3799,-5.55,-1.42,-29.51,124.023,-384.766,866.211,-10.50,0.45,-34.05,17.25
3809,-5.66,-3.11,-32.92,-161.133,-112.305,1016.602,-10.05,0.90,-33.00,17.29
3821,2.44,-2.34,-32.73,-117.188,-377.441,1761.230,-10.35,1.05,-32.70,17.25
3831,-0.66,-1.21,-33.78,-317.383,127.441,570.801,-9.30,2.55,-34.05,17.34
3841,10.57,-3.98,-34.40,98.145,-159.668,736.328,-9.00,0.90,-33.75,17.34
3851,6.29,-0.43,-34.23,-341.797,-260.742,1107.910,-9.30,1.65,-33.00,17.10
3861,5.53,0.79,-21.50,9.277,-722.168,776.367,-9.90,0.75,-31.95,17.44
3871,0.93,-0.85,-39.10,-202.637,-180.664,1386.719,-7.80,0.45,-32.55,17.34
3881,-1.37,-0.39,-34.92,47.852,-441.895,871.094,-7.80,0.45,-32.55,17.25
3893,-9.59,2.85,-33.00,-61.523,-50.293,666.016,-9.30,1.65,-32.55,17.25
3903,2.86,1.51,-35.78,-110.840,155.762,1095.215,-8.70,0.75,-32.70,17.29
3912,8.94,1.73,-31.27,115.723,-290.039,579.590,-9.15,0.75,-33.15,17.34
3927,12.69,-1.71,-27.78,-222.656,-302.246,1041.504,-8.40,1.95,-33.45,17.25
3936,7.20,-0.82,-36.22,-597.656,28.809,1094.238,-8.40,1.95,-33.45,17.29
3946,10.31,3.79,-29.61,43.457,-200.195,179.687,-8.40,0.30,-33.90,17.15
3955,4.24,1.55,-31.52,-87.891,-543.457,466.309,-7.05,1.65,-33.30,16.96
3967,-9.76,0.39,-28.84,-88.867,-354.004,1093.750,-7.05,1.65,-33.30,17.25
3977,-12.61,-2.51,-36.37,6.348,95.215,861.328,-6.90,1.05,-32.70,16.96
3987,-14.89,-6.33,-74.60,-233.398,136.230,1556.641,-6.90,1.50,-32.70,17.29
3997,-1.53,-3.17,-24.07,-97.168,240.723,1136.230,-7.95,0.75,-31.95,17.25
4007,11.34,-7.13,-26.66,-379.395,210.449,1337.402,-7.95,1.50,-32.70,17.25
4017,13.21,-1.50,-32.27,-50.781,-238.281,571.777,-7.95,1.50,-32.70,17.34
4027,7.61,-1.78,-31.82,-363.770,-430.176,1212.402,-8.40,1.50,-31.20,17.44
4039,-4.30,-0.60,-33.14,-186.523,-691.406,974.609,-7.95,1.05,-32.70,17.44
4049,-9.21,1.03,-36.89,47.852,-519.043,573.730,-7.95,1.05,-32.40,17.29
4059,-9.27,0.50,-25.61,-292.969,29.297,1295.410,-7.65,1.05,-31.95,17.01
4069,-8.77,1.15,-32.79,267.578,-22.461,553.711,-7.95,1.05,-33.15,17.34
4079,3.01,3.64,-32.87,-58.105,-20.508,1149.414,-7.80,2.10,-31.05,17.25
4089,5.92,1.21,-38.62,-229.980,-444.336,1163.086,-7.80,2.10,-31.05,17.29
4099,10.45,1.67,-23.69,-66.895,-151.367,999.512,-7.05,1.35,-33.30,17.29
4111,1.13,0.60,-28.51,-29.785,-40.039,1188.965,-5.55,2.10,-33.00,17.49
4121,0.72,4.93,-26.75,-34.180,-398.926,869.141,-6.90,2.70,-34.20,17.44
4131,-5.28,0.79,-30.63,-295.898,253.418,1397.949,-7.95,1.50,-33.45,17.25
4141,-3.73,-0.49,-28.77,257.812,-331.543,725.098,-7.95,1.50,-33.45,17.10
4151,3.83,3.39,-16.26,-128.906,14.648,979.492,-6.60,0.45,-34.05,17.25
4161,9.48,-2.82,-29.00,90.332,-129.883,872.559,-6.30,1.35,-33.75,17.25
4171,6.23,-2.43,-27.62,-38.574,-263.184,703.613,-6.30,1.35,-33.75,17.44
4183,7.53,-5.82,-12.41,102.051,-475.098,1195.801,-5.25,0.75,-33.45,17.10
4193,4.15,-5.72,-13.27,-18.066,-177.734,788.086,-5.55,1.35,-35.25,17.29
4203,-3.18,-10.08,-25.14,88.867,-365.723,1252.930,-5.25,1.05,-31.95,17.15
4213,-15.66,-3.50,-62.28,-78.613,80.566,828.613,-4.80,2.55,-33.30,17.34
4223,-5.41,-2.88,-60.31,2.441,-329.590,1274.414,-4.80,2.55,-33.30,17.25
4233,-4.02,-4.26,-22.66,-54.688,-34.668,959.961,-3.60,0.45,-32.55,17.29
4243,9.58,0.42,-14.47,-125.000,140.625,878.906,-6.45,1.50,-33.90,17.29
4254,5.61,-1.07,-27.61,156.738,-358.398,841.797,-6.45,1.50,-33.90,17.25
4264,5.13,5.92,-21.90,-109.863,-217.773,1204.590,-4.50,1.50,-34.65,17.49
4274,4.03,3.39,-24.41,32.227,-41.992,1284.668,-4.80,1.65,-31.80,17.44
4284,-2.09,0.21,-24.42,162.598,-354.980,911.621,-3.75,2.25,-33.90,17.25
4294,-0.87,0.05,-29.50,-60.059,94.727,1005.859,-2.85,2.10,-34.05,17.10
4304,-0.93,-1.77,-26.89,260.254,-480.469,1004.395,-2.85,2.10,-34.05,17.49
4314,-3.21,-3.25,-23.42,-95.703,-518.066,1022.461,-5.25,1.95,-34.65,17.29
4326,-4.62,-1.11,-27.11,-110.352,-207.520,1430.176,-4.35,2.55,-33.00,17.29
4336,-2.21,-8.03,-24.31,136.719,43.945,950.195,-4.95,1.50,-36.90,17.49
4346,-4.82,-4.61,-26.76,168.945,-66.406,1134.766,-3.45,1.50,-34.65,17.29
4356,-0.26,-8.58,-27.40,-28.809,-64.453,1099.609,-3.45,1.50,-34.65,17.25
4366,2.70,-8.24,-26.42,-17.578,-236.328,1032.715,-3.00,-1.05,-35.40,17.15
4376,-6.08,-9.50,-30.42,77.148,-294.434,1503.418,-1.50,1.05,-34.95,17.44
4386,31.00,1.69,-11.31,-108.887,-203.613,737.305,-1.50,1.05,-34.95,17.44
4398,0.75,-1.16,-73.79,159.668,-21.973,561.523,-0.90,1.65,-34.50,17.44
4408,-0.65,-5.37,-38.48,20.020,-174.316,767.090,-0.90,1.65,-34.50,17.49
4418,-3.21,-1.92,-28.13,-69.336,-259.277,680.176,0.75,0.00,-32.40,17.29
4428,5.76,2.04,-17.20,-374.512,42.480,989.258,-0.15,2.85,-33.30,17.25
4442,1.38,0.38,-26.10,61.035,-84.961,359.375,-1.05,3.15,-32.40,17.44
4452,2.57,5.50,-31.18,59.570,129.395,1081.543,-1.80,0.75,-31.65,17.29
4464,-0.44,2.44,-24.11,30.762,-144.531,1061.523,-1.80,0.75,-31.65,17.10
4474,3.61,2.71,-17.56,255.859,-549.316,754.883,-1.65,1.35,-33.00,17.34
4484,-3.15,-0.30,-36.33,-22.461,-414.551,643.066,-0.45,1.35,-31.50,17.25
4494,-5.65,-3.33,-31.51,-36.133,-202.148,1334.961,-1.05,2.25,-33.15,17.29
4504,-5.15,-3.50,-23.37,130.371,-439.941,1096.191,-1.50,0.00,-30.90,17.44
4514,-2.37,-2.05,-21.44,-8.789,-68.359,1495.117,-1.50,0.00,-30.90,17.34
4524,2.99,-0.89,-31.83,63.477,-182.617,661.621,-1.50,0.30,-30.90,17.25
4536,1.54,5.25,-35.15,-56.152,321.289,718.750,-0.90,2.55,-31.80,16.82
4546,9.17,-0.51,-27.67,122.070,-305.176,1336.426,-2.25,0.30,-31.95,17.01
4556,13.09,13.36,-15.56,-93.750,-294.434,544.434,-0.75,1.95,-32.70,17.25
4566,9.56,0.01,-34.46,66.895,-108.887,722.656,-0.75,1.95,-32.70,17.49
4576,6.14,6.21,-33.08,190.430,-453.125,1327.637,-1.50,1.50,-30.15,17.49
4585,3.37,-0.08,-37.39,-188.965,-207.031,854.980,-2.10,2.55,-34.50,17.25
4595,-9.17,7.41,-25.38,406.250,-699.707,1034.668,-2.10,2.55,-34.50,17.49
4607,-24.21,-1.71,-29.85,400.879,-104.980,1464.844,-1.65,2.10,-32.25,17.01
4617,-16.25,5.91,-24.73,93.750,68.848,1119.629,-0.45,0.45,-30.75,17.01
4627,-14.15,17.34,-74.20,194.824,299.316,782.715,-0.75,1.95,-31.20,17.29
4636,1.39,-0.23,-20.39,6.348,228.516,1445.313,-1.20,-0.15,-31.50,17.53
4646,-2.69,4.92,-22.38,93.750,-258.301,918.457,-1.20,-0.15,-31.50,17.29
4656,8.04,-3.45,-69.47,-126.465,324.707,717.285,0.00,0.30,-32.40,17.15
4666,7.12,-13.88,73.63,91.797,36.133,1526.855,0.30,1.95,-31.65,17.49
4678,-6.07,0.04,-14.96,-73.242,-147.461,913.574,0.30,1.95,-31.65,17.10
4688,-16.40,6.98,-24.63,289.062,-165.527,189.453,0.75,1.05,-31.95,17.15
4698,-14.36,-0.86,-19.82,261.230,-437.988,986.328,-0.45,2.10,-33.75,17.34
4708,-16.31,-2.70,-9.76,-164.062,1.465,1576.660,0.30,0.75,-30.90,17.44
4718,-22.17,9.74,-25.31,130.859,315.430,1133.789,0.00,1.95,-33.15,17.25
4727,-14.66,-7.08,-22.88,727.051,198.730,951.172,0.00,1.95,-33.15,17.01
4737,-17.61,-11.78,-20.48,-49.805,213.867,1181.152,0.45,2.55,-32.55,17.29
4749,5.72,-17.01,-16.11,-96.680,-375.488,1133.789,0.75,0.30,-31.20,17.34
4759,12.86,-12.85,-19.26,-282.227,-269.531,1084.473,0.15,-1.35,-31.05,17.49
4769,25.18,-14.24,-24.26,-53.223,-292.969,772.461,0.15,-1.35,-31.05,17.44
4779,11.18,-12.70,-37.04,-32.715,22.461,342.285,0.15,-1.35,-31.05,17.34
4789,7.57,-18.84,-22.85,141.113,-86.426,808.105,1.05,2.25,-32.40,17.25
4798,6.37,-15.63,-23.92,-160.156,-919.922,1868.164,1.05,2.25,-32.40,17.15
4808,-0.10,-13.48,-22.63,377.441,-463.379,392.578,1.05,2.25,-32.40,17.49
4820,-16.72,-7.43,-13.84,-132.324,406.250,356.445,0.45,0.45,-32.25,17.10
4830,6.31,-18.95,-17.39,299.805,-642.578,847.168,1.05,2.70,-31.95,17.34
4840,3.96,-8.11,-27.29,-122.559,-271.973,625.488,0.90,-0.15,-32.25,17.34
4850,-3.13,-8.89,-22.73,814.941,-73.242,951.172,0.90,-0.15,-32.25,17.34
4860,-8.82,-14.52,-29.26,-121.582,-124.023,871.094,0.75,0.00,-31.20,17.29
4870,-2.44,-17.75,-24.28,141.602,-184.082,793.945,1.65,1.35,-31.50,17.29
4880,7.36,-14.26,-27.37,517.090,-188.477,526.367,-0.30,-0.30,-31.95,17.01
4892,-1.94,-15.18,-27.92,186.523,-643.555,1406.738,-0.30,2.25,-31.65,17.44
4902,-12.24,-10.06,-21.05,309.082,-451.172,183.105,-0.30,-0.30,-32.70,16.96
4912,-22.44,-16.79,-26.93,-230.957,-431.641,984.375,0.30,1.50,-31.95,17.34
4922,-21.08,-16.53,-23.78,-175.781,314.941,1218.262,-2.10,-0.45,-32.55,17.44
4932,-16.99,-28.05,-28.92,-102.051,147.461,1695.313,-2.10,-0.45,-32.55,17.25
4942,-15.23,-10.29,-26.44,49.316,74.707,357.422,-0.75,-0.30,-33.45,17.68
4956,-8.63,-17.60,-23.73,108.887,-160.645,1222.168,0.00,0.00,-31.95,17.49
4966,-14.25,-12.92,-26.92,-239.258,40.039,1218.750,-0.90,0.45,-33.00,17.44
4978,-13.02,-10.02,-33.28,-6.348,-522.461,856.934,-0.15,1.35,-31.50,17.44
4988,-15.40,-3.03,-32.33,-509.277,-46.387,1111.816,-0.15,1.35,-31.50,17.44
4998,-8.67,9.67,-33.82,-470.703,290.527,1244.141,0.15,0.45,-32.25,17.29
5007,3.69,10.33,-35.45,-18.555,296.387,1999.939,-0.90,0.15,-34.05,17.29
5017,25.21,22.31,-31.82,566.895,267.578,1276.855,-0.90,0.15,-34.05,17.25
5027,18.08,23.35,-26.74,-122.070,-871.094,1359.863,-0.45,0.15,-33.75,17.29
5037,12.50,20.82,-25.17,55.176,-665.039,1112.793,1.50,0.30,-32.40,17.44
5049,-2.37,11.11,-24.89,368.164,-770.020,877.441,-0.30,1.95,-34.95,17.25
5059,-10.53,10.79,-25.28,169.434,-236.816,1756.348,0.45,-0.45,-32.25,17.29
5069,-4.60,2.48,-22.71,670.898,-235.840,1299.316,0.45,-0.45,-32.25,17.34
5079,2.18,-4.53,-22.49,-210.937,-405.273,1751.953,1.50,0.00,-31.65,17.25
5089,14.15,-4.11,-30.19,151.855,-441.406,695.801,1.65,1.65,-34.50,17.34
5099,27.45,-4.56,-26.82,-69.336,-645.020,1634.277,2.25,-0.75,-32.70,17.29
5109,11.85,-0.11,-30.82,-167.480,-315.918,682.617,0.00,1.50,-34.20,17.44
5121,5.79,-2.92,-31.72,102.539,-446.777,242.187,1.50,2.70,-33.90,17.25
5131,-3.45,-0.01,-21.24,-156.250,-160.645,1108.398,2.55,0.30,-32.70,17.29
5141,-5.37,1.20,-51.27,-53.711,-223.633,429.687,2.55,0.30,-32.70,17.49
5151,2.27,7.37,-31.18,-125.000,265.137,863.770,3.00,0.00,-32.70,17.49
5160,-9.46,13.48,-20.40,-160.156,-224.609,103.516,1.50,2.25,-35.40,17.49
5170,3.12,-2.76,-30.87,-33.203,-390.625,847.168,3.75,0.75,-35.40,17.25
5180,-4.41,3.06,-36.89,12.695,-671.387,147.949,3.15,2.10,-33.75,17.25
5192,4.16,1.38,-25.09,305.664,-360.352,1410.645,3.15,2.10,-33.75,17.10
5201,13.68,4.72,-35.56,-62.012,-1005.859,1288.574,3.45,1.05,-33.45,17.49
5211,4.60,5.62,-39.31,40.039,-906.738,934.082,5.10,-0.15,-33.30,17.25
5220,0.37,-1.16,-29.92,16.113,-324.219,1225.098,5.10,-0.15,-33.30,17.01
5230,-5.39,1.11,-39.45,317.383,-459.473,616.211,4.50,-0.75,-32.40,17.25
5240,-10.55,-1.60,-30.56,-164.062,146.973,1237.793,4.20,2.25,-32.70,17.25
5250,-9.95,-3.55,-43.64,-276.367,36.133,1357.422,4.20,2.25,-32.70,17.49
5262,12.85,-3.76,-34.75,219.238,-779.297,1089.844,4.50,1.05,-34.20,17.49
5272,9.32,-0.85,-43.37,-173.340,-1150.879,1029.297,4.50,1.05,-34.20,17.25
5282,9.58,-3.09,-43.98,67.871,-968.262,863.281,5.25,1.50,-33.45,17.34
5291,-9.63,2.53,-41.54,60.059,-342.773,898.926,5.70,-1.05,-32.40,17.15
5301,-11.56,-3.75,-41.89,-38.086,-829.590,1792.480,3.75,2.70,-32.70,17.44
5311,-14.27,-0.56,-40.98,165.039,-374.023,475.586,4.95,0.30,-33.90,17.49
5321,-11.88,5.69,-41.32,280.273,-175.293,1511.230,4.95,0.30,-33.90,17.63
5332,1.33,3.36,-37.05,200.684,-836.914,722.656,5.25,0.30,-33.45,17.49
5341,-8.22,0.39,-36.63,-43.457,-370.605,199.707,7.80,2.85,-34.50,17.53
5351,-4.14,-0.76,-45.98,37.109,-351.562,794.434,7.80,2.85,-34.50,17.15
5361,-6.60,2.15,-36.65,185.547,-741.211,891.113,6.45,1.50,-34.65,17.29
5371,-10.30,-1.21,-38.40,126.465,-179.687,781.250,7.35,-1.35,-33.00,17.49
5381,-3.28,-1.01,-48.82,385.254,-342.285,769.531,7.05,1.35,-34.50,17.25
5391,-2.95,2.67,-29.82,96.680,-450.195,565.430,6.60,-2.10,-33.30,17.44
5403,-0.92,-2.53,-34.51,43.945,-746.094,1543.945,6.60,-2.10,-33.30,17.34
5413,-8.48,3.80,-47.46,6.836,-526.855,1326.660,6.90,-1.05,-31.65,17.34
5423,-3.67,1.56,-47.03,315.430,-552.734,971.680,6.15,1.50,-34.95,17.34
5432,-4.50,3.11,-51.65,-32.227,-21.484,1442.871,6.15,1.50,-34.95,17.44
5442,-0.56,1.65,-46.95,67.871,-727.051,1284.668,7.35,0.15,-34.05,17.49
5452,0.42,-0.70,-52.34,349.121,-985.352,1232.422,8.70,-0.75,-32.70,17.34
5468,-1.11,3.23,-52.67,273.926,-534.180,1078.125,7.35,-0.90,-34.50,17.25
5478,-5.39,-1.22,-45.37,339.844,-293.945,1233.398,9.60,-0.30,-32.40,17.49
5488,4.18,7.98,-40.15,114.258,-363.770,1009.766,9.60,-0.30,-32.40,17.25
5497,4.94,0.69,-48.25,201.660,-721.680,1624.023,10.65,-0.30,-31.95,17.29
5507,4.87,-3.77,-44.09,182.617,-730.957,1236.816,7.95,-0.75,-34.95,17.44
5517,-0.69,-8.63,-45.98,104.492,-998.535,1441.406,10.95,-0.90,-33.30,17.49
5527,0.50,-5.53,-46.43,24.902,-391.113,584.961,8.40,0.00,-34.95,17.25
5539,7.96,-2.92,-41.40,268.555,-641.113,819.336,8.40,0.00,-34.95,17.53
5549,15.06,-6.10,-44.15,208.984,-748.535,1116.699,7.95,-1.50,-34.20,17.29
5559,6.84,0.15,-43.82,-28.320,-465.332,385.254,10.65,0.30,-31.65,16.96
5568,9.08,-10.13,-44.90,178.711,-1263.184,1144.043,10.65,0.30,-31.65,17.44
5578,-0.15,-1.05,-49.80,-218.750,-460.937,356.934,11.40,-0.30,-32.40,17.53
5588,2.21,-4.90,-42.69,-220.703,-198.730,616.699,9.90,-2.25,-33.45,17.53
5598,-2.88,-4.55,-54.53,252.930,-392.090,971.191,11.25,0.15,-34.05,17.49
5610,-10.33,-0.39,-40.00,42.480,-89.355,692.383,11.40,-1.50,-33.15,17.29
5620,-5.48,-6.95,-41.61,53.711,122.070,1242.188,11.40,-1.50,-33.15,17.49
5630,-4.57,-9.34,-41.57,270.020,-619.141,905.762,11.85,-3.15,-32.70,17.15
5640,-1.87,-7.15,-48.34,550.293,-157.227,1125.977,10.50,-0.90,-34.80,17.63
5650,4.65,-6.53,-43.08,89.844,-464.844,807.129,11.70,-2.85,-33.75,17.49
5660,1.97,-2.66,-39.21,173.828,-584.473,915.039,10.50,-0.45,-34.80,17.34
5670,-11.76,-3.05,-42.02,-43.945,-387.695,999.512,12.45,-2.10,-33.30,17.44
5682,-2.01,3.00,-40.72,-235.840,-347.168,672.852,12.75,-1.35,-33.75,17.44
5692,-7.28,1.51,-44.85,272.949,-319.824,1063.477,12.75,-1.35,-33.75,17.44
5702,-8.40,0.56,-48.24,-23.437,-681.641,1103.516,13.20,-2.55,-33.30,17.44
5712,-2.44,0.60,-36.53,-152.832,-188.965,959.473,12.00,-3.75,-33.30,17.10
5722,0.07,0.62,-47.27,-176.758,-366.211,1118.164,14.40,-0.15,-33.00,17.53
5732,4.28,1.47,-36.06,14.648,-444.336,895.996,14.10,-4.35,-34.65,17.44
5741,-1.08,-3.80,-50.28,-94.727,-419.434,804.199,14.10,-4.35,-34.65,17.29
5753,-5.15,7.27,-44.85,-40.039,-153.809,925.293,13.80,-2.70,-33.90,17.49
5763,-3.69,-1.78,-44.54,297.852,-500.000,1515.625,13.20,-2.10,-35.25,17.44
5773,2.33,1.90,-48.53,-169.434,-759.766,907.715,13.20,-2.10,-35.25,17.49
5783,8.66,1.44,-42.69,47.363,-494.141,882.812,14.85,-1.50,-34.95,17.29
5792,8.91,1.58,-36.37,-82.031,-523.926,873.047,14.40,-2.10,-33.00,17.49
5802,-0.89,0.78,-48.17,-67.871,-250.488,1303.223,13.20,-2.85,-35.55,17.34
5812,1.20,0.71,-36.44,139.648,-691.895,1005.371,15.75,-1.95,-34.20,17.34
5824,-3.72,-7.59,-44.78,120.117,-416.016,1354.492,15.75,-1.95,-34.20,17.44
5834,-4.21,-5.37,-42.95,-333.496,-419.434,1351.563,15.90,-1.35,-34.05,17.49
5844,10.92,-2.33,-56.72,-157.227,36.133,1086.426,14.55,-5.55,-34.65,17.25
5854,17.05,5.17,-53.03,161.621,-474.609,1229.980,15.75,-2.70,-34.65,17.34
5863,-1.94,-0.03,-43.31,-4.883,-639.160,1507.324,16.20,-4.50,-33.30,17.49
5873,-11.65,5.17,-43.23,-394.043,-583.008,1164.551,15.15,-3.30,-34.80,17.34
5883,-5.60,5.26,-58.59,-384.766,-645.508,763.184,16.05,-3.90,-33.45,17.49
5896,-3.20,-1.89,-50.09,659.180,-367.187,1055.664,15.15,-4.95,-35.55,17.44
5906,4.79,-4.84,-49.04,354.492,-242.187,-85.449,15.15,-4.95,-35.55,17.29
5916,-8.79,2.02,-51.30,-297.852,-372.070,147.461,16.05,-5.10,-34.20,17.34
5926,2.06,-6.20,-45.11,67.383,-426.270,401.855,14.70,-2.55,-35.25,17.25
5936,-8.40,-3.18,-46.89,-132.324,-564.453,484.863,16.65,-6.15,-34.80,17.01
5946,-6.53,3.11,-51.60,-88.379,-310.547,737.793,15.90,-5.25,-36.00,17.44
5956,7.23,-1.26,-49.71,439.453,-447.266,550.781,15.90,-5.25,-36.00,17.53
5968,-0.19,-4.79,-47.38,-280.762,-589.844,94.727,15.15,-7.35,-34.80,17.34
5990,-3.59,-0.82,-41.61,-159.180,-537.109,1302.246,17.10,-4.05,-36.75,17.34
5999,0.36,2.28,-48.91,145.020,-713.379,1083.496,15.30,-5.55,-35.40,17.53
6009,3.47,1.54,-39.65,-390.625,-492.676,1518.555,18.00,-5.85,-34.20,17.49
6019,8.91,8.38,-42.98,-206.543,-603.516,583.008,15.90,-6.45,-36.00,17.25
6029,4.39,8.29,-45.36,-157.715,-510.742,1860.840,18.90,-4.95,-35.55,17.29
6039,-0.63,-0.66,-50.33,-261.719,-434.082,805.664,18.90,-4.95,-35.55,17.44
6051,-1.95,12.41,-47.40,170.410,-669.922,1058.594,17.55,-5.55,-35.70,17.44
6061,-0.93,5.92,-43.89,488.770,-659.668,955.566,18.00,-8.25,-34.95,17.44
6071,-2.06,4.10,-45.38,-253.418,-377.441,1597.168,17.25,-6.30,-36.60,17.34
6081,-4.87,3.81,-46.50,-82.031,-168.457,1329.590,18.75,-6.30,-35.70,17.49
6091,-0.60,-4.11,-44.25,211.914,-371.582,1442.871,18.75,-6.30,-35.70,17.34
6101,6.35,0.79,-53.27,-39.063,-567.383,1148.926,19.35,-6.15,-35.25,17.44
6113,-0.70,-0.73,-44.84,79.590,-543.457,1051.758,17.85,-7.65,-36.30,17.49
6123,-4.02,-7.11,-56.94,-159.180,-341.797,1498.047,18.60,-7.65,-37.05,17.10
6133,5.05,-4.76,-49.46,-62.988,74.707,1196.289,18.60,-7.35,-37.80,17.34
6143,1.65,-11.18,-50.61,316.895,-387.695,858.398,19.50,-7.05,-35.40,17.49
6153,-4.51,-5.06,-49.70,162.109,-644.531,960.449,18.00,-8.70,-37.35,17.44
6163,-7.56,-3.01,-48.26,126.953,-248.535,1433.105,18.00,-8.70,-37.35,17.68
6173,-1.68,-3.60,-45.68,-259.766,-268.066,855.957,18.90,-9.75,-35.25,17.44
6185,-0.90,4.73,-46.13,-100.098,-536.133,602.051,19.95,-7.50,-38.40,17.34
6195,-1.82,1.19,-45.76,28.809,-809.082,605.957,19.35,-8.85,-34.80,17.49
6205,-2.26,0.02,-46.57,-312.988,-585.937,972.656,19.20,-8.25,-36.15,17.15
6215,-2.18,-2.43,-42.02,-99.609,-382.812,1445.313,20.85,-6.90,-36.30,17.25
6225,2.08,-2.30,-42.69,-70.801,-409.180,885.254,19.50,-9.45,-36.15,17.44
6235,3.21,3.43,-53.75,-5.859,-791.992,471.680,20.70,-7.50,-36.60,17.53
6245,3.63,1.09,-44.63,135.254,-791.016,1123.535,20.70,-7.50,-36.60,17.49
6257,4.52,1.58,-43.45,-148.437,-294.434,1372.559,21.45,-7.50,-37.65,17.34
6267,3.65,-2.79,-45.39,-191.895,-480.469,713.867,20.70,-9.45,-35.70,17.34
6277,13.11,5.24,-40.85,-93.750,-931.641,917.480,20.10,-8.85,-38.55,17.44
6287,0.18,0.89,-48.69,-43.945,-163.574,1450.195,20.25,-10.35,-36.60,17.25
6297,-1.83,0.80,-48.92,-732.422,-192.871,1777.344,20.25,-10.35,-36.60,17.53
6307,8.58,-1.21,-44.14,-169.922,-584.473,1530.273,20.85,-8.55,-37.80,17.25
6317,3.59,-2.26,-44.29,240.723,-402.344,1588.379,21.45,-9.90,-36.60,17.44
6329,5.13,-1.95,-44.39,38.086,-665.527,257.324,21.45,-9.90,-36.60,17.53
6339,-5.93,1.97,-49.73,-207.520,-408.691,699.219,22.20,-8.70,-36.90,17.44
6349,-2.24,3.41,-48.99,274.414,-274.902,461.426,20.85,-11.70,-37.50,17.25
6359,4.15,3.31,-50.00,129.395,-630.859,856.445,21.00,-9.15,-38.10,17.53
6368,-2.17,9.70,-53.31,-270.020,-285.156,820.312,21.60,-11.70,-38.55,17.49
6378,-5.18,13.81,-41.03,278.320,-423.828,652.344,21.60,-11.70,-38.55,17.49
6388,-6.34,4.02,-49.52,-250.000,-614.258,1260.742,21.00,-11.10,-36.60,17.34
6400,-0.98,1.07,-46.41,133.789,-549.316,1198.242,21.00,-11.10,-38.85,17.49
6410,-1.05,3.47,-47.02,-83.496,-798.340,1106.934,22.95,-9.90,-38.40,17.49
6420,-0.36,1.02,-46.51,-84.473,-720.703,563.477,21.90,-11.55,-38.10,17.34
6430,-9.35,3.59,-55.79,-356.934,-596.191,624.023,21.90,-11.55,-38.10,17.34
6440,-1.01,1.38,-47.10,-128.906,-467.773,920.410,22.35,-11.25,-39.75,17.10
6450,-0.29,3.86,-47.21,-581.543,-633.301,1369.629,21.45,-10.35,-39.15,17.49
6460,4.69,6.02,-48.92,16.113,-421.387,1015.625,21.45,-10.35,-39.15,17.63
6471,6.54,7.32,-45.07,-183.594,-658.203,811.523,23.70,-11.10,-41.10,17.49
6481,4.07,6.03,-55.16,-219.238,-556.152,319.824,22.95,-11.85,-39.90,17.49
6491,-4.17,4.62,-49.84,-189.941,-781.738,1428.223,23.40,-12.75,-40.65,17.53
6506,-4.09,5.75,-42.43,51.270,-108.398,521.484,22.20,-11.85,-39.60,17.25
6516,-1.73,4.37,-41.94,-398.437,69.336,1923.828,22.65,-12.30,-41.10,17.34
6526,-1.02,4.82,-39.69,-187.500,-331.543,1395.020,23.70,-12.75,-38.85,17.29
6536,-5.58,11.55,-49.57,-133.789,-353.516,1168.457,24.60,-11.85,-40.35,17.25
6548,-5.14,8.37,-44.59,125.977,-299.805,524.414,23.40,-13.80,-39.90,17.44
6558,-6.89,1.15,-41.29,128.906,-581.543,803.711,24.90,-14.25,-41.40,17.49
6568,1.74,0.81,-42.56,-125.000,-558.594,1083.496,25.65,-14.25,-39.15,17.49
6578,2.35,-5.27,-45.00,-38.574,-232.910,650.879,25.05,-14.40,-39.00,17.34
6588,1.89,-9.69,-45.21,-54.688,-427.734,1933.594,25.05,-14.40,-39.00,17.25
6598,5.72,-10.52,-41.86,-52.246,-405.762,518.555,24.00,-13.65,-40.50,17.34
6608,3.48,-8.73,-41.08,31.738,-337.891,1598.145,23.70,-14.25,-40.35,17.63
6620,0.04,-10.53,-44.29,-257.812,-1028.809,1488.770,24.15,-14.25,-39.90,17.44
6630,6.21,-11.69,-25.97,-469.238,-277.344,1486.816,24.60,-15.00,-40.35,17.49
6640,7.44,-6.61,-46.20,-223.145,-638.672,909.668,24.60,-15.00,-40.35,17.25
6650,-0.49,3.76,-38.46,-195.801,-367.187,523.926,24.60,-15.90,-39.90,17.49
6660,8.37,3.43,-40.79,146.973,-475.098,1426.270,24.30,-14.10,-40.05,17.63
6670,-1.54,4.56,-33.67,-52.246,-721.191,1048.828,24.30,-14.10,-40.05,17.25
6682,-12.85,4.93,-35.81,-216.797,-624.023,605.957,24.75,-16.50,-39.00,17.53
6692,-7.93,3.56,-40.70,-78.613,-268.066,1609.375,24.75,-15.30,-40.50,17.29
6702,2.24,3.34,-33.05,-37.109,40.527,883.789,23.55,-16.05,-40.05,17.34
6711,7.28,0.13,-39.08,-161.621,-377.930,1371.094,23.55,-15.30,-40.50,17.49
6721,7.92,-3.63,-43.11,-64.453,-204.102,934.570,23.55,-15.30,-40.50,17.63
6731,7.99,-0.44,-38.16,-210.937,-710.449,1309.570,24.60,-17.10,-40.35,17.53
6741,-1.08,-4.35,-39.76,101.074,-725.586,876.465,23.40,-16.65,-39.60,17.10
6753,-5.61,-8.98,-35.95,55.664,-445.312,1268.066,24.30,-18.45,-39.75,17.10
6763,-3.89,0.24,-40.31,-92.773,-374.512,1755.371,24.30,-18.45,-39.75,17.01
6773,-8.20,-8.54,-38.72,-148.926,-361.816,1240.234,24.30,-18.45,-39.75,17.63
6783,0.22,-6.63,-39.57,61.523,-504.883,1145.996,23.40,-18.60,-76.80,17.49
6793,-5.40,-5.33,-33.98,-240.234,-138.672,1240.723,23.40,-18.60,-38.40,17.44
6803,3.44,-3.08,-31.09,-101.074,-66.406,507.324,23.40,-18.60,-38.40,17.63
6813,6.13,-5.42,-32.33,-92.285,-245.117,1101.074,24.15,-20.25,-39.15,17.53
6825,-0.73,6.34,-39.28,-113.770,-90.820,876.465,24.00,-18.45,-40.05,17.34
6835,6.70,6.87,-36.89,-99.121,-462.891,820.312,23.70,-19.50,-38.40,17.63
6845,3.04,3.76,-22.40,140.137,-442.383,750.488,23.70,-19.50,-38.40,17.15
6855,1.56,1.83,-29.11,22.949,-350.098,1277.832,25.05,-19.20,-40.05,17.49
6864,1.88,2.01,-30.28,-30.273,-102.051,741.699,23.55,-20.85,-40.50,17.29
6874,-3.05,2.38,-34.15,302.734,-358.887,1004.395,23.55,-20.85,-40.50,17.44
6884,-5.74,2.15,-36.13,185.059,-423.340,634.766,24.15,-21.00,-39.15,17.53
6896,2.61,1.38,-27.55,-103.516,-437.012,1137.695,23.70,-19.05,-40.65,17.29
6906,-0.47,-1.66,-38.13,-122.070,-235.840,1142.090,24.90,-20.25,-38.10,17.49
6916,9.53,-2.36,-32.46,215.820,-715.820,805.664,23.70,-19.05,-41.10,17.15
6926,6.55,4.53,-39.50,70.801,-709.961,857.910,23.70,-19.05,-41.10,17.63
6935,-0.56,0.36,-36.95,122.070,-550.293,797.852,22.95,-19.80,-39.15,17.49
6945,-5.00,-1.05,-33.63,-98.145,-530.762,835.937,24.60,-19.50,-39.60,17.49
6957,1.61,-4.16,-34.56,242.676,-382.812,1004.395,24.00,-21.30,-39.00,17.34
6967,-0.71,-3.32,-32.38,285.156,-808.105,891.602,24.90,-19.80,-39.90,17.77
6977,-1.50,2.21,-28.05,-253.418,-260.742,1586.914,24.90,-19.80,-39.90,17.34
6987,-1.95,-1.56,-33.76,-179.199,-54.688,1281.250,23.25,-22.05,-40.50,17.25
6997,-1.64,3.38,-27.22,-432.617,-434.082,1007.812,24.15,-20.25,-38.85,17.44
7007,-2.63,4.31,-57.71,-148.926,-479.492,638.184,24.15,-20.25,-38.85,17.49
7024,-6.08,15.82,-37.94,-205.566,-16.113,583.008,23.70,-21.45,-40.35,17.44
7033,0.43,6.85,-35.98,89.355,-231.445,1374.023,23.40,-21.90,-38.40,17.49
7043,-2.20,7.63,-36.02,207.520,-500.000,587.891,23.40,-22.20,-39.90,17.49
7053,2.40,5.76,-27.71,84.961,-668.945,1536.621,24.60,-21.90,-39.15,17.34
7063,-2.96,4.92,-33.26,196.777,-295.410,775.391,24.60,-21.90,-39.15,17.68
7073,-4.44,2.73,-33.42,27.344,-388.672,1109.375,23.55,-22.05,-38.55,17.34
7083,1.22,-4.78,-34.18,187.500,-741.211,675.293,24.60,-23.40,-38.85,17.29
7095,-6.29,-8.63,-31.47,36.133,-410.645,711.914,24.60,-22.20,-39.15,17.68
7105,2.27,-6.21,-29.43,-264.648,-455.566,773.437,23.25,-24.00,-40.05,17.44
7115,3.70,-0.16,-35.95,171.875,-488.770,1211.914,24.30,-21.60,-40.05,17.25
7125,6.24,-1.22,-31.89,-37.109,-210.449,685.547,24.00,-24.00,-40.05,17.44
7135,-0.11,-7.37,-35.22,-387.207,-531.738,1999.939,24.00,-24.00,-40.05,17.10
7145,4.63,-2.04,-31.21,-13.672,-809.082,846.680,24.60,-23.10,-39.60,17.25
7155,-10.98,5.97,-35.65,188.477,-463.867,676.270,22.95,-24.60,-39.90,17.63
7167,-6.21,7.67,-33.40,-38.574,-64.453,718.750,23.40,-22.20,-40.65,17.49
7177,-5.76,10.47,-33.08,117.676,-497.559,552.246,23.70,-25.50,-38.85,17.53
7187,-2.49,1.97,-29.41,-55.176,-361.816,1377.441,23.70,-25.50,-38.85,17.44
7197,-7.90,1.36,-39.93,-306.641,-484.863,1030.273,23.70,-24.30,-39.90,17.44
7207,-6.15,5.47,-37.31,239.258,-354.004,543.457,23.40,-26.25,-38.85,17.63
7217,-0.15,7.05,-30.55,99.609,-439.941,1475.098,23.40,-26.25,-38.85,17.10
7227,-3.81,1.53,-40.34,-370.605,-347.656,1760.254,23.70,-24.30,-39.90,17.44
7239,2.65,-0.16,-36.82,165.039,-498.047,909.180,22.35,-25.65,-39.75,17.29
7249,-6.42,-10.16,-32.64,-469.238,-676.758,1999.939,23.55,-24.45,-40.05,17.49
7259,-6.05,-4.16,-30.11,218.750,-618.164,907.715,23.40,-26.25,-39.15,17.49
7269,0.29,-0.40,-37.15,196.289,-425.781,1241.699,23.40,-26.25,-39.15,17.49
7279,-7.30,-8.60,-39.98,-67.871,-305.664,1999.939,23.70,-24.60,-39.15,17.63
7289,-8.47,-12.07,-34.25,269.043,-384.277,334.961,22.20,-26.55,-39.60,17.25
7299,-0.39,-5.18,-35.13,67.383,-187.012,735.352,23.40,-24.30,-40.65,17.29
7311,6.60,-6.05,-33.02,145.508,-598.633,1257.324,23.70,-27.00,-39.90,17.25
7321,3.21,7.07,-40.16,276.855,-391.113,461.426,23.40,-26.25,-39.90,17.25
7330,-0.92,4.60,-35.53,296.387,-292.480,615.234,23.25,-24.90,-40.50,17.44
7340,2.29,-4.62,-28.40,170.410,-736.328,701.660,22.65,-27.00,-39.60,17.68
7350,-4.07,2.35,-28.49,26.855,-606.934,745.117,22.65,-27.00,-39.60,17.49
7360,-9.15,-2.82,-27.22,-454.590,-106.445,1018.066,22.65,-27.45,-38.85,17.25
7372,1.35,2.09,-36.21,197.266,-156.738,725.098,22.20,-27.75,-42.15,17.77
7382,1.53,0.05,-30.24,-85.449,-567.383,1676.758,22.80,-25.65,-40.05,17.29
7392,-3.37,-4.14,-21.53,239.746,-478.516,1982.910,23.25,-27.15,-39.75,17.25
7402,-6.11,6.25,-28.85,187.500,-503.418,380.371,23.25,-27.15,-39.75,17.49
7412,-1.53,1.58,-23.12,-251.465,-173.340,560.547,22.05,-26.85,-39.75,17.49
7422,-0.55,-9.82,-33.58,-90.820,-95.215,1234.375,21.90,-28.95,-40.35,17.49
7432,-0.34,-1.19,-27.89,212.891,-569.824,799.316,21.90,-28.95,-40.35,17.49
7444,-1.49,1.02,-31.75,163.086,-729.492,483.398,22.20,-27.75,-39.15,17.53
7454,10.40,7.82,-33.16,262.695,-729.004,786.621,21.00,-27.75,-40.65,17.44
7464,-3.96,0.46,-39.19,-288.086,-450.195,1630.859,22.05,-26.85,-40.05,17.34
7474,-4.31,-2.31,-44.72,222.168,-671.875,830.078,21.90,-28.95,-39.90,17.63
7484,0.55,2.51,-34.03,56.152,-385.254,1050.781,21.90,-28.95,-39.90,17.44
7494,-3.72,-3.71,-32.66,-99.609,-330.566,1443.359,21.90,-27.75,-39.15,17.63
7504,-5.76,-2.77,-39.76,295.410,-806.641,619.629,20.85,-29.25,-40.80,17.53
7516,-6.92,0.71,-43.52,-374.023,8.789,1999.939,22.65,-28.95,-38.10,17.44
7526,2.79,2.16,-36.15,678.711,-779.297,60.059,21.45,-29.40,-40.65,17.53
7541,1.35,1.49,-28.24,-74.707,-97.656,-220.215,21.30,-28.05,-40.05,17.53
7550,-0.90,-8.31,-32.60,177.246,-92.285,1776.855,21.30,-29.55,-38.55,17.49
7560,12.50,4.99,-31.73,418.945,-891.113,798.340,21.30,-29.55,-38.55,17.49
7569,0.21,6.73,-31.61,253.906,-351.562,816.406,21.60,-27.60,-39.30,17.77
7580,-2.07,-6.27,-41.47,509.766,-732.910,-497.070,21.90,-29.40,-39.15,17.25
7590,-7.49,-0.11,-27.34,-144.043,-357.910,1517.090,21.00,-28.65,-41.85,17.34
7600,-0.36,-4.41,-46.30,51.758,-777.344,1999.939,21.45,-28.65,-39.60,17.49
7610,-0.65,-3.02,-24.44,438.965,-661.133,106.934,21.45,-28.65,-39.60,17.49
7620,6.72,5.50,-38.53,92.285,-354.004,291.504,20.25,-28.95,-40.65,17.49
7630,3.21,-4.15,-30.73,239.746,-638.184,201.660,20.25,-30.60,-39.90,17.29
7640,7.54,2.47,-25.72,46.875,-789.551,814.941,20.25,-30.60,-39.90,17.44
7651,-2.00,-9.27,-36.02,641.602,-721.680,854.004,21.45,-29.40,-41.10,17.82
7661,-0.74,4.22,-27.38,31.250,-405.273,1210.938,21.90,-31.35,-39.90,17.25
7671,-9.65,-1.18,-35.83,-122.559,-312.988,1999.939,20.70,-29.85,-41.85,17.34
7681,-5.00,-0.02,-29.05,428.223,-411.133,-114.746,21.30,-30.00,-39.75,17.68
7691,10.56,4.81,-40.17,-204.590,-873.047,608.887,21.30,-30.00,-39.75,17.53
7701,-1.38,-1.55,-35.85,746.582,-578.125,553.711,18.90,-31.65,-40.50,17.53
7713,2.67,-9.37,-36.81,297.363,117.188,1999.939,19.50,-31.05,-40.65,17.53
7723,4.66,1.60,-40.74,-166.016,-561.523,368.164,19.35,-31.20,-39.30,17.63
7733,12.26,-1.85,-38.80,-521.484,-238.770,616.699,19.65,-29.55,-40.80,17.49
7743,6.38,-6.73,-25.76,541.016,-715.332,-292.480,19.65,-29.55,-40.80,17.25
7753,5.60,6.21,-35.25,-319.824,-343.750,224.121,19.20,-33.45,-39.90,17.53
7763,7.22,-5.97,-48.83,617.187,-1255.371,1999.939,19.20,-30.60,-40.35,17.68
7773,-5.01,0.18,-22.83,-446.289,-615.723,457.520,19.20,-30.60,-40.35,17.77
7785,-1.50,0.30,-35.40,-308.105,-309.082,805.664,18.60,-29.55,-41.25,17.53
7795,-12.37,-9.82,-43.66,-532.715,52.734,1043.457,18.60,-29.55,-41.25,17.63
7805,1.89,-1.18,-40.19,222.168,-404.785,-444.336,19.95,-32.55,-39.90,17.68
7815,0.98,4.05,-32.05,-682.617,64.453,1487.305,18.45,-33.00,-39.90,17.34
7825,6.73,-5.62,-51.29,653.809,-921.387,-317.383,18.45,-33.00,-39.90,17.34
7835,8.37,5.29,-28.22,-438.477,-678.711,1397.949,18.75,-33.60,-40.50,17.68
7845,4.38,-3.68,-41.15,428.711,-765.137,1999.939,18.75,-33.00,-40.35,17.68
7857,-3.80,-8.02,-32.72,92.285,-314.453,1999.939,19.95,-34.65,-39.15,17.53
7867,7.44,2.15,-34.86,-172.363,-537.109,1668.945,18.90,-33.15,-39.30,17.49
7877,2.93,-1.40,-34.16,455.078,-1090.820,1999.939,18.75,-30.60,-41.10,17.49
7887,-1.87,1.07,-34.31,205.566,-649.902,-16.602,18.60,-33.60,-39.30,17.49
7897,-5.59,-2.89,-38.41,-345.703,-104.980,-291.016,18.60,-33.60,-39.30,17.53
7907,-1.53,-1.95,-33.01,382.324,-772.461,-444.824,18.15,-31.65,-40.05,17.25
7917,-8.92,-1.05,-40.50,-281.738,438.477,-105.957,19.20,-33.00,-41.40,17.63
7929,-2.01,4.40,-42.15,-424.316,-687.500,137.695,18.75,-31.35,-41.40,17.15
7939,0.15,-14.89,-49.76,1182.617,-674.805,578.613,18.60,-30.75,-40.05,17.49
7949,-12.60,9.97,-48.98,-670.410,-257.324,1088.379,18.60,-30.75,-40.05,17.63
7959,8.60,-12.29,-40.15,458.008,-396.973,1999.939,17.85,-32.40,-40.80,17.34
7969,-6.15,5.91,-27.41,-380.859,-52.246,-222.656,17.40,-31.95,-39.75,17.77
7979,6.81,-12.64,-32.09,427.246,-325.684,552.734,17.40,-31.95,-39.75,17.49
7991,-10.96,-13.29,-41.79,291.016,-410.645,105.957,18.00,-33.00,-40.35,17.53
8001,1.29,0.31,-30.27,-559.570,-99.609,88.379,16.65,-33.15,-39.00,17.44
8011,3.92,-5.36,-31.89,205.078,-766.602,-75.684,17.25,-33.75,-38.85,17.34
8021,-4.67,0.98,-33.37,-457.520,517.578,517.578,16.50,-33.75,-41.40,17.34
8031,1.06,3.02,-33.81,461.426,-647.461,-50.781,16.50,-33.75,-41.40,17.63
8041,1.51,10.92,-24.31,-317.871,-389.648,559.082,17.40,-36.45,-38.55,17.63
8056,-3.05,1.30,-34.02,659.180,-722.656,-83.984,16.65,-32.85,-40.50,17.44
8065,5.37,0.59,-36.37,-182.129,453.613,491.699,16.65,-32.85,-40.50,17.53
8077,-2.63,-5.44,-30.61,145.996,39.063,261.719,16.50,-34.95,-39.15,17.25
8087,1.85,0.15,-30.63,74.707,-402.344,-418.457,17.40,-33.15,-38.55,17.34
8097,-10.72,3.93,-39.01,-153.320,-539.551,1062.012,16.80,-36.15,-39.90,17.29
8107,-3.56,-3.53,-32.79,-181.641,-314.941,123.535,16.80,-36.15,-39.90,17.68
8117,-14.24,-1.18,-27.70,-209.961,-199.219,1999.939,16.05,-33.00,-39.60,17.49
8127,-4.25,7.70,-30.76,-20.020,-485.840,-579.102,17.25,-36.15,-38.40,17.44
8137,-17.40,-0.98,-32.17,-152.832,-132.324,1555.664,14.70,-34.35,-40.50,17.10
8149,-1.21,-2.33,-37.92,9.766,-1242.676,1999.939,16.20,-33.60,-38.55,17.63
8159,-1.73,-3.50,-39.81,-460.937,-485.840,1063.965,16.20,-33.60,-38.55,17.25
8169,4.73,-2.87,-26.85,439.453,-1166.992,1999.939,15.90,-35.25,-39.30,17.68
8179,-2.53,1.40,-40.71,-710.449,-145.996,1253.906,13.95,-33.60,-38.25,17.53
8189,6.75,-2.40,-29.27,855.957,-771.484,1481.445,13.95,-33.60,-38.25,17.68
8199,-1.02,4.66,-23.81,-302.734,-166.504,1545.898,15.75,-36.60,-39.90,17.49
8209,5.45,-8.47,-43.44,166.016,-566.895,1765.137,14.10,-34.65,-38.40,17.68
8221,7.18,-13.31,-44.72,-380.371,-619.141,52.734,15.30,-34.95,-37.35,17.44
8231,-15.14,-9.13,-30.99,191.406,75.684,1541.016,14.10,-36.60,-38.85,17.49
8241,-0.23,2.68,-27.18,-25.391,-53.711,197.754,14.10,-36.60,-38.85,17.44
8251,10.85,9.23,-26.53,892.090,-1190.918,1999.939,14.55,-34.65,-38.10,17.49
8260,6.13,-2.14,-45.02,-0.488,-869.629,-613.281,14.10,-36.15,-38.10,17.49
8270,-16.45,12.36,-23.66,18.066,-655.762,773.437,13.35,-35.40,-38.85,17.63
8282,-6.63,7.82,-41.79,147.461,-324.219,1031.250,13.50,-34.35,-38.25,17.63
8292,-6.65,4.05,-30.24,-30.273,426.758,398.437,15.15,-36.75,-37.50,17.53
8302,6.85,-0.69,-48.46,124.512,-2.930,1999.939,14.85,-36.60,-38.40,17.49
8312,7.19,5.69,-28.09,7.324,-880.371,1487.305,13.05,-33.75,-39.60,17.29
8322,2.49,1.58,-41.95,-392.578,-436.035,541.992,13.05,-33.75,-39.60,17.53
8332,5.89,-9.91,-28.18,570.801,-741.211,1799.316,13.50,-36.75,-39.30,17.49
8342,-5.37,11.84,-38.43,-658.203,-77.148,751.953,13.05,-34.20,-38.85,17.53
8354,1.25,9.55,-34.65,22.949,-517.578,406.738,14.10,-35.40,-38.10,17.63
8364,2.98,5.79,-21.60,-178.223,-399.414,609.863,13.95,-37.65,-38.25,17.53
8374,7.36,4.48,-26.73,175.781,-333.008,349.121,13.95,-37.65,-38.25,17.49
8383,9.85,2.61,-36.80,-235.840,-655.762,1097.168,13.95,-35.55,-37.80,17.25
8393,10.92,3.96,-35.49,320.312,-711.426,1999.939,13.35,-37.05,-37.65,17.53
8403,4.27,5.18,-35.85,-183.105,-602.051,-148.437,13.35,-37.05,-37.65,17.63
8413,6.89,1.18,-29.43,212.891,-878.906,1244.629,13.50,-36.00,-39.00,17.63
8425,-8.31,-2.17,-33.73,1108.887,-893.555,1362.793,12.30,-37.35,-37.35,17.77
8435,-9.60,2.63,-24.75,-384.277,-266.602,407.227,12.00,-36.75,-38.55,17.44
8445,2.27,-3.38,-35.70,0.488,-311.035,1087.402,12.60,-34.65,-38.85,17.63
8455,2.95,-4.67,-34.27,899.902,-438.965,1999.939,12.60,-34.65,-38.85,17.82
8465,7.50,-3.31,-37.64,-43.945,-315.430,-207.520,12.75,-38.40,-38.25,17.25
8475,-0.44,3.40,-32.28,668.945,-449.707,245.605,12.30,-36.60,-38.40,17.49
8485,-9.23,-5.63,-33.10,57.129,-317.383,878.906,13.20,-37.20,-37.05,17.82
8497,7.34,0.75,-39.79,246.094,-677.734,1652.344,13.35,-38.25,-39.15,17.53
8507,6.56,3.35,-41.52,-63.965,-619.141,-484.375,13.50,-36.75,-36.75,17.53
8517,-3.08,-0.44,-40.34,733.887,-1.953,1510.742,11.85,-37.05,-38.10,17.49
8527,-0.22,2.62,-38.25,48.828,-494.141,1276.367,11.85,-37.05,-38.10,17.53
8537,4.86,2.27,-47.78,-281.250,-333.008,1157.227,11.25,-35.55,-38.25,17.53
8547,7.72,9.01,-33.01,836.914,-434.082,1999.939,11.40,-37.05,-37.35,17.25
8556,16.96,-3.06,-48.59,9.277,-604.004,1339.355,11.40,-37.05,-37.35,17.68
8573,8.53,-1.44,-28.39,-411.133,-626.953,264.648,12.30,-36.15,-38.85,17.49
8582,11.00,2.35,-36.24,201.172,-1102.539,1716.797,12.30,-36.15,-38.85,17.63
8592,-1.59,6.89,-48.73,-336.426,-114.746,619.629,11.85,-38.25,-38.40,17.44
8602,-2.79,-8.85,-34.58,-26.855,-250.000,711.914,10.35,-36.60,-38.40,17.29
8612,5.71,-9.55,-32.73,-237.305,-1322.266,390.625,11.25,-36.00,-37.80,17.49
8622,1.51,-4.15,-37.97,-423.828,-249.023,1959.473,10.50,-37.95,-36.75,17.77
8634,5.50,-3.69,-33.22,-53.711,-865.234,1391.113,11.25,-37.65,-38.55,17.49
8644,2.51,1.15,-40.26,-724.121,-718.750,622.559,10.65,-37.05,-37.35,17.63
8654,-2.40,-0.10,-56.66,229.492,-1071.777,1999.939,10.35,-37.05,-36.60,17.63
8664,3.77,2.24,-47.24,-154.297,-446.289,-14.160,10.35,-37.05,-36.60,17.53
8674,4.90,-2.38,-52.59,-623.535,-1037.598,1699.707,10.95,-37.20,-38.55,17.53
8684,0.79,1.05,-27.98,636.719,-864.258,1667.969,10.65,-35.85,-36.60,17.25
8695,4.46,3.41,-49.59,6.836,-1556.152,1861.816,11.70,-37.20,-36.75,17.49
8705,8.73,2.98,-47.40,-775.391,-806.152,903.320,11.10,-37.05,-37.35,17.44
8715,3.37,1.63,-35.23,325.195,-287.109,1711.914,11.10,-37.05,-37.35,17.49
8724,2.98,-0.83,-45.92,-13.672,-79.590,20.508,11.85,-37.80,-36.90,17.87
8734,12.07,4.53,-43.94,119.629,-328.125,632.812,12.30,-37.35,-38.40,17.25
8744,6.17,6.60,-47.47,-10.254,-550.781,1589.355,12.30,-37.35,-38.40,17.25
8754,10.08,2.92,-34.69,-85.449,-1046.875,1802.246,10.65,-37.05,-37.35,17.63
8766,3.18,4.95,-48.24,-750.488,-342.285,966.797,10.65,-37.80,-38.40,17.53
8776,4.13,1.72,-43.98,581.543,-650.879,1696.289,8.70,-37.35,-37.65,17.44
8786,-0.11,3.44,-52.40,-311.035,-96.191,942.871,10.05,-37.95,-37.05,17.63
8796,-0.15,5.02,-54.95,-304.687,-814.941,1582.031,10.05,-37.95,-37.05,17.77
8806,1.91,0.23,-45.08,110.840,-955.566,1055.664,10.05,-37.20,-37.50,17.44
8816,-4.08,2.89,-51.78,-396.484,-285.156,874.023,10.05,-36.75,-38.55,17.49
8826,6.03,-2.91,-40.95,370.605,-1226.074,1496.582,10.35,-38.25,-36.90,17.25
8838,3.89,-9.61,-45.35,101.074,-266.113,1088.379,10.50,-36.45,-38.25,17.34
8848,-3.40,3.13,-51.03,16.113,-527.832,1079.590,8.70,-38.25,-36.90,17.01
8858,0.90,-4.34,-38.53,-191.406,-673.340,709.961,10.05,-37.95,-37.50,17.34
8868,-4.27,3.79,-43.41,277.832,-564.941,954.102,10.05,-37.95,-37.50,17.53
8878,6.68,2.02,-62.48,-266.113,-243.164,407.715,10.65,-37.80,-38.40,17.49
8888,13.26,-2.68,-49.65,-372.559,-1031.738,1999.939,9.15,-37.80,-37.35,17.49
8898,10.11,7.39,-57.18,-231.445,-699.219,1761.230,9.30,-37.20,-38.25,17.25
8910,5.92,8.43,-55.16,-190.918,-651.367,1224.609,9.30,-38.70,-36.75,17.68
8920,7.49,-2.92,-38.46,-294.922,-559.570,1887.207,9.30,-38.70,-36.75,17.44
8930,7.05,-0.15,-39.27,-160.156,-751.953,630.371,9.75,-37.65,-38.25,17.25
8940,4.76,-8.26,-47.22,241.211,-1082.520,1633.301,9.60,-37.80,-38.85,17.49
8950,-4.50,2.05,-51.31,-102.051,-387.695,392.578,9.60,-37.80,-38.85,17.34
8960,-6.01,-1.70,-53.24,-195.312,-243.164,940.918,9.00,-38.40,-37.05,17.29
8972,-8.72,-1.29,-52.39,-436.035,-207.031,651.367,8.70,-38.55,-37.65,17.44
8982,9.79,-11.31,-47.11,-96.191,-937.012,1231.934,8.40,-38.55,-38.40,17.34
8992,8.34,-6.37,-59.79,-423.828,-538.574,657.715,8.25,-38.70,-38.25,17.49
9002,7.24,-0.63,-47.86,-188.965,-902.832,722.168,8.25,-38.70,-38.25,17.68
9012,-3.58,-0.63,-54.68,-13.184,-647.949,500.488,7.95,-37.35,-38.10,17.49
9022,-1.00,-0.52,-45.50,-237.305,-477.539,450.195,7.95,-39.30,-36.90,17.63
9032,3.12,1.91,-40.75,-346.191,-1130.371,1136.230,7.95,-37.80,-36.90,17.53
9044,-3.21,3.08,-42.34,-224.121,-431.641,1463.379,8.55,-38.40,-37.50,17.77
9054,-5.69,5.41,-48.37,-204.102,-673.828,1371.094,8.55,-38.40,-37.50,17.82
9064,0.49,4.34,-62.76,-164.062,-312.988,701.172,7.80,-39.90,-38.55,17.53
9074,15.85,11.18,-49.81,56.152,-538.086,896.973,7.80,-39.15,-37.05,17.53
9089,6.07,-0.67,-44.66,-324.219,-462.891,915.527,8.25,-39.60,-37.80,17.49
9098,6.28,2.24,-56.68,48.340,-1006.348,294.922,7.05,-38.40,-37.50,17.63
9108,-5.21,6.98,-47.78,-56.641,-779.297,669.922,7.05,-38.40,-37.50,17.44
9118,2.14,0.27,-53.80,-13.184,-677.246,980.957,6.45,-39.30,-37.35,17.63
9130,0.19,-1.13,-47.03,219.727,-809.082,1152.832,6.45,-39.30,-37.35,17.49
9140,2.40,0.38,-47.94,-465.820,-594.727,558.105,6.30,-39.90,-37.05,17.77
9150,2.13,-5.55,-50.51,17.578,-973.633,1224.609,7.80,-38.70,-37.80,17.34
9160,-4.36,-0.67,-46.98,-218.750,-362.793,387.207,7.05,-39.60,-36.30,17.25
9170,-2.46,-6.15,-55.95,-446.289,-401.367,1288.574,6.90,-39.75,-36.15,17.44
9180,13.59,0.58,-40.76,3.906,-664.062,566.895,5.25,-39.75,-37.35,17.49
9189,-4.29,-0.47,-47.78,-30.273,-591.309,1041.016,5.25,-40.95,-36.60,17.49
9201,-2.43,-3.66,-56.61,-381.836,-152.344,1404.785,4.20,-40.20,-35.70,17.34
9211,3.01,-3.30,-43.67,17.090,-736.328,309.082,4.20,-40.20,-35.70,17.49
9221,-10.80,-1.18,-51.65,-393.066,-126.953,1408.691,4.35,-38.70,-36.00,17.34
9231,1.09,-7.24,-40.39,-50.781,-634.766,1039.551,4.95,-41.40,-36.15,17.49
9241,-0.78,7.79,-49.08,-291.016,-1021.484,601.074,4.50,-39.75,-37.35,17.53
9251,0.24,5.19,-46.02,-235.840,-653.320,289.551,3.90,-39.60,-35.55,17.49
9261,2.34,8.40,-48.56,-184.082,-160.645,1335.938,3.90,-39.60,-35.55,17.49
9273,10.42,4.79,-46.02,103.027,-236.816,1999.939,3.15,-39.60,-36.75,17.68
9283,11.83,0.20,-37.88,-165.039,-780.762,523.437,4.80,-39.90,-37.05,17.44
9293,4.12,1.82,-51.01,-268.555,-591.797,1072.754,4.80,-39.90,-37.05,17.49
9303,1.98,-0.15,-43.88,210.937,-968.262,504.883,3.60,-40.80,-36.00,17.29
9313,-15.01,1.24,-55.18,-775.391,-129.883,800.781,2.85,-41.10,-35.55,17.77
9323,-6.69,-13.25,-37.91,223.633,-621.582,-120.605,2.25,-41.70,-36.15,17.63
9335,0.34,-17.26,-40.37,188.965,-228.027,467.773,3.15,-41.10,-36.00,17.44
9345,17.08,-5.24,-50.63,-637.695,-986.328,1087.891,3.15,-41.10,-36.00,17.63
9355,15.05,-6.95,-45.64,-62.988,-1132.813,592.285,1.65,-42.30,-35.25,17.49
9365,-7.18,0.46,-62.89,-568.359,-625.000,1192.383,1.20,-41.10,-36.00,17.49
9375,-1.11,-9.66,-41.69,121.094,-908.203,1721.191,1.50,-41.40,-36.60,17.34
9385,-11.13,1.53,-49.05,-587.891,-494.629,840.332,1.20,-42.75,-34.50,17.49
9395,-2.36,-10.73,-45.15,110.840,-1190.918,1895.508,1.20,-42.75,-34.50,17.49
9407,-8.56,-11.24,-44.63,466.797,-1064.941,764.160,0.15,-42.00,-36.30,17.15
9417,-8.91,10.63,-44.06,-564.941,397.949,932.129,1.20,-42.75,-34.80,17.49
9427,1.11,0.15,-57.65,10.742,-733.398,-75.195,1.20,-42.75,-34.80,17.53
9437,13.94,1.55,-41.09,-314.453,-92.285,1617.676,2.25,-41.40,-36.15,17.63
9447,23.49,2.92,-39.69,268.555,-1538.574,1999.939,0.45,-43.50,-35.25,17.53
9457,5.93,8.25,-47.45,-18.555,-384.766,1540.527,-0.90,-41.55,-36.00,17.63
9467,0.51,-6.72,-47.44,176.270,-792.969,1999.939,0.00,-41.70,-34.65,17.44
9479,6.82,0.40,-53.95,211.914,-1248.047,1999.939,-0.90,-41.55,-36.00,17.49
9489,-1.85,7.80,-53.21,90.332,-700.684,796.875,-0.45,-42.30,-34.80,17.34
9499,-4.24,-10.27,-49.32,-175.781,-363.281,1804.688,-0.45,-42.30,-34.80,17.68
9509,4.17,3.95,-51.46,-268.066,-535.156,793.945,-0.75,-39.75,-35.70,17.49
9519,6.42,-1.07,-43.70,113.770,-599.609,1999.939,-0.30,-40.95,-34.95,17.49
9529,15.24,-1.60,-45.45,-244.141,-1123.535,711.914,-3.00,-42.90,-34.95,17.49
9539,1.26,2.03,-45.11,-264.648,-603.516,945.312,-1.50,-41.40,-36.15,17.68
9551,-7.47,1.82,-46.31,-260.742,-225.098,1544.434,-1.50,-41.40,-36.15,17.49
9561,0.16,-2.18,-52.56,99.121,-844.727,1263.184,-1.80,-42.15,-34.65,17.53
9571,-20.40,-1.24,-46.20,-455.078,-770.996,1999.939,-3.15,-39.90,-34.80,17.44
9581,-11.00,1.27,-45.92,357.910,-693.848,286.621,-3.60,-42.00,-34.80,17.49
9591,-2.18,12.02,-45.05,-549.316,-132.324,686.523,-3.15,-42.75,-35.55,17.63
9608,22.62,9.57,-59.44,-354.980,-599.609,516.113,-3.15,-42.75,-35.55,17.49
9617,14.72,0.39,-47.21,718.750,-1139.648,707.031,-3.90,-42.30,-33.30,17.53
9627,-7.64,3.33,-54.77,-206.543,-572.754,677.246,-3.90,-43.50,-36.30,17.53
9637,0.56,-0.45,-51.65,233.398,-1257.324,1735.840,-3.90,-43.50,-36.30,17.25
9647,0.20,9.31,-42.76,-271.973,-1032.227,1026.855,-4.50,-42.60,-35.40,17.63
9657,-10.63,2.69,-46.82,-381.836,-615.234,1789.551,-5.25,-42.60,-34.95,17.63
9667,1.82,0.98,-43.44,364.258,-888.184,230.957,-3.90,-41.10,-33.30,17.53
9680,-1.26,-0.40,-50.22,-249.512,-687.500,-14.648,-4.80,-42.75,-34.05,17.34
9689,-4.69,-8.52,-45.22,-189.453,615.723,358.887,-4.80,-42.75,-34.05,17.49
9699,6.91,4.92,-48.18,280.273,-482.422,-346.191,-4.80,-42.30,-34.80,17.77
9709,1.24,14.40,-60.56,-246.094,-340.820,464.355,-4.80,-42.30,-34.80,17.63
9719,14.97,-9.97,-35.24,833.008,-952.148,121.582,-4.95,-41.70,-34.95,17.29
9729,9.40,14.29,-60.51,-334.961,-899.902,-316.406,-5.10,-41.55,-34.05,17.53
9739,2.58,-10.92,-42.91,701.660,-788.574,-110.352,-5.10,-41.55,-34.05,17.49
9751,9.06,-14.70,-42.14,371.582,-1202.148,-359.375,-6.60,-41.10,-33.30,17.44
9761,6.63,7.45,-44.06,-803.223,-674.316,824.707,-6.60,-41.10,-33.30,17.49
9771,-3.35,5.12,-49.24,564.453,-152.832,1445.801,-6.90,-40.95,-34.95,17.53
9781,12.27,14.01,-50.15,-773.437,-201.660,1554.199,-7.35,-39.60,-34.05,17.68
9791,14.15,-7.79,-36.40,519.531,-1351.074,1999.939,-6.30,-42.30,-33.30,17.49
9801,6.61,12.78,-45.47,-725.586,-630.371,853.516,-6.30,-40.80,-33.30,17.34
9811,-5.44,-12.69,-51.28,195.801,-1090.332,1329.102,-6.30,-40.80,-33.30,17.49
9823,3.04,-14.76,-45.07,915.039,-1290.039,848.145,-7.20,-41.70,-33.45,17.10
9833,-5.47,13.50,-47.24,-576.660,-721.191,509.277,-7.95,-40.95,-34.95,17.63
9843,-11.07,2.02,-41.33,587.891,-706.543,773.437,-7.95,-40.95,-34.95,17.53
9853,-6.29,8.76,-42.14,-513.672,-166.504,1150.879,-7.65,-40.95,-34.65,17.49
9863,7.08,3.73,-47.61,656.250,-470.703,1775.391,-7.95,-40.20,-33.45,17.49
9873,-2.24,11.17,-40.75,-465.332,-693.848,621.582,-8.55,-40.35,-33.30,17.63
9885,5.53,11.01,-51.18,-491.211,-416.992,1229.004,-8.70,-42.60,-31.65,17.63
9895,1.11,-1.64,-57.61,584.473,-767.090,773.926,-8.70,-42.60,-31.65,17.53
9905,6.79,15.59,-50.06,-600.586,-327.148,1630.371,-10.35,-38.55,-33.45,17.25
9915,10.04,-2.68,-56.11,1023.437,-744.141,1999.939,-9.00,-40.80,-31.80,17.53
9925,-14.53,13.54,-59.27,-591.309,-448.242,1624.512,-9.90,-40.50,-32.70,17.49
9935,10.45,-3.53,-39.37,390.625,-929.687,1999.939,-10.05,-38.70,-33.75,17.49
9945,1.14,11.98,-43.39,-821.289,-497.070,1306.152,-10.05,-38.70,-33.75,17.49
9957,-16.46,5.37,-41.68,-457.520,-326.660,207.031,-10.35,-40.95,-33.45,17.49
9967,5.27,-12.54,-46.58,726.562,-1169.922,230.469,-8.70,-38.25,-31.65,17.49
9977,-1.24,-1.16,-48.18,161.133,-529.785,1069.824,-8.70,-38.25,-31.65,17.49
9987,-12.74,-3.05,-46.08,-416.504,-655.762,857.910,-10.50,-41.10,-32.55,17.25
9997,-8.83,-19.35,-63.95,254.883,-1282.227,1999.939,-11.10,-37.35,-33.15,17.68
10007,-13.75,-3.14,-43.80,-710.937,543.457,994.629,-9.75,-40.80,-32.55,17.53
10019,-5.60,5.19,-30.56,-876.465,-369.629,1936.523,-12.30,-40.50,-32.40,17.49
10029,19.95,-3.12,-34.98,523.437,-745.117,634.766,-12.30,-40.50,-32.40,17.63
10039,18.95,4.79,-47.59,-227.051,-572.266,902.344,-11.40,-38.55,-31.95,17.68
10049,10.42,7.76,-38.97,7.324,-675.781,-569.336,-10.95,-39.60,-31.80,17.63
10059,5.95,7.80,-33.55,49.805,-338.379,1257.813,-12.00,-37.95,-33.00,17.44
10069,6.50,4.05,-47.63,-151.855,-976.562,-198.242,-11.10,-37.05,-31.65,17.49
10079,-4.80,10.74,-32.25,828.125,-2000.000,1999.939,-12.60,-40.20,-31.65,17.53
10091,0.66,-2.73,-47.02,1051.758,-1100.586,1999.939,-12.30,-37.35,-31.95,17.49
10101,-1.30,9.05,-65.93,-633.789,-705.078,1268.555,-12.30,-37.35,-31.95,17.44
10111,5.63,11.27,-60.49,528.809,-179.199,1928.711,-12.75,-39.15,-33.00,17.44
10125,10.60,6.01,-49.85,544.922,-338.867,1136.719,-13.80,-36.60,-32.40,17.63
10135,1.05,3.01,-43.11,64.453,-488.770,-122.070,-12.75,-38.40,-31.80,17.34
10145,-0.40,-5.60,-34.79,512.695,-1323.730,1853.027,-13.80,-39.00,-32.40,17.68
10155,-14.65,5.17,-45.83,-563.965,31.738,871.582,-13.80,-39.00,-32.40,17.68
10167,-4.61,4.80,-46.30,-272.461,-794.922,1472.656,-13.50,-36.00,-31.05,17.49
10177,8.56,-10.10,-45.07,-161.621,-786.621,4.883,-13.05,-39.00,-33.15,17.34
10187,-8.07,5.84,-54.78,-17.578,66.406,1987.793,-13.05,-39.00,-33.15,17.68
10197,-0.92,14.17,-42.85,-549.805,-317.871,122.559,-13.50,-34.80,-32.25,17.53
10207,1.42,-14.23,-40.13,637.207,-864.746,1548.828,-13.80,-38.25,-33.90,17.49
10217,11.69,3.66,-59.53,231.934,-797.363,416.504,-13.50,-36.45,-33.00,17.34
10229,10.69,-1.51,-65.88,-148.926,-1107.910,1135.254,-13.20,-34.05,-31.80,17.53
10239,-13.85,3.26,-40.53,-310.547,-858.398,38.086,-13.20,-34.05,-31.80,17.29
10249,4.13,4.86,-40.77,966.797,-196.777,497.070,-13.05,-35.40,-31.95,17.53
10259,3.67,-6.58,-47.21,-153.320,-601.074,-118.652,-13.80,-33.45,-33.90,17.63
10269,9.36,3.56,-50.06,-509.277,-850.586,1138.184,-12.75,-34.35,-33.00,17.77
10279,-1.07,-3.84,-50.88,98.145,-616.211,1152.344,-13.80,-34.65,-34.95,17.63
10289,12.26,0.77,-41.13,-415.527,-717.773,776.367,-13.80,-34.65,-34.95,17.53
10301,-16.08,18.09,-55.07,-248.535,-414.551,740.723,-13.80,-33.00,-33.90,17.82
10311,-0.09,9.50,-48.69,348.633,-470.215,674.316,-13.80,-33.00,-33.90,17.77
10321,-7.20,7.92,-46.36,-98.145,-431.152,924.316,-12.45,-32.85,-33.75,17.49
10331,-10.76,4.56,-57.82,128.906,-191.406,554.687,-13.95,-32.85,-32.55,17.53
10341,-9.95,10.16,-51.54,-430.664,734.863,1810.059,-13.95,-31.95,-34.05,17.77
10351,9.94,10.91,-22.31,-647.461,932.129,1999.939,-13.80,-31.35,-33.15,17.77
10365,2.92,-15.57,-56.56,-362.793,-56.641,1521.484,-13.80,-31.35,-33.15,17.77
10374,7.26,8.75,-22.34,-270.996,222.656,1999.939,-13.35,-31.80,-33.45,17.68
10384,3.17,21.27,-29.69,161.133,-161.621,633.301,-13.20,-30.75,-31.80,17.63
10394,19.09,8.09,-47.23,-83.008,-897.461,1999.939,-12.75,-31.65,-32.25,17.77
10404,3.04,15.95,-36.89,-102.539,29.297,541.992,-14.40,-30.75,-32.25,17.63
10414,16.72,14.55,-48.27,561.523,-517.090,-102.539,-14.85,-30.15,-33.45,17.44
10424,-3.76,-4.50,-46.56,252.930,-1169.434,1291.992,-13.80,-30.60,-32.40,17.53
10436,20.45,20.71,-6.88,-356.445,-1679.688,17.090,-13.05,-30.60,-33.15,17.01
10446,53.25,-7.25,-28.37,170.898,-1467.285,1579.590,-13.05,-30.60,-33.15,17.77
10456,25.69,-8.56,-45.15,-398.437,-1315.918,1923.340,-14.40,-31.65,-31.05,17.49
10466,19.31,-25.73,-45.86,-329.590,-959.473,1999.939,-14.85,-31.05,-31.20,17.63
10476,17.15,-24.14,-48.53,-427.734,-728.516,1999.939,-14.70,-30.75,-31.80,17.68
10486,-4.13,-33.20,-54.40,-307.617,-1821.289,1999.939,-14.40,-29.25,-29.55,17.63
10498,-7.18,-34.59,-52.06,-147.949,-708.496,1999.939,-14.40,-29.25,-29.55,17.77
10508,-8.50,-31.08,-82.43,-49.805,-542.969,1247.070,-15.30,-27.75,-30.90,17.63
10518,-17.09,-31.21,-56.21,-2.930,-798.828,720.703,-16.80,-27.00,-30.45,17.44
10528,-15.18,-30.77,-55.85,-86.426,-554.199,195.801,-16.80,-27.00,-30.45,17.63
10538,-12.20,-34.56,-61.23,-640.625,-173.340,1695.313,-18.00,-28.65,-31.95,17.77
10548,-4.25,-27.31,-55.99,76.660,-100.098,1999.939,-18.60,-28.80,-31.05,17.63
10558,-6.25,-20.66,-58.68,101.563,-595.703,544.434,-16.65,-27.15,-31.05,17.77
10570,0.18,-13.19,-54.37,-216.309,-583.008,-416.016,-18.15,-28.35,-32.55,17.49
10580,1.38,-15.53,-55.38,-455.078,-340.820,748.047,-18.15,-28.35,-32.55,17.44
10590,12.85,-15.84,-50.94,124.512,-801.758,544.434,-17.40,-28.35,-31.05,17.44
10600,4.55,-3.18,-54.61,-340.332,-45.410,343.262,-18.00,-28.65,-30.15,17.34
10610,20.73,-6.09,-53.07,-410.156,-24.414,1483.398,-18.00,-27.75,-31.65,17.53
10620,-15.04,7.02,-172.31,359.863,-433.105,793.945,-19.20,-27.75,-30.15,17.77
10632,23.30,7.92,-77.91,-281.250,-1145.020,208.984,-19.95,-27.00,-31.65,17.63
10654,23.82,14.02,-54.14,-32.715,-886.719,1555.176,-19.65,-27.15,-30.30,17.68
10663,19.75,13.16,-40.15,0.488,-1160.156,1340.820,-18.60,-25.65,-30.30,17.44
10673,5.19,22.75,-56.76,-537.109,-808.105,385.254,-20.10,-26.40,-31.80,17.49
10683,-8.00,12.57,-49.67,-215.820,-778.320,1827.148,-19.95,-26.25,-31.65,17.63
10693,-23.64,20.01,-49.10,-76.660,-953.125,1452.148,-19.35,-25.65,-32.55,17.29
10705,-15.76,9.03,-52.18,-400.879,85.449,1310.059,-19.35,-25.65,-32.55,17.63
10715,1.02,8.65,-61.93,-268.066,12.207,1896.484,-20.10,-25.95,-32.25,17.29
10725,2.69,1.02,-55.98,47.363,-562.988,1686.035,-20.10,-25.95,-33.00,17.63
10735,6.25,-6.84,-56.33,-154.297,-563.965,1048.340,-20.10,-25.95,-33.00,17.49
10745,19.31,-20.66,-56.33,122.559,-1032.715,765.137,-18.45,-25.80,-31.65,17.53
10755,0.29,-20.58,-63.32,-15.625,-1839.355,1595.703,-21.00,-26.55,-31.95,17.77
10765,-10.64,-24.34,-61.80,798.340,-1647.461,890.625,-19.50,-26.55,-31.65,17.68
10777,-13.15,-10.52,-59.92,-385.254,-827.637,184.082,-19.35,-26.85,-30.75,17.49
10787,-2.04,-13.05,-72.45,95.215,-285.645,654.785,-19.35,-26.85,-30.75,17.63
10797,-3.11,-30.02,-55.38,392.090,-1302.734,1999.939,-20.55,-26.85,-30.30,17.34
10807,10.85,-10.63,-60.96,-387.207,-559.082,123.047,-21.90,-26.25,-30.15,17.25
10817,2.63,-15.64,-56.20,288.574,-850.098,1999.939,-22.20,-27.00,-30.15,17.49
10827,5.99,-6.86,-48.02,-294.434,-666.016,-50.781,-21.30,-27.15,-30.75,17.49
10839,12.99,1.46,-40.95,444.824,-996.582,-951.660,-21.30,-27.15,-30.75,17.49
10849,-4.37,5.58,-52.70,-589.355,293.945,1460.938,-21.30,-27.15,-30.30,17.68
10859,2.17,0.50,-53.83,426.758,-924.316,-373.047,-22.95,-25.05,-30.45,17.49
10869,-5.40,8.39,-49.79,-288.086,-503.418,636.719,-22.95,-25.05,-30.45,17.49
10879,-9.13,-3.77,-47.95,80.078,-183.594,1348.633,-22.80,-25.65,-29.85,17.49
10889,7.11,6.86,-58.66,-327.637,-219.238,863.770,-22.80,-25.20,-32.55,17.63
10899,10.92,1.28,-49.92,54.199,-411.621,1444.824,-21.90,-23.40,-32.40,17.53
10910,0.82,12.11,-52.72,-385.742,-121.094,653.809,-22.05,-25.20,-30.30,17.77
10920,15.26,2.23,-51.48,660.156,-1006.348,323.242,-22.05,-25.20,-30.30,17.63
10930,2.50,14.92,-45.11,-134.277,-377.930,1055.176,-21.90,-24.30,-30.15,17.49
10940,7.33,-7.73,-40.44,-102.539,-1179.688,669.922,-21.60,-22.80,-30.75,17.53
10950,-0.21,12.15,-54.56,-330.078,-389.648,650.391,-22.35,-22.50,-30.30,17.29
10960,8.58,6.29,-48.82,-542.969,-770.996,1999.939,-21.60,-23.25,-29.55,17.63
10972,3.24,10.60,-48.05,187.012,-505.371,1999.939,-22.20,-21.90,-29.55,17.15
10982,14.77,14.63,-45.56,23.437,-454.590,570.801,-22.95,-21.90,-30.45,17.49
10992,4.85,1.28,-46.57,-277.832,-463.867,1942.871,-22.95,-21.90,-30.45,17.44
11002,11.99,1.53,-50.96,365.723,-922.363,613.770,-22.35,-22.05,-29.10,17.63
11012,-8.08,1.02,-49.01,-602.051,-16.602,1595.215,-23.25,-22.80,-29.55,17.77
11022,-1.90,-9.87,-39.21,382.812,-1128.418,541.504,-23.25,-22.80,-29.55,17.25
11032,-9.05,-4.00,-53.71,-194.336,-407.227,1358.398,-22.35,-21.30,-30.75,17.25
11044,-2.79,2.44,-63.47,-411.133,-478.516,1353.027,-22.35,-21.30,-30.75,17.29
11054,-3.73,-13.85,-44.21,581.055,-139.648,1999.939,-24.90,-21.00,-31.65,17.34
11064,12.42,-10.26,-62.69,-404.297,-444.824,1315.430,-24.00,-20.85,-30.75,17.49
11074,-0.11,-6.59,-54.62,-520.020,-233.398,1173.828,-24.00,-20.85,-30.75,17.49
11084,-0.24,-7.52,-45.08,-5.371,-622.070,159.180,-22.95,-21.90,-30.90,17.77
11094,-24.18,-11.69,-49.41,-465.332,158.691,-685.547,-22.05,-21.30,-30.30,17.77
11106,-17.00,2.66,-50.69,-242.676,-146.973,-127.441,-22.20,-21.90,-30.90,17.34
11116,-5.50,-6.55,-38.19,337.891,-837.891,-125.488,-22.95,-20.25,-29.70,17.63
11126,-17.56,5.86,-46.36,-518.555,-234.375,783.691,-22.95,-20.25,-29.70,17.10
11136,0.12,-1.37,-42.21,594.727,-548.340,506.348,-24.15,-21.90,-30.15,17.49
11146,4.60,8.98,-45.76,-486.816,-241.699,1021.973,-24.15,-22.20,-31.65,17.63
11156,18.08,-0.86,-42.56,532.227,-667.969,1999.939,-23.40,-21.00,-30.45,17.63
11172,14.71,-4.46,-38.49,201.660,-936.523,1632.324,-23.25,-22.05,-30.75,17.53
11181,8.36,2.26,-41.55,149.414,-583.496,655.273,-22.05,-21.60,-29.85,17.63
11193,5.87,8.97,-36.74,-16.113,-514.648,786.133,-23.25,-22.05,-29.85,17.77
11203,-1.56,-0.89,-38.82,-436.035,-859.375,1999.939,-23.25,-22.05,-29.85,17.77
11213,6.64,-1.25,-24.52,299.805,-469.727,-1.953,-22.80,-19.20,-29.85,17.10
11223,-14.53,2.62,-41.06,-618.652,476.074,663.086,-22.35,-20.85,-29.55,17.77
11233,4.59,6.60,-38.82,-60.547,-422.852,-413.574,-23.25,-20.10,-31.05,17.68
11243,2.44,21.00,-33.75,-139.648,-674.316,51.758,-22.20,-19.05,-29.40,17.49
11253,-0.78,-0.12,-45.11,778.809,-673.828,59.082,-22.20,-19.05,-29.40,17.34
11265,-2.74,-5.56,-33.61,850.586,-1021.484,307.617,-22.35,-19.65,-28.80,17.63
11275,-10.04,9.46,-38.89,-583.496,-325.684,1288.574,-23.70,-17.10,-26.40,17.49
11285,6.09,-3.72,-28.92,692.383,-815.430,-151.855,-23.70,-17.10,-26.40,17.63
11295,-1.19,5.56,-52.39,-407.227,-10.742,720.215,-24.30,-18.00,-28.80,17.29
11305,9.46,-7.95,-46.28,298.340,-812.012,89.844,-24.60,-17.40,-27.90,17.68
11315,5.48,0.61,-43.78,-565.918,-528.809,1317.383,-24.60,-19.50,-30.15,17.49
11327,-8.43,6.98,-46.69,-428.711,34.180,1210.449,-25.05,-16.80,-30.75,17.77
11337,2.27,-10.86,-42.33,996.094,-714.844,1709.473,-25.05,-16.80,-30.75,17.49
11347,-10.45,7.43,-43.19,-715.332,-175.293,1227.539,-24.15,-18.60,-30.90,17.49
11357,-1.08,-6.54,-39.03,617.676,-373.047,1910.156,-24.75,-16.80,-31.50,17.44
11367,-11.34,6.79,-38.44,-726.562,-272.461,1533.691,-24.00,-16.05,-30.30,17.44
11377,-8.00,-6.18,-37.53,595.703,-503.906,1281.738,-22.95,-19.05,-30.15,17.25
11387,-9.96,8.46,-52.67,-646.484,40.527,1312.988,-22.95,-19.05,-30.15,17.49
11399,-5.40,3.98,-41.08,-636.719,-172.363,900.391,-22.95,-15.00,-30.45,17.29
11409,20.74,-16.39,-53.15,784.668,-781.250,1374.023,-23.40,-19.05,-29.40,17.53
11419,3.66,-1.16,-31.67,-440.918,-808.105,944.824,-23.40,-19.05,-29.40,17.49
11429,1.16,-11.43,-40.00,783.203,-624.512,112.305,-23.25,-15.60,-29.85,17.63
11439,-1.70,10.37,-44.11,300.293,233.398,202.148,-23.40,-16.65,-30.15,17.53
11449,6.61,-17.40,-36.85,369.629,-261.719,-140.625,-23.40,-17.85,-30.45,17.49
11461,2.45,-10.43,-37.98,138.184,-70.313,658.203,-22.65,-15.90,-29.70,17.49
11471,-0.03,-11.55,-34.05,226.562,-1303.223,1999.939,-22.65,-15.90,-29.70,17.77
11481,-0.15,5.42,-16.71,-382.324,-296.875,644.531,-25.50,-16.80,-31.05,17.34
11491,-12.05,-6.58,-35.77,812.500,-767.090,1999.939,-23.55,-14.40,-29.55,17.49
11501,-13.87,8.84,-33.65,-799.316,143.555,1606.445,-23.25,-15.60,-29.85,17.68
11511,-2.56,-9.99,-27.00,377.930,-1140.137,1999.939,-23.55,-15.60,-29.85,17.68
11521,-13.58,16.21,-55.05,-1024.902,-513.672,925.781,-24.15,-15.00,-30.90,17.68
11533,-5.47,5.24,-38.15,-408.691,567.383,541.992,-24.30,-17.25,-31.05,17.68
11543,18.92,5.96,-36.81,493.652,-877.441,-608.887,-24.30,-17.25,-31.05,17.49
11553,-2.50,2.58,-38.43,-257.324,-394.043,208.008,-24.30,-17.25,-31.05,17.49
11563,13.37,-0.76,-45.09,474.609,-1091.309,-456.055,-23.40,-14.25,-31.95,17.44
11573,-5.97,14.01,-46.34,-220.215,-883.301,524.902,-23.40,-14.25,-31.95,17.77
11583,-2.34,-1.55,-43.08,-184.570,-407.227,-1157.227,-23.40,-13.50,-30.90,17.63
11595,9.56,-2.15,-37.51,437.500,-416.504,-745.117,-23.40,-13.50,-30.45,17.34
11605,11.08,-4.89,-42.76,375.000,-346.191,-185.547,-22.65,-12.75,-32.70,17.77
11615,4.76,0.02,-47.69,-586.426,-107.422,491.211,-22.80,-11.70,-30.75,17.44
11625,5.78,-11.15,-41.64,871.582,-1248.535,1999.939,-22.80,-11.70,-30.75,17.49
11635,-12.73,5.87,-47.54,-268.555,-55.176,890.137,-23.70,-11.10,-31.20,17.34
11645,-0.30,-0.96,-49.07,408.691,-1471.191,1999.939,-22.20,-11.85,-30.90,17.49
11655,-21.33,7.69,-44.09,-606.445,-398.926,1111.816,-22.05,-13.20,-30.30,17.68
11667,-3.56,6.64,-35.27,-186.035,-689.941,890.137,-22.20,-12.75,-31.65,17.49
11677,5.55,-5.28,-36.27,-226.562,-133.301,-660.645,-22.20,-12.75,-31.65,17.77
11691,10.27,11.19,-37.45,303.711,-1072.266,1999.939,-22.20,-13.50,-30.90,17.49
11701,-3.82,-3.62,-8.76,-875.000,-60.059,1597.656,-23.55,-12.90,-30.75,17.44
11711,13.60,-3.84,-51.30,350.586,-1227.051,1457.031,-22.65,-12.30,-31.95,17.29
11721,-5.94,5.30,-38.37,5.859,-984.863,1193.359,-22.35,-12.45,-31.80,17.49
11733,-0.51,-1.25,-39.40,329.590,-169.434,801.270,-21.00,-13.80,-31.65,17.44
11743,0.79,2.31,-34.89,-240.723,-289.062,-499.512,-22.20,-12.30,-33.45,17.49
11753,4.70,-1.47,-36.95,-32.715,-776.367,906.250,-23.25,-10.95,-32.25,17.63
11763,9.59,-5.99,-42.06,-71.289,-245.605,1131.348,-23.25,-10.95,-32.25,17.49
11773,0.77,-1.78,-40.24,-97.656,-626.953,1817.871,-21.90,-10.35,-32.40,17.49
11783,-4.60,3.27,-41.26,-379.395,-140.625,690.918,-20.25,-10.65,-32.70,17.49
11795,13.46,-4.84,-47.44,-244.629,-432.129,1999.939,-20.25,-11.85,-31.20,17.44
11805,14.53,-1.95,-38.88,-50.781,-401.855,528.809,-20.25,-11.85,-31.20,17.49
11815,0.94,3.49,-27.70,-169.922,-529.297,357.422,-20.70,-11.10,-31.95,17.49
11825,1.03,-1.08,-29.25,-407.227,-948.242,-475.586,-20.55,-10.95,-33.00,17.63
11835,-7.73,-2.71,-38.39,514.160,-1509.766,1999.939,-20.55,-10.95,-33.00,17.77
11845,-20.19,7.44,-38.98,-402.344,-228.027,633.789,-21.00,-9.90,-30.90,17.63
11855,-4.59,-10.20,-48.82,629.883,-767.090,1734.863,-20.55,-10.95,-32.25,17.49
11867,6.11,-8.92,-27.63,-123.047,-601.562,199.707,-21.45,-10.65,-31.95,17.34
11877,7.30,1.21,-41.82,485.840,-549.805,1657.715,-20.55,-10.95,-31.50,17.44
11887,5.02,-0.35,-34.42,-400.391,-86.426,982.422,-20.55,-10.95,-31.50,17.68
11897,12.76,-11.11,-33.47,375.488,-1416.016,1999.939,-20.10,-9.30,-31.50,17.44
11907,-1.61,-2.65,-40.50,-473.633,-543.945,1685.059,-19.50,-10.35,-30.90,17.34
11917,11.95,-3.40,-40.60,453.613,-1145.996,648.926,-20.55,-10.95,-31.05,17.53
11929,8.37,-5.62,-37.56,-509.766,-490.234,-200.684,-20.55,-7.65,-31.80,17.49
11939,-0.24,7.79,-49.17,-226.074,-649.902,1145.996,-20.55,-7.65,-31.80,17.44
11949,6.13,6.37,-44.28,-649.902,-405.762,-706.055,-20.25,-8.70,-31.20,17.53
11959,2.60,10.18,-40.45,628.906,-374.512,1440.918,-21.00,-7.50,-31.65,17.53
11969,-0.89,16.93,-46.65,-726.562,-51.758,1407.715,-21.00,-7.50,-31.65,17.49
11979,6.06,2.69,-40.92,300.293,-627.930,-91.797,-21.45,-8.70,-29.70,17.25
11989,3.23,-0.03,-54.69,729.980,-609.375,784.668,-21.45,-7.95,-31.95,17.63
12001,-4.15,9.91,-41.75,749.512,-411.621,337.891,-19.95,-6.30,-32.40,17.34
12011,0.05,-15.25,-53.57,487.305,-485.352,1915.039,-20.25,-7.50,-31.20,17.53
12021,-11.11,-7.18,-44.88,-375.488,-255.371,1289.551,-20.25,-7.50,-31.20,17.68
12031,9.87,-8.10,-44.76,140.625,-777.344,1634.277,-19.20,-5.85,-32.70,17.49
12041,-1.05,-2.68,-38.18,-215.332,-304.687,1683.105,-18.75,-6.75,-32.70,17.63
12051,3.47,-3.12,-48.71,-38.086,101.563,862.793,-18.75,-6.75,-32.70,17.49
12061,14.61,-5.05,-37.02,70.801,-1171.875,1630.371,-19.35,-7.35,-32.55,17.49
12073,-4.24,-2.27,-27.61,515.625,-717.773,138.184,-18.60,-4.95,-31.80,17.15
12083,-3.81,6.48,-51.69,-356.445,-318.848,1077.148,-18.75,-7.05,-31.20,17.34
12093,1.41,9.13,-36.56,-383.301,-508.789,1559.570,-17.25,-7.95,-32.40,17.77
12103,8.60,2.21,-32.44,383.301,-952.148,1999.939,-17.25,-7.95,-32.40,17.77
12113,-4.05,6.87,-39.61,-213.867,-400.879,510.254,-17.25,-7.05,-31.20,17.82
12123,1.19,-1.44,-29.60,469.727,-575.195,1243.652,-16.80,-6.30,-31.20,17.82
12135,4.20,-6.56,-33.45,-1.465,-36.621,1963.379,-18.15,-4.95,-29.85,17.49
12145,7.33,-6.83,-38.59,300.781,-948.730,789.551,-18.15,-4.95,-29.85,17.53
12155,-13.01,-7.24,-37.15,-586.426,-143.066,351.074,-17.85,-6.15,-30.30,17.44
12165,-7.55,-3.87,-41.32,490.723,112.793,865.234,-17.55,-6.75,-29.70,17.10
12175,-7.51,2.90,-33.47,140.137,-940.918,590.332,-17.55,-6.75,-29.70,17.63
12185,-14.24,4.02,-35.25,-267.578,-211.914,641.113,-17.85,-8.10,-30.30,17.53
12195,-3.66,-5.44,-29.24,688.965,-455.078,666.992,-17.55,-5.85,-30.15,17.68
12212,6.34,-1.39,-48.47,84.473,-324.219,1343.750,-18.15,-6.15,-31.05,17.53
12221,9.41,-5.33,-35.47,178.223,-1002.441,691.895,-17.55,-6.75,-31.20,17.49
12231,1.68,-3.81,-46.00,-449.707,-750.000,422.363,-17.55,-6.75,-31.20,17.25
12241,-1.81,3.89,-40.62,439.941,-332.520,1279.785,-17.55,-5.55,-31.65,17.53
12251,4.72,-8.37,-28.50,-89.355,-762.695,1461.914,-17.85,-6.90,-30.30,17.63
12261,2.86,-6.61,-47.67,-577.148,-383.301,1290.039,-18.60,-5.70,-31.05,17.49
12271,9.84,-2.50,-39.45,778.809,-311.523,906.738,-17.40,-3.75,-31.50,17.68
12283,-0.31,3.65,-44.55,11.719,-608.398,883.301,-16.50,-5.10,-30.90,17.68
12293,10.83,1.60,-39.60,375.977,-746.582,1999.939,-15.75,-5.10,-31.65,17.53
12303,5.25,3.89,-39.37,-499.023,-231.445,801.758,-16.80,-3.15,-31.95,17.63
12313,5.80,-6.95,-48.36,546.875,-760.254,264.648,-16.80,-3.15,-31.95,17.25
12323,-11.26,-9.26,-41.23,-36.621,-993.164,1207.031,-17.10,-6.15,-30.75,17.49
12333,-20.63,-3.40,-48.80,-403.320,-413.086,1586.914,-17.25,-3.90,-30.90,17.49
12343,1.21,-13.34,-39.72,-105.469,-509.277,974.609,-16.20,-3.30,-29.55,17.44
12355,-5.83,-12.83,-48.31,41.504,291.992,1806.152,-15.90,-4.05,-29.55,17.63
12365,7.55,-10.48,-62.29,-346.191,478.516,1556.152,-16.20,-3.75,-29.10,17.77
12375,22.17,-9.65,-32.48,449.219,-373.047,481.445,-14.70,-2.10,-29.55,17.77
12385,-6.21,-6.44,-34.12,-149.414,-521.484,1652.832,-14.70,-2.10,-29.55,17.49
12395,4.18,2.95,-48.15,-299.805,-160.156,518.555,-15.90,-4.05,-30.30,17.15
12405,8.95,0.43,-50.63,316.406,-317.383,772.949,-15.75,-1.95,-30.45,17.34
12417,-4.36,2.07,-50.44,-482.910,-304.687,322.266,-14.85,-2.70,-29.70,17.25
12427,2.60,-0.67,-32.16,762.695,-645.996,707.520,-16.65,-4.50,-29.85,17.44
12437,-10.15,-4.30,-24.94,-216.309,-220.215,457.031,-16.65,-4.50,-29.85,17.68
12447,-11.99,6.77,-33.27,-365.723,134.766,1428.223,-16.05,-1.05,-30.90,17.53
12457,16.36,0.79,-35.96,820.312,-606.445,1341.797,-14.40,-3.30,-31.05,17.77
12467,1.87,-1.89,-35.31,-257.812,-352.051,1193.848,-14.85,-3.45,-32.40,17.49
12477,9.38,0.11,-39.61,115.723,-667.480,502.441,-14.40,-0.45,-33.00,17.44
12489,-12.11,-1.82,-44.54,-87.402,-292.969,206.543,-14.40,-2.10,-29.85,17.15
12499,-8.51,-0.01,-25.72,32.715,-401.855,749.512,-14.10,-3.15,-30.45,17.25
12509,0.91,-10.66,-24.77,535.645,-274.902,543.945,-13.05,-1.95,-30.15,17.63
12519,-15.60,-6.89,-38.20,-300.293,-53.223,929.687,-13.05,-1.95,-30.15,17.68
12529,7.38,4.90,-43.03,-129.395,-181.152,523.926,-13.95,-2.55,-29.55,17.63
12539,25.99,-3.21,-34.65,1024.902,-1029.785,968.262,-14.10,-4.35,-30.15,17.53
12549,4.24,-1.13,-37.55,-50.293,-1337.891,1197.266,-14.85,-0.75,-31.65,17.29
12561,11.88,-5.92,-33.25,569.824,-750.488,734.375,-14.10,-1.50,-30.15,17.49
12571,-1.59,-4.56,-25.18,-362.305,-773.926,916.504,-14.10,-1.50,-30.15,17.49
12581,-16.89,-2.20,-34.64,-387.695,-229.004,1707.520,-14.40,-2.85,-31.05,17.29
12591,12.21,-5.08,-36.72,470.703,-666.504,658.691,-13.95,0.90,-32.55,17.34
12601,-2.31,-7.21,-48.56,-11.719,-670.898,1999.939,-13.95,0.90,-32.55,17.63
12611,-4.05,1.02,-10.31,-1258.301,351.562,1563.477,-13.20,-1.65,-31.80,17.49
12623,15.73,4.60,-43.41,-251.465,-437.988,1999.939,-13.20,-1.35,-31.50,17.49
12633,-3.37,11.77,-43.98,153.320,-807.129,1191.406,-12.75,-1.35,-31.50,17.34
12643,8.39,-0.61,-24.37,604.980,-1258.789,768.555,-13.05,-2.25,-32.70,17.53
12653,-26.37,-4.48,-43.22,-99.609,-898.926,1089.355,-13.05,-2.25,-32.70,17.68
12663,-21.77,-3.50,-37.31,104.492,-60.059,879.395,-12.00,0.45,-31.80,17.44
12673,-0.08,-1.89,-31.98,574.219,-511.230,1463.379,-13.05,-1.95,-30.90,17.63
12683,-1.81,-9.22,-30.42,-47.852,-540.527,711.914,-12.00,-0.15,-30.75,17.87
12695,11.17,-2.37,-37.48,395.508,-627.441,846.680,-13.05,-38.40,-31.05,17.68
12705,3.79,-5.59,-45.02,-79.102,-500.977,672.363,-13.05,0.00,-30.90,17.49
12715,-1.57,-6.29,-51.82,-167.969,-239.258,1288.574,-11.85,-2.25,-30.45,17.82
12730,-5.24,7.56,-42.81,-402.344,-70.801,81.543,-12.75,-2.10,-31.50,17.63
12739,0.00,1.26,-43.40,551.758,-199.219,1563.477,-12.60,-0.30,-31.95,17.53
12751,-4.18,4.70,-46.28,-192.871,-569.824,697.754,-12.00,-1.35,-31.05,17.49
12761,18.45,-1.75,-33.28,470.703,-1498.535,1721.191,-12.45,-0.90,-31.05,17.49
12771,-1.49,-2.36,-40.79,127.930,-1102.051,907.227,-12.30,1.95,-31.95,17.49
12781,-17.34,3.09,-38.34,-592.285,-232.422,29.297,-12.30,1.95,-31.95,17.49
12791,-1.77,2.98,-41.42,191.406,-174.316,1299.805,-11.70,-0.90,-32.25,17.68
12801,5.07,-2.07,-37.70,333.496,-654.785,1480.469,-10.05,0.90,-32.55,17.68
12811,-7.81,3.73,-46.70,-583.984,-190.430,760.742,-10.05,0.90,-32.55,17.29
12823,1.21,4.49,-33.24,-230.957,-829.102,624.512,-12.00,-0.90,-32.55,17.25
12833,-13.20,2.24,-47.54,-344.727,-562.988,1337.891,-11.10,-0.75,-31.65,17.49
12843,-14.75,-1.77,-44.40,302.734,408.203,1128.906,-11.70,0.90,-32.55,17.49
12853,5.07,-3.05,-41.47,31.250,-1002.441,176.758,-9.90,1.05,-32.40,17.53
12863,-12.41,-6.27,-41.48,54.688,-637.207,751.465,-9.90,1.05,-32.40,17.44
12873,-3.41,-0.18,-42.80,-162.109,-168.945,1641.113,-10.50,-0.15,-32.55,17.49
12883,23.36,-3.44,-28.70,144.043,-925.781,1128.418,-9.90,1.05,-31.95,17.29
12895,-7.15,-6.37,-40.21,-294.434,-426.270,1758.789,-9.90,-1.05,-31.20,17.49
12905,-1.21,-8.98,-47.83,34.180,-404.297,237.305,-9.75,-0.15,-32.55,17.53
12915,11.64,-8.80,-44.39,-44.434,-1045.410,1918.945,-9.75,-0.15,-32.55,17.10
12925,1.31,0.59,-43.61,-589.844,-11.230,1606.445,-9.60,0.30,-32.40,17.68
12935,8.40,8.89,-49.28,-473.633,-568.359,288.574,-9.30,-0.45,-32.25,17.68
12945,14.34,7.56,-44.15,460.937,-1239.258,1157.715,-9.30,-0.45,-32.25,17.77
12957,-12.52,7.66,-33.97,-614.258,-21.973,1264.648,-8.55,0.90,-32.55,17.82
12967,11.33,-1.79,-39.76,462.891,-765.137,512.695,-8.70,0.00,-32.70,17.29
12977,-0.40,7.02,-45.31,-3.418,-1045.410,1531.250,-7.95,-0.30,-32.70,17.34
12987,-4.92,7.15,-31.45,-180.176,-417.969,352.051,-7.95,-0.30,-32.70,17.49
12997,-3.27,1.08,-48.31,289.062,-526.367,1272.461,-8.70,1.95,-32.70,17.34
13007,-9.82,-6.92,-45.31,-95.703,-727.539,441.895,-6.60,0.90,-33.75,17.77
13017,-10.99,-0.94,-53.58,-330.078,-290.039,1219.238,-6.60,0.90,-33.75,17.49
13029,1.18,-6.82,-52.26,-96.680,-605.469,774.414,-7.35,1.65,-32.25,17.63
13039,0.11,-3.30,-47.56,-343.750,-498.535,1181.152,-8.55,0.15,-32.25,17.53
13049,15.08,-1.88,-56.37,113.281,-1003.906,1074.707,-7.65,3.15,-33.45,17.49
13059,1.27,-5.94,-49.66,-618.164,-440.430,937.500,-7.20,2.25,-34.20,17.82
13069,-8.49,2.15,-47.60,-394.043,-170.410,1275.879,-7.20,2.25,-34.20,17.77
13079,0.24,-1.16,-43.78,-236.816,177.246,1623.047,-5.25,1.50,-34.20,17.53
13089,5.25,-0.98,-41.76,-94.238,-719.727,1513.672,-6.90,1.95,-33.90,17.53
13101,9.97,-2.73,-50.61,202.148,-484.375,1230.957,-5.70,2.25,-33.45,17.44
13111,7.23,-1.40,-48.56,-77.637,-1152.832,1162.598,-4.35,2.10,-32.55,17.53
13121,-5.31,-0.64,-52.88,84.961,-475.098,690.430,-4.35,2.10,-32.55,17.63
13131,-9.26,-3.91,-44.30,-362.305,-177.246,1999.939,-3.75,2.70,-33.15,17.68
13141,10.44,-9.19,-40.25,284.180,-1494.141,-34.668,-4.95,2.25,-33.90,17.53
13151,-16.53,-4.03,-48.24,-150.879,-234.375,606.934,-4.95,2.25,-33.90,17.44
13161,-4.34,-1.69,-45.15,-105.469,-699.707,964.355,-4.50,3.90,-34.65,17.34
13173,-0.35,-4.85,-40.18,-143.555,-294.434,421.875,-3.75,3.15,-34.65,17.44
13183,7.62,0.97,-45.47,-355.957,-455.566,1064.941,-0.90,1.65,-35.25,17.25
13193,8.12,-2.97,-47.79,-65.918,-782.715,698.242,-2.55,2.25,-33.90,17.49
13203,5.22,4.08,-39.79,-46.875,-1033.203,817.871,-2.55,2.25,-33.90,17.82
13213,9.85,-0.90,-42.93,-149.414,-1129.883,599.121,-1.80,1.95,-33.15,17.53
13223,-3.63,-0.95,-44.32,-264.648,-942.383,787.109,-1.65,2.10,-33.00,17.44
13235,-7.38,1.27,-45.67,-88.867,-856.934,1212.402,-1.80,1.95,-33.45,17.49
13250,-12.04,-0.82,-53.09,-281.738,-38.086,1025.391,-2.25,3.15,-31.95,17.49
13259,-5.61,2.99,-49.95,-71.777,-220.703,955.078,-2.85,3.30,-33.00,17.53
13269,4.75,6.01,-40.51,-182.617,-94.238,1092.773,-1.80,1.95,-33.90,17.77
13279,15.92,1.97,-43.58,-24.902,-804.199,1253.418,-1.80,1.95,-33.90,17.49
13289,4.92,6.55,-38.23,-324.707,-792.969,1803.711,-1.50,2.70,-33.45,17.82
13299,2.47,3.85,-39.40,72.266,-1177.246,851.074,-0.45,1.65,-33.00,17.49
13309,-22.31,3.34,-46.56,-506.836,-506.348,924.316,-0.30,2.70,-33.15,17.34
13321,-21.23,-7.60,-45.20,-274.902,-491.699,1591.309,-1.65,2.10,-33.30,17.25
13331,-20.58,5.36,-48.72,117.676,-301.758,432.617,-1.65,2.10,-33.30,17.29
13341,-15.98,0.82,-47.37,-386.230,-399.902,1132.813,-0.30,1.95,-33.15,17.53
13351,-10.51,8.15,-51.34,-82.520,-261.230,496.094,-1.65,2.10,-32.25,17.44
13361,9.97,1.53,-42.60,66.895,-936.523,772.949,-1.65,2.10,-32.25,17.63
13371,7.89,5.92,-42.40,-316.895,-653.320,900.879,0.30,1.50,-34.95,17.53
13380,-2.77,5.63,-41.78,-666.504,-1117.676,1267.090,0.15,2.55,-33.00,17.29
13392,-22.58,2.28,-36.92,93.750,-445.801,1857.910,0.15,2.10,-33.75,17.49
13402,-9.56,-10.98,-47.51,-313.477,-441.406,1644.043,0.90,2.55,-34.50,17.44
13412,6.70,-5.16,-37.82,-47.363,-665.527,1380.859,0.90,2.55,-34.50,17.77
13422,4.75,-6.72,-41.39,-366.211,-558.594,1999.939,0.30,0.75,-34.65,17.77
13432,6.89,-11.27,-54.82,163.574,-1385.254,1392.578,0.90,0.90,-33.75,17.49
13442,-8.55,-4.27,-51.42,204.590,-102.539,138.184,1.50,0.75,-33.45,17.63
13452,-4.79,-10.69,-50.14,-376.953,216.309,1172.363,1.20,2.55,-33.75,17.29
13464,-6.14,-17.34,-36.69,128.906,-578.613,656.738,1.20,2.55,-33.75,17.53
13474,8.29,-31.11,-46.89,-197.266,-751.953,1090.820,0.75,1.05,-32.40,17.49
13484,12.11,-37.82,-51.02,224.609,-749.023,1242.676,0.75,0.30,-33.45,17.29
13494,9.60,-31.37,-53.08,230.957,-474.609,609.863,0.75,0.30,-33.45,17.53
13503,11.95,-37.27,-46.47,42.969,-991.211,1350.098,0.75,1.95,-32.70,17.44
13513,3.97,-33.75,-59.37,-487.793,-1220.703,781.250,0.90,1.35,-34.05,17.77
13523,-6.55,-31.73,-25.15,-413.574,-738.281,729.980,0.30,2.25,-34.65,17.25
13535,-22.15,-30.60,-41.73,-114.746,-462.402,1010.254,1.05,2.25,-33.15,17.68
13545,-21.40,-20.21,-53.21,140.625,-763.672,631.348,1.05,2.25,-33.15,17.25
13555,-17.72,-21.22,-38.29,-596.680,-139.160,901.367,0.45,0.45,-33.75,17.87
13565,-8.76,5.93,-32.58,-975.098,-388.672,1631.836,0.00,0.75,-32.70,17.68
13575,-1.93,10.53,-48.79,-1053.711,-781.250,663.574,-0.15,-0.15,-34.50,17.53
13585,-1.95,15.31,-49.48,-541.992,-409.668,1936.035,0.75,0.75,-34.65,17.53
13597,21.69,21.67,-38.98,-806.641,-529.297,221.680,0.75,1.05,-34.20,17.49
13607,16.63,27.59,-36.72,63.965,-1291.504,999.023,1.65,2.10,-34.05,17.53
13617,-7.44,26.95,-44.61,71.289,-1360.840,201.660,2.40,0.90,-34.05,17.68
13626,-14.92,17.04,-51.34,-600.586,-425.781,1999.939,2.40,0.90,-34.05,17.63
13636,9.15,22.34,-48.08,-69.336,-434.082,998.047,2.85,2.85,-34.80,17.77
13645,3.58,32.10,-41.37,-75.684,-702.637,505.859,1.80,1.50,-33.90,17.49
13655,1.21,15.95,-51.66,220.703,-765.625,1672.363,3.00,1.50,-35.40,17.49
13666,-6.46,7.40,-55.82,-525.879,-1175.293,1937.012,3.45,3.15,-33.45,17.63
13676,-13.54,13.73,-55.81,-28.809,-548.340,-535.156,3.45,3.15,-33.45,17.34
13686,-10.13,7.16,-60.16,326.172,-377.441,981.934,3.45,2.25,-33.15,17.49
13695,-6.31,0.08,-62.46,-199.707,230.469,1071.289,3.60,1.35,-34.50,17.68
13705,-0.74,0.55,-49.21,-45.898,-732.910,438.477,3.60,1.35,-34.50,17.77
13715,0.15,-7.68,-61.42,-180.664,-404.297,653.320,5.10,1.35,-34.50,17.44
13725,1.73,-3.54,-54.88,-166.504,-873.535,755.859,4.35,2.10,-34.50,17.29
13737,-1.86,-3.21,-54.92,-176.270,-430.176,582.031,5.10,0.15,-33.30,17.25
13747,3.32,4.58,-63.99,-179.199,107.910,1534.668,3.90,0.15,-35.25,17.29
13761,-0.39,-3.11,-52.47,80.078,-1056.641,658.203,5.55,0.45,-35.25,17.63
13771,-6.58,-4.56,-37.37,-464.844,-552.246,1181.152,6.45,0.75,-34.20,17.63
13781,-1.26,5.08,-48.05,61.035,-1226.563,988.281,6.30,2.10,-34.80,17.34
13790,-3.40,-0.88,-49.10,-238.281,-510.254,-5.859,7.20,1.05,-33.45,17.63
13802,-0.48,2.51,-49.27,-354.004,-269.043,1077.148,7.20,1.05,-33.45,17.29
13812,-1.73,-2.46,-44.79,-373.047,-18.066,1750.977,7.35,-0.15,-35.25,17.53
13822,2.82,2.04,-51.07,46.875,-768.555,256.836,6.60,0.90,-34.80,17.68
13832,-4.60,2.33,-44.11,-552.246,-671.875,1349.121,6.60,0.90,-34.80,17.68
13842,5.82,0.35,-50.89,502.441,-783.691,1341.309,7.35,0.90,-34.50,17.68
13852,-2.24,4.65,-51.29,-271.973,-555.176,359.863,7.80,0.15,-34.50,17.49
13862,-1.58,3.15,-48.98,69.824,-571.777,135.254,7.80,1.35,-36.75,17.53
13874,3.73,0.95,-47.14,194.824,-879.395,477.051,7.95,1.50,-34.65,17.77
13883,2.42,-0.82,-46.65,274.414,-635.742,689.941,7.95,1.50,-34.65,17.49
13893,-0.74,-2.15,-49.09,-254.883,-191.895,1899.902,8.70,0.00,-34.65,17.53
13903,2.83,1.15,-50.70,-7.812,-641.602,416.016,8.55,2.55,-36.30,17.77
13912,1.21,1.96,-52.00,-221.680,-459.961,758.301,8.55,2.55,-36.30,17.77
13922,7.83,-3.96,-45.24,47.852,-591.309,1850.098,9.90,-0.30,-34.95,17.25
13932,9.08,0.26,-42.98,-363.770,-335.937,1145.020,8.70,1.95,-34.20,17.53
13944,7.18,3.86,-49.02,-163.574,-644.043,799.805,10.05,-0.15,-34.80,17.63
13954,5.73,5.98,-43.78,-336.426,-854.004,1908.691,9.15,0.30,-35.70,17.63
13964,6.82,2.24,-42.38,268.066,-681.152,261.230,9.15,0.30,-35.70,17.63
13974,1.38,2.35,-52.80,-666.992,-348.145,1471.680,10.50,0.15,-34.05,17.68
13983,3.66,2.56,-42.11,-284.668,-627.930,1670.898,10.35,-0.75,-34.95,17.49
13993,5.10,3.44,-50.38,-213.379,-557.617,777.832,10.95,0.15,-35.25,17.34
14002,-1.45,-0.84,-47.40,-317.871,-174.316,1083.496,10.65,0.00,-34.95,17.53
14014,7.24,0.64,-51.23,-208.496,-602.051,209.473,10.65,0.00,-34.95,17.49
14024,5.80,-10.48,-43.26,61.035,-1336.914,1970.215,10.35,0.00,-34.95,17.63
14033,-3.57,-0.63,-35.46,-80.078,-965.332,238.281,11.25,-0.90,-35.25,17.77
14043,-12.85,-3.82,-52.49,-124.512,-265.137,1409.180,11.25,-0.90,-35.25,17.34
14053,-5.01,-15.57,-49.46,4.883,-464.355,1299.805,11.40,-0.75,-36.15,17.53
14063,8.43,-1.95,-42.23,-632.812,-944.336,827.148,11.85,-1.50,-35.40,17.68
14075,0.88,-0.16,-44.11,-309.082,-231.934,998.535,12.00,0.15,-36.30,17.44
14085,15.45,-10.56,-46.66,12.695,-1101.074,1999.939,12.60,-0.75,-35.70,17.53
14095,5.19,-2.28,-50.18,-250.977,-453.125,673.340,12.60,-0.75,-35.70,17.53
14105,-2.15,-8.76,-45.04,-439.453,-1177.734,1999.939,13.50,-0.15,-35.55,17.53
14115,-9.78,2.67,-48.40,-1.953,-775.391,306.152,12.75,-0.90,-35.55,17.68
14125,-10.12,-3.08,-44.95,-522.949,-521.484,1999.939,11.85,-0.30,-35.70,17.49
14135,0.48,0.26,-40.58,304.687,-839.355,576.172,12.00,-0.15,-35.55,17.63
14147,10.05,-1.79,-37.84,301.758,-888.672,-272.949,13.35,-1.05,-34.20,17.44
14157,2.29,6.69,-39.44,-387.695,-307.129,621.094,12.30,-2.25,-34.95,17.77
14167,9.50,-4.69,-47.56,-221.680,-860.352,1999.939,15.30,-1.05,-36.15,17.63
14177,5.35,14.33,-50.18,6.836,-615.234,959.961,15.30,-1.05,-36.15,17.77
14187,4.11,1.63,-56.35,-252.930,-1070.313,1999.939,13.50,-2.55,-35.55,17.63
14197,-1.79,5.63,-46.98,-55.176,-699.707,236.328,14.55,-0.75,-34.95,17.63
14207,-5.15,1.22,-45.23,-365.234,-698.242,1534.668,15.45,-2.55,-34.80,17.44
14219,5.00,6.34,-49.33,-479.004,-475.586,736.816,15.15,-2.55,-35.55,17.53
14229,12.60,-2.26,-43.35,164.551,-697.754,1093.750,15.90,-1.65,-36.00,17.44
14239,4.85,11.69,-51.95,-120.117,-346.191,1483.398,13.80,-1.95,-35.70,17.63
14249,-9.40,0.51,-48.95,-506.348,-360.840,1762.695,13.80,-1.95,-35.70,17.53
14259,-4.71,7.19,-47.97,211.426,-564.941,71.777,13.35,-2.25,-35.70,17.63
14273,-0.47,6.37,-43.76,-142.090,12.695,402.832,15.45,-2.85,-35.55,17.25
14283,2.18,-0.42,-47.26,676.270,-557.617,9.277,15.30,-2.70,-35.70,17.34
14295,2.65,-3.49,-46.47,217.285,-880.371,1913.574,15.75,-2.70,-35.70,17.49
14305,4.15,7.50,-65.36,-397.949,-703.613,817.383,15.75,-2.70,-35.70,17.34
14315,-4.28,-0.05,-49.89,188.477,-496.094,1346.680,16.65,-2.85,-35.25,17.53
14325,-2.51,6.07,-50.62,373.535,-463.379,655.273,14.10,-4.35,-35.70,17.63
14335,-20.42,-1.00,-52.11,-737.793,353.516,1393.066,15.45,-3.75,-36.30,17.49
14345,4.84,-0.72,-46.11,-16.602,-531.738,-468.750,16.20,-3.30,-35.55,17.68
14355,-9.79,1.66,-50.31,-594.238,-913.086,499.023,16.20,-3.30,-35.55,17.29
14367,5.61,10.13,-40.54,-493.164,-570.312,1478.027,15.75,-3.15,-36.60,17.49
14377,8.69,6.08,-42.73,202.148,-161.133,1999.939,17.25,-5.10,-34.95,17.44
14387,6.11,14.60,-55.95,-140.625,-793.945,766.602,17.25,-5.10,-34.95,17.53
14397,-2.37,5.86,-53.38,-185.059,-1336.914,1999.939,17.40,-2.85,-36.00,17.77
14407,-1.42,0.71,-42.26,159.668,-918.457,546.875,18.60,-4.05,-35.55,17.63
14417,-2.57,15.97,-54.00,11.230,-1197.754,870.605,18.15,-3.75,-36.00,17.68
14427,-8.34,6.85,-52.36,-37.598,-508.301,1999.939,18.90,-4.50,-36.30,17.77
14439,-3.58,4.21,-50.17,-333.008,-250.000,1999.939,18.90,-4.50,-36.30,17.49
14449,8.21,1.92,-56.18,355.957,-941.895,844.727,18.90,-5.70,-37.80,17.68
14458,3.79,6.42,-56.53,112.305,-974.121,720.703,18.90,-5.70,-37.80,17.68
14468,-2.05,-6.34,-55.80,-77.148,-603.516,1999.939,18.90,-5.70,-37.80,17.49
14478,1.08,-0.57,-52.24,86.426,-552.246,411.133,18.75,-5.55,-36.60,17.63
14488,-14.99,-11.38,-57.03,-388.672,180.664,1143.555,19.95,-6.30,-37.35,17.63
14500,-4.52,2.40,-57.71,121.094,-624.512,378.906,19.20,-5.10,-36.60,17.49
14510,1.31,-13.65,-64.05,-29.785,-1038.086,836.426,19.20,-5.10,-36.60,17.49
14520,-0.30,-0.40,-64.31,52.734,-924.316,201.660,20.70,-7.50,-36.60,17.49
14530,-9.28,-13.63,-56.12,-181.641,-1102.539,1999.939,19.95,-5.85,-36.60,17.63
14540,-3.29,-3.50,-46.66,281.738,-816.406,-81.055,19.95,-7.95,-37.65,17.49
14550,-13.00,-5.11,-48.73,-320.312,45.898,1437.500,20.25,-7.95,-37.65,17.49
14560,-3.92,-3.40,-49.73,233.398,-722.168,-108.398,20.25,-7.95,-37.65,17.44
14572,9.71,-2.08,-44.21,-46.875,-740.234,1999.939,20.25,-6.75,-37.35,17.49
14582,12.11,5.13,-49.21,-53.223,-784.668,1459.473,20.55,-7.65,-37.05,17.49
14592,14.52,8.66,-46.24,-501.953,-312.500,461.426,20.55,-7.65,-37.05,17.49
14602,8.08,-2.99,-52.21,-18.555,-842.285,-726.562,20.70,-7.50,-36.90,17.63
14612,8.67,6.31,-54.18,-408.203,-852.051,1470.703,21.00,-7.50,-37.65,17.34
14622,9.80,-2.53,-39.38,63.965,-575.195,1999.939,20.25,-7.50,-36.60,17.53
14632,4.80,0.60,-46.50,513.672,-887.695,637.207,20.70,-7.50,-36.90,17.63
14644,-1.31,2.93,-46.82,326.172,-695.801,-496.094,20.70,-7.50,-36.90,17.63
14654,2.19,7.04,-50.18,-430.176,-599.609,959.961,20.25,-9.15,-37.35,17.44
14664,2.66,-0.36,-47.63,-289.062,-354.492,1994.141,20.25,-8.25,-37.35,17.68
14674,8.97,6.40,-55.76,-176.270,-853.516,946.777,21.60,-8.55,-37.05,17.49
14684,6.47,8.87,-39.96,-230.957,-723.145,1999.939,22.80,-9.30,-37.05,17.63
14694,1.57,4.92,-43.32,202.637,-1002.930,-304.199,19.95,-9.15,-36.90,17.49
14704,4.29,15.45,-40.99,-25.879,-1099.121,833.984,19.65,-7.65,-37.50,17.53
14716,-5.62,8.48,-42.35,-335.449,-972.656,652.344,20.55,-9.30,-36.30,17.34
14726,-9.21,6.24,-57.00,-385.742,-676.270,1999.939,20.55,-9.30,-36.30,17.49
14736,-11.98,3.35,-48.93,252.441,-334.961,-267.578,23.25,-9.30,-36.00,17.63
14746,-7.97,6.68,-56.48,-817.871,136.230,351.074,21.90,-10.65,-36.60,17.53
14756,-1.29,-1.52,-58.74,315.918,-421.387,290.039,21.60,-8.85,-37.50,17.44
14766,13.79,11.02,-53.73,-472.168,-321.777,1731.934,22.65,-10.65,-36.60,17.53
14779,23.13,15.66,-50.36,-403.809,-672.852,1477.051,22.65,-10.65,-36.60,17.49
14801,7.12,16.38,-53.53,-222.168,-520.996,243.164,23.25,-12.15,-37.50,17.53
14810,3.08,5.50,-46.44,372.559,-585.937,-627.930,24.30,-10.50,-39.00,17.53
14820,7.06,21.52,-50.19,-30.762,-533.203,1095.703,23.55,-10.95,-37.05,17.34
14830,7.88,-3.00,-44.78,-276.367,-848.633,1999.939,24.75,-10.95,-37.05,17.77
14840,9.35,-2.61,-49.73,500.977,-1019.531,946.777,22.95,-11.85,-37.35,17.63
14852,5.39,-4.28,-49.73,649.414,-552.246,624.512,22.95,-11.85,-37.35,17.63
14862,-8.05,16.26,-51.14,-252.441,-9.277,-299.316,22.80,-11.70,-39.75,17.77
14872,8.80,-11.71,-55.36,720.215,-736.816,-152.344,23.55,-12.45,-37.80,17.49
14882,-9.56,-5.06,-55.08,248.535,-695.312,59.570,23.70,-12.30,-38.40,17.44
14892,-4.76,-7.94,-58.24,130.371,-680.176,974.121,22.65,-13.50,-39.60,17.77
14902,-0.49,-7.98,-47.19,153.809,-1174.316,1337.402,22.65,-13.50,-39.60,17.25
14912,-2.60,4.28,-48.47,-119.629,-368.164,715.332,23.25,-14.85,-39.00,17.68
14924,5.38,-0.12,-44.91,-528.809,-254.883,1213.379,22.95,-12.75,-39.15,17.25
14934,2.24,-1.01,-57.60,-411.621,-951.172,1999.939,22.95,-12.75,-39.15,17.49
14944,7.98,6.24,-40.09,372.559,-1105.957,384.277,24.00,-15.60,-39.30,17.77
14954,-6.02,2.46,-49.54,-402.344,-646.484,374.512,23.55,-14.10,-40.05,17.63
14964,-6.35,-7.37,-52.25,411.621,-1509.277,537.598,24.00,-15.30,-39.00,17.53
14974,-8.85,10.50,-49.71,-261.719,-1243.164,891.113,24.30,-14.10,-37.50,17.68
14984,-1.02,4.59,-45.12,75.684,-932.617,1999.939,24.30,-14.10,-37.50,17.53
14996,2.25,-1.06,-51.09,-329.102,472.168,108.398,23.70,-15.45,-39.60,17.53
15006,6.62,9.10,-54.79,695.801,-390.625,-1055.176,24.00,-16.50,-37.50,17.49
15016,27.27,14.50,-52.03,-210.937,-674.316,653.320,24.15,-14.70,-41.40,17.44
15026,14.61,-11.37,-63.39,1126.465,-693.848,311.035,24.90,-15.45,-39.15,17.49
15036,2.84,4.70,-50.87,-589.355,-333.496,1751.465,23.55,-16.50,-39.00,17.63
15046,5.84,-9.16,-52.08,155.762,-1091.797,1999.939,24.00,-15.60,-39.00,17.63
15058,-1.32,-11.26,-38.54,200.195,-686.035,1999.939,25.35,-16.65,-38.40,17.49
15068,7.28,-6.14,-49.31,-486.816,-290.527,726.562,25.35,-16.65,-38.40,17.63
15078,-7.13,-7.24,-44.28,-817.383,181.641,1414.063,25.80,-16.80,-38.25,17.68
15088,3.96,-4.23,-48.11,-115.234,-324.219,84.473,24.15,-17.85,-38.85,17.34
15098,0.21,-6.50,-55.40,-1072.754,-259.277,260.742,24.00,-18.90,-39.75,17.49
15108,-3.10,-4.13,-46.09,273.437,-658.203,1.465,23.40,-16.20,-38.40,17.68
15118,-2.75,7.69,-47.31,-266.113,-388.672,827.148,23.40,-16.20,-38.40,17.44
15130,-18.18,7.94,-55.07,-308.105,-234.375,-64.453,24.15,-18.60,-39.15,17.53
15140,8.31,-10.15,-48.18,196.289,-676.758,1999.939,24.75,-17.25,-39.75,17.44
15150,0.12,5.89,-46.86,-416.504,-877.441,1285.645,24.75,-17.25,-39.75,17.68
15160,15.47,4.22,-36.05,644.531,-1375.488,1999.939,24.30,-18.45,-39.30,17.63
15169,4.60,-5.57,-44.92,362.305,-889.648,-145.020,23.55,-17.70,-39.75,17.68
15179,-0.18,12.24,-56.40,-460.937,-496.582,1476.074,25.50,-20.40,-39.30,17.87
15189,1.56,1.66,-42.22,-40.527,-443.848,1999.939,23.70,-18.60,-38.85,17.49
15201,-0.50,-10.75,-64.10,-64.941,-1369.629,1999.939,25.05,-21.30,-39.00,17.53
15211,-6.54,1.68,-39.73,-624.512,-632.324,789.062,23.70,-20.70,-39.60,17.49
15221,-5.70,6.98,-44.63,65.430,-674.805,1999.939,25.05,-20.10,-39.00,17.68
15231,0.63,3.99,-51.56,-266.602,-661.621,267.578,24.30,-21.60,-38.55,17.25
15241,-9.76,1.71,-50.45,-498.535,199.707,629.883,25.05,-19.65,-40.50,17.29
15251,12.88,1.70,-45.77,-319.336,-479.492,381.348,24.30,-19.65,-39.75,17.77
15263,6.95,0.51,-46.26,-298.340,-107.422,367.676,24.30,-21.60,-39.75,17.49
15273,5.50,0.73,-51.92,321.289,-1025.391,1022.949,24.30,-21.60,-39.75,17.53
15283,-7.09,6.57,-43.05,-451.172,93.262,867.676,25.50,-20.10,-40.05,17.82
15293,0.69,-2.77,-49.42,438.965,-815.918,1999.939,25.35,-23.10,-40.35,17.87
15303,-7.39,9.89,-44.89,-677.246,133.789,1421.387,23.70,-21.90,-39.60,17.68
15319,-6.05,-7.71,-51.02,-125.977,-486.328,-72.754,24.15,-21.00,-38.85,17.53
15328,-14.62,2.88,-34.80,-630.859,-195.312,260.742,24.15,-21.00,-38.85,17.63
15340,-9.94,-4.21,-47.50,-834.473,-11.719,1056.641,23.55,-21.30,-41.25,17.15
15350,7.58,2.31,-46.84,205.078,-714.844,-64.941,24.00,-20.10,-39.00,17.82
15360,-9.15,5.70,-54.18,-219.727,-196.289,831.055,24.00,-20.10,-39.00,17.87
15370,9.35,-2.51,-49.32,153.320,-500.488,-178.711,24.30,-22.80,-39.75,17.49
15380,-8.50,-5.05,-40.48,211.914,-1344.727,1790.527,24.75,-21.60,-41.25,17.77
15390,-12.34,-6.14,-53.99,-106.934,-567.871,998.535,24.30,-22.80,-40.50,17.77
15400,-10.01,-8.96,-60.19,-181.152,-696.777,1999.939,24.30,-23.25,-39.00,17.44
15412,-5.67,-11.95,-53.23,-205.078,-359.863,1375.488,24.30,-22.50,-39.75,17.49
15422,-11.31,-2.38,-45.79,-165.039,-622.070,1981.934,24.60,-25.05,-39.60,17.49
15432,-2.60,-3.86,-34.40,-96.680,-628.418,-394.531,23.55,-24.00,-40.80,17.77
15442,4.34,-14.45,-32.54,414.551,-1438.965,1999.939,24.00,-24.45,-40.05,17.53
15452,-7.60,-2.22,-41.51,-1082.520,-450.195,1380.859,24.00,-24.45,-40.05,17.49
15462,-4.01,-8.29,-29.54,772.949,-1375.488,1999.939,24.00,-24.45,-41.55,17.82
15474,9.25,-8.03,-58.80,491.699,-1065.430,1999.939,24.30,-25.65,-39.30,17.63
15484,-1.50,10.53,-41.63,-708.496,78.125,1875.000,24.30,-25.65,-39.30,17.77
15494,4.51,-9.29,-49.79,41.992,-977.539,1999.939,24.90,-25.05,-41.85,17.77
15504,-10.03,13.13,-44.72,-827.148,-254.395,1679.199,24.00,-24.45,-39.75,17.49
15514,6.75,3.09,-51.95,786.621,-711.426,1851.074,22.95,-26.55,-39.90,17.68
15524,-6.07,6.47,-28.70,-672.363,-557.129,682.129,22.80,-25.20,-40.80,17.63
15534,5.39,-0.65,-27.89,996.582,-921.387,1033.691,22.80,-25.20,-40.80,17.82
15546,12.02,-2.11,-33.23,1041.992,-358.398,95.215,23.25,-28.35,-39.75,17.68
15556,-8.78,10.13,-41.29,-200.684,-250.488,182.617,22.20,-27.00,-39.90,17.34
15566,4.79,-6.04,-39.31,504.883,-428.711,95.215,22.80,-25.65,-39.75,17.63
15576,-2.41,-15.18,-47.48,337.402,-1100.098,955.078,23.55,-25.95,-38.55,17.77
15586,-6.60,0.62,-53.05,-297.363,30.762,177.734,23.55,-25.95,-38.55,17.10
15596,9.78,9.69,-34.75,610.840,-1149.902,1030.273,22.95,-25.50,-41.10,17.49
15608,15.33,-0.92,-56.85,252.441,-844.238,1436.523,22.65,-27.75,-39.60,17.25
15618,-2.23,3.16,-32.73,-749.023,-360.352,1235.840,22.65,-27.75,-39.60,17.68
15628,26.89,-5.31,-37.69,348.633,-752.441,-382.324,22.35,-26.40,-40.05,17.77
15638,-3.53,3.08,-45.56,-4.395,-238.770,525.391,22.35,-28.80,-40.05,17.63
15648,8.82,2.11,-34.18,245.605,-742.676,-694.824,21.90,-28.65,-41.10,17.82
15658,-23.69,1.87,-41.60,-28.320,-765.625,506.348,21.90,-27.75,-41.40,17.49
15668,-6.74,5.16,-39.74,-478.516,-340.332,-22.949,21.90,-27.75,-41.40,17.34
15680,-9.76,2.03,-42.77,-808.594,184.082,1475.098,22.65,-28.95,-39.90,17.49
15690,9.85,-10.72,-38.68,423.828,-1382.324,1999.939,21.60,-28.05,-42.00,17.49
15700,-5.31,16.92,-55.26,-780.762,-187.012,1368.164,22.65,-28.65,-39.90,17.53
15710,17.87,-4.13,-37.79,602.539,-1268.066,1490.723,22.65,-28.65,-40.35,17.68
15720,-9.53,5.29,-43.57,-505.859,-625.488,794.434,20.70,-28.65,-40.65,17.68
15730,20.01,-18.59,-27.78,370.605,-939.453,-741.211,22.65,-28.65,-40.35,17.77
15740,-9.64,2.37,-47.47,481.445,-318.848,-146.484,21.60,-29.55,-40.05,17.77
15752,-7.36,0.19,-49.85,318.359,-335.449,398.437,22.20,-28.95,-40.35,17.49
15762,3.42,1.62,-38.43,-661.133,231.445,554.199,21.45,-31.05,-39.60,17.63
15771,-10.61,5.31,-48.61,-403.809,-589.355,807.129,21.45,-31.05,-39.60,17.53
15781,9.56,1.47,-37.54,208.984,-561.523,-826.172,21.30,-30.75,-41.25,17.68
15791,16.08,13.47,-56.95,927.246,-791.504,-256.348,20.70,-29.85,-41.10,17.53
15801,4.94,-5.61,-49.52,17.090,-243.652,-13.184,20.70,-29.85,-41.10,17.77
15813,0.64,-9.43,-3.68,-140.137,-491.211,904.297,20.25,-30.15,-40.35,17.49
15823,0.98,-11.71,-40.71,701.660,-1202.148,1196.777,20.25,-30.15,-40.35,17.49
15838,-16.33,-3.74,-39.76,170.898,-339.355,1587.891,18.90,-31.65,-39.75,17.49
15847,-2.40,1.77,-56.13,-187.500,342.773,-144.043,19.50,-31.05,-41.10,17.49
15857,5.89,-12.18,-43.36,315.430,-744.141,1667.969,20.85,-31.20,-40.05,17.63
15867,-6.15,2.09,-37.86,6.348,-145.020,483.887,19.95,-30.15,-39.90,17.77
15877,15.68,-14.76,-30.42,-359.863,-662.109,1285.645,19.95,-30.15,-39.90,17.53
15889,9.45,2.36,-43.27,-320.801,-543.945,573.730,19.50,-30.60,-39.90,17.49
15899,0.66,2.37,-24.98,503.906,-574.219,1142.090,18.75,-32.55,-38.85,17.63
15909,-2.04,3.82,-48.16,-661.133,-118.164,992.676,20.10,-31.95,-41.55,17.49
15919,7.86,4.89,-22.57,223.633,-723.633,1567.871,19.50,-30.15,-39.90,17.63
15929,4.03,4.49,-38.79,-165.527,-1022.949,1285.156,19.50,-30.15,-39.90,17.44
15939,10.36,0.11,-42.83,-303.223,-1190.918,751.953,19.50,-32.55,-39.90,17.77
15949,8.86,0.15,-16.15,444.336,-550.293,1394.043,18.15,-30.75,-40.50,17.49
15960,14.18,4.07,-41.44,407.227,-757.324,1320.313,18.15,-30.75,-40.50,17.63
15970,13.06,5.60,-29.73,-515.625,-699.707,359.375,18.45,-32.55,-40.35,17.77
15980,-5.40,-0.60,-36.08,570.312,-943.848,1999.939,18.75,-31.80,-40.65,17.53
15990,-16.92,5.37,-42.03,-76.660,155.762,-50.293,18.90,-31.20,-37.80,17.49
16000,-4.14,-2.69,-46.81,153.809,-688.477,623.047,18.60,-34.35,-40.05,17.63
16010,6.85,-1.71,-44.56,445.312,-103.027,1292.480,18.60,-34.35,-40.05,17.53
16020,3.43,2.10,-50.42,-205.566,-310.059,543.457,19.50,-31.35,-40.35,17.68
16032,-5.03,4.61,-43.41,-8.301,-76.172,235.352,18.00,-33.75,-39.90,17.53
16042,6.47,-9.66,-47.76,145.996,-995.117,1999.939,18.00,-33.75,-39.90,17.53
16052,2.24,-2.40,-39.33,151.367,-996.094,693.359,18.75,-32.55,-39.90,17.63
16062,7.44,-10.32,-38.53,-384.766,-602.539,562.500,18.60,-32.85,-41.25,17.29
16072,-2.42,-3.20,-29.94,23.926,-685.547,1999.939,18.75,-35.40,-41.40,17.49
16082,-8.15,3.65,-40.71,124.512,-332.031,72.754,17.85,-32.85,-41.25,17.77
16094,1.17,5.02,-56.37,647.461,-641.113,1523.438,17.85,-34.35,-40.80,17.53
16104,-0.92,-3.14,-43.21,-229.980,-398.926,1004.395,17.25,-34.20,-40.65,17.53
16114,2.02,1.18,-38.15,-118.652,-52.246,916.016,17.40,-33.60,-38.55,17.82
16124,6.74,2.88,-53.76,341.797,-831.055,1827.637,18.75,-33.75,-40.35,17.49
16134,-1.85,2.26,-38.92,-249.023,-587.891,1003.906,18.75,-33.75,-40.35,17.29
16144,-3.95,0.27,-33.69,102.539,-695.801,668.457,16.80,-31.35,-39.60,17.34
16154,-0.40,-0.21,-42.29,258.789,-621.582,-458.496,17.40,-33.60,-39.00,17.68
16166,-0.27,-5.66,-30.89,-24.902,-666.016,1395.508,17.40,-33.60,-39.00,17.63
16176,0.27,-9.01,-39.48,248.047,-886.719,1137.207,16.50,-34.20,-41.10,17.77
16186,-1.37,-6.40,-41.25,-266.113,-333.008,1841.309,16.50,-33.00,-39.90,17.68
16196,10.50,-4.84,-47.05,150.391,-945.801,456.543,17.25,-35.85,-39.15,17.68
16206,3.34,-7.25,-39.15,0.488,-705.078,68.359,17.10,-34.80,-39.30,17.53
16216,-1.72,2.98,-23.07,-343.262,-453.613,1157.227,17.10,-34.80,-39.30,17.34
16226,7.08,7.21,-10.15,348.633,-528.809,667.480,17.25,-34.95,-39.60,17.49
16238,-3.84,-6.53,-39.22,-102.051,-349.121,1460.938,16.65,-35.55,-39.75,17.29
16248,-4.59,-4.45,-16.16,126.953,-942.383,175.781,16.20,-35.25,-40.50,17.44
16258,-12.47,3.11,-54.84,-541.504,190.918,1381.348,16.80,-34.20,-39.60,17.77
16268,7.06,8.42,-32.40,651.855,-219.238,1241.211,16.80,-34.20,-39.60,17.77
16277,-7.62,-5.19,-47.04,-445.312,166.992,1758.301,16.50,-36.15,-39.90,17.82
16287,1.08,4.33,-25.21,320.312,-702.637,811.523,16.20,-33.15,-39.00,17.49
16299,-13.56,2.15,-27.61,-280.762,141.602,1625.000,16.20,-33.15,-39.00,17.82
16309,12.91,0.20,-24.39,174.316,-846.680,537.598,16.20,-34.35,-38.55,17.53
16319,5.85,-5.37,-51.30,-23.437,-769.531,300.781,16.65,-35.55,-40.50,17.63
16329,-7.34,0.31,-7.48,-407.227,113.770,1999.939,15.45,-34.35,-39.75,17.77
16339,3.16,8.54,-41.89,537.109,-759.766,381.348,15.75,-36.60,-38.85,17.53
16354,-3.63,-3.44,-12.31,171.387,-470.215,1057.617,15.75,-36.60,-38.85,17.44
16363,-11.11,2.11,-35.13,-1009.277,525.879,490.723,15.30,-34.95,-39.15,17.68
16375,-0.06,-2.44,-18.80,-171.875,-825.684,956.055,15.30,-34.95,-39.15,17.25
16385,-5.26,-3.33,-35.52,-623.047,200.684,1231.445,15.90,-34.05,-39.00,17.25
16395,20.82,0.01,-27.69,666.016,-776.855,1506.348,15.30,-34.20,-38.40,17.49
16405,5.34,-3.68,-25.09,-185.059,-845.703,322.754,14.70,-36.75,-39.00,17.49
16415,0.11,3.26,-24.70,-280.762,-660.156,1412.109,15.15,-37.20,-39.30,17.63
16425,8.40,-6.34,-41.44,265.137,-647.461,1655.762,15.15,-37.20,-39.30,17.63
16435,3.40,-4.11,-45.94,402.344,-864.258,105.469,15.45,-34.80,-37.80,17.49
16446,11.05,-5.45,-36.88,354.492,-1289.551,976.074,13.95,-36.00,-38.55,17.34
16456,-18.90,1.81,-25.74,-142.578,-29.297,584.961,13.50,-34.80,-39.75,17.49
16466,-10.26,1.69,-28.17,302.734,-692.871,190.430,15.30,-34.95,-38.40,17.68
16476,-14.74,3.31,-29.63,-641.113,-124.512,908.203,15.30,-34.95,-38.40,17.49
16486,-5.57,12.79,-16.63,-41.016,115.723,1524.902,13.95,-36.45,-38.55,17.68
16496,7.53,-1.21,-32.93,-417.480,238.281,706.543,13.50,-35.55,-39.00,17.77
16508,-9.73,0.98,-32.93,-386.719,125.000,1216.309,13.50,-35.55,-39.00,17.77
16518,5.42,1.04,-15.16,-7.324,-901.367,1057.617,14.70,-37.20,-38.25,17.49
16528,1.95,-6.27,-28.35,-352.051,-1201.660,1999.939,14.10,-35.40,-39.15,17.44
16538,-1.92,8.00,-44.84,-562.500,-549.316,775.391,12.75,-36.00,-39.30,17.34
16548,7.69,3.42,-29.37,-278.320,-311.035,983.398,13.80,-35.40,-36.60,17.63
16558,8.98,-0.95,-46.92,182.129,-719.727,994.141,13.80,-35.40,-36.60,17.44
16568,3.08,4.52,-20.40,-351.074,-354.492,1798.340,13.95,-34.80,-38.55,17.63
16580,7.11,2.95,-27.14,89.844,-887.207,1418.945,14.10,-33.75,-38.40,17.49
16590,3.00,8.19,-39.36,-526.367,131.348,1470.215,13.05,-35.40,-38.40,17.44
16600,9.05,3.53,-25.08,44.434,-558.105,1597.168,14.10,-36.15,-37.35,17.63
16610,0.24,7.68,-29.83,259.766,-497.559,406.250,14.10,-36.15,-37.35,17.34
16619,7.40,10.53,-12.72,788.086,-404.785,294.434,12.45,-36.45,-38.25,17.49
16629,0.67,0.20,-23.93,160.645,-536.133,303.223,12.45,-36.75,-38.55,17.53
16638,-9.24,-0.99,-13.98,-186.523,15.137,1138.184,12.45,-36.75,-38.55,17.68
16650,-15.95,-12.94,-52.69,-504.883,223.633,1466.309,13.20,-35.25,-37.80,17.49
16660,16.80,-0.25,-12.29,-139.160,-684.082,954.102,13.95,-37.65,-37.50,17.49
16670,9.25,4.21,-50.85,29.785,-727.539,229.980,12.45,-35.55,-37.80,17.49
16680,2.90,8.92,-15.03,-182.617,-184.082,907.227,12.75,-35.25,-38.55,17.34
16690,9.21,-2.56,-23.96,215.820,-753.418,742.676,12.75,-35.25,-38.55,17.63
16700,1.17,-5.86,-47.85,300.293,-1010.254,1021.484,13.35,-37.35,-39.90,17.63
16710,-2.82,-2.56,-33.47,-167.969,-737.793,237.793,12.60,-33.75,-38.85,17.63
16722,-1.65,-0.85,-28.43,163.574,-250.000,109.863,12.00,-35.55,-39.30,17.63
16732,-3.10,1.66,-33.72,-150.391,-456.543,1295.410,13.20,-36.75,-37.80,17.77
16742,6.47,-1.37,-28.82,220.703,-580.566,698.242,12.75,-36.45,-38.25,17.68
16752,5.49,-6.18,-30.95,-173.828,-1028.320,1999.939,13.20,-34.05,-39.30,17.53
16762,3.77,-1.96,-38.73,-470.703,31.738,1120.117,12.00,-35.55,-37.50,17.49
16772,17.19,-3.40,-32.56,27.344,-736.328,978.027,12.00,-35.55,-37.50,17.68
16784,-3.08,-1.66,-36.18,-20.996,-705.078,1239.258,11.25,-36.45,-37.80,17.82
16794,-5.31,-4.66,-43.83,5.371,-1042.480,504.395,11.25,-36.45,-37.80,17.77
16804,-8.42,-3.75,-34.23,-724.609,-264.160,1342.773,11.40,-37.05,-76.50,17.82
16814,-3.08,2.52,-46.92,-153.809,-74.219,1024.902,11.40,-37.05,-38.10,17.77
16824,-3.05,0.95,-28.39,-212.402,-922.852,1140.137,11.40,-37.05,-38.10,17.63
16834,-5.02,2.84,-37.51,-318.848,-659.180,336.426,11.25,-35.55,-37.80,17.29
16844,1.10,10.48,-41.67,82.520,204.102,855.469,11.25,-35.55,-37.80,17.63
16856,-1.60,10.11,-31.64,-366.699,-659.668,1106.934,12.00,-35.55,-36.30,17.25
16870,6.35,1.49,-42.94,-143.555,-1283.203,1340.332,11.85,-35.40,-37.35,17.53
16880,1.66,9.97,-35.60,-353.027,-161.621,750.977,12.30,-35.85,-38.85,17.53
16890,5.00,-0.12,-41.54,-266.602,-1018.555,1276.855,11.25,-36.45,-38.25,17.68
16900,7.48,1.31,-40.98,-164.062,-691.895,1092.773,11.25,-36.45,-38.25,17.34
16910,3.38,9.09,-49.56,-229.004,-277.344,812.988,11.40,-36.15,-38.85,17.77
16922,5.07,2.27,-41.82,175.293,-1326.660,1000.488,11.25,-36.45,-39.00,17.44
16932,-9.75,7.47,-48.89,-535.156,-277.344,725.586,12.30,-34.65,-38.40,17.63
16942,-1.50,5.77,-43.57,-67.871,-577.148,1221.191,11.70,-35.55,-38.55,17.63
16952,3.99,5.90,-45.72,9.277,-828.125,723.633,11.70,-35.55,-38.55,17.77
16962,-2.29,8.17,-54.82,-191.895,-420.898,356.934,11.10,-36.15,-37.35,17.53
16972,5.27,6.76,-46.32,36.621,-992.187,817.383,10.50,-36.45,-37.80,17.68
16982,0.69,1.92,-47.91,-194.336,-528.320,1706.543,10.50,-36.45,-37.80,17.49
16994,-7.19,6.17,-40.17,-74.707,-976.074,699.707,11.40,-37.80,-38.10,17.82
17004,-0.27,2.92,-51.99,-99.609,-451.172,597.168,10.50,-36.75,-37.80,17.44
17014,-15.79,2.05,-52.74,-412.109,-585.449,1611.816,10.05,-36.00,-38.55,17.63
17024,-1.53,-4.37,-49.40,-36.133,-647.461,927.734,10.65,-37.35,-37.35,17.63
17034,-1.27,-1.03,-50.66,-154.297,-808.594,715.332,10.65,-37.35,-37.35,17.68
17044,-8.25,1.69,-44.80,-207.520,-247.070,1098.633,9.60,-37.35,-37.65,17.77
17054,10.13,-3.67,-49.48,-156.738,-832.031,1120.117,9.75,-37.20,-36.75,17.77
17066,12.58,-1.75,-54.43,-398.437,-890.625,1249.512,8.70,-37.35,-38.40,17.49
17076,20.98,2.29,-47.24,-121.582,-1072.266,1646.484,10.50,-37.20,-37.80,17.68
17086,2.95,2.52,-47.44,-239.258,-311.523,1078.125,10.35,-37.05,-37.65,17.29
17096,5.73,-2.17,-51.02,-101.074,-766.113,591.309,9.75,-38.40,-37.50,17.68
17106,2.75,-5.69,-52.66,-387.207,-851.074,1346.680,9.75,-38.40,-37.50,17.63
17116,2.81,-3.73,-47.75,-152.344,-655.273,1615.234,9.30,-37.65,-37.05,17.63
17128,2.40,0.59,-51.69,71.289,-704.102,1160.645,8.70,-38.25,-37.35,17.82
17138,-9.57,1.76,-48.50,-77.148,-115.234,400.391,10.65,-36.60,-35.70,17.53
17148,4.41,-6.44,-51.32,50.781,-807.129,1273.926,8.25,-38.70,-36.30,17.63
17158,-2.25,-5.24,-49.75,-209.961,-462.891,1711.426,8.25,-38.70,-36.30,17.77
17168,4.38,-5.63,-50.82,-24.902,-275.391,830.566,9.75,-38.70,-37.05,17.49
17178,-2.84,-4.76,-47.44,-296.387,-417.969,893.555,7.80,-38.70,-36.30,17.63
17188,2.83,-1.14,-45.76,-396.973,-776.367,565.918,7.80,-38.70,-36.30,17.82
17200,2.09,-1.26,-41.39,-447.754,-485.840,604.492,8.70,-38.55,-36.15,17.53
17210,-1.76,-3.13,-51.66,-299.805,-1019.043,1921.387,7.65,-37.80,-36.90,17.63
17220,-0.89,0.47,-46.85,-424.316,-1106.445,353.516,7.65,-38.25,-36.90,17.53
17230,4.48,2.62,-46.25,-82.031,-1239.746,1635.742,6.90,-38.55,-36.60,17.49
17240,-1.99,1.75,-41.41,-305.664,-183.105,618.164,6.90,-38.55,-36.60,17.63
17250,5.27,5.15,-46.66,-36.133,137.207,564.453,8.25,-38.70,-35.55,17.44
17259,15.01,2.55,-45.77,-28.809,-474.121,709.961,7.35,-38.40,-37.50,17.63
17271,7.10,5.04,-47.60,-459.961,-785.645,666.504,6.60,-39.15,-37.05,17.53
17281,-2.31,6.93,-46.53,127.930,-903.320,1038.086,7.65,-40.20,-36.60,17.68
17291,-6.82,1.68,-37.10,-333.496,-607.422,1100.098,7.65,-40.20,-36.60,17.77
17301,-8.22,-1.27,-50.92,-357.422,-280.762,1261.230,7.65,-39.75,-36.90,17.68
17311,-0.45,1.08,-46.35,10.254,-485.352,242.187,6.30,-39.90,-37.50,17.63
17321,1.26,-1.30,-49.65,-495.117,-831.055,1999.939,6.30,-39.90,-37.50,17.25
17331,4.14,-0.04,-44.32,-84.961,-488.281,105.469,7.20,-39.30,-36.60,17.68
17343,4.55,1.82,-55.82,-194.824,-957.520,637.695,6.45,-39.00,-34.95,17.44
17353,-2.49,-3.50,-48.98,-210.449,-798.340,1468.750,5.25,-39.30,-35.40,17.68
17363,1.70,-5.18,-45.44,-279.297,-239.746,826.172,5.70,-40.20,-36.15,17.77
17373,7.04,-2.63,-44.32,276.367,-1064.941,1158.691,5.70,-40.20,-36.15,17.77
17390,-10.16,-1.40,-42.83,-293.457,-337.891,1353.516,4.80,-40.35,-36.00,17.53
17399,10.76,-6.50,-51.69,170.898,-957.031,1273.438,5.55,-39.60,-36.30,17.68
17411,-3.95,-2.28,-41.56,-69.336,-560.547,734.375,5.70,-39.75,-35.70,17.63
17421,-2.46,5.99,-45.49,-202.148,-670.898,602.051,5.25,-39.75,-35.40,17.68
17431,-0.73,-0.18,-44.95,100.098,-974.609,1523.438,4.20,-39.75,-34.65,17.49
17441,8.79,7.08,-49.51,-151.855,-432.129,127.930,2.85,-40.80,-36.75,17.77
17451,13.50,-10.51,-33.71,45.898,-829.590,1952.637,2.85,-40.80,-36.75,17.68
17461,16.51,0.50,-34.00,-100.586,-812.500,705.078,4.20,-41.70,-35.40,17.77
17471,6.39,-5.38,-46.44,10.254,-934.082,1586.426,3.75,-40.20,-35.70,17.53
17483,-3.15,-2.84,-45.18,121.582,-1085.449,1961.914,3.15,-40.35,-36.75,17.63
17493,-13.41,-0.10,-57.81,-399.414,-363.770,1025.391,2.40,-39.90,-35.55,17.82
17503,-3.58,-0.75,-41.40,252.441,-784.668,1953.613,2.40,-39.90,-35.55,17.68
17513,-4.84,0.21,-46.97,230.957,-239.258,1086.426,3.00,-40.50,-35.40,17.44
17523,1.35,-4.37,-47.05,-229.004,-301.270,1580.078,2.25,-40.95,-34.20,17.82
17533,13.45,-1.55,-59.09,-287.109,-883.301,870.605,2.25,-40.95,-34.20,17.68
17545,0.67,-1.34,-48.85,125.488,-830.566,660.645,2.10,-42.00,-35.55,17.68
17555,-18.04,-0.07,-33.21,-338.379,-518.066,1376.465,3.00,-42.15,-34.95,17.68
17565,-6.44,-7.26,-43.08,104.004,-1108.887,541.992,2.40,-40.80,-36.00,17.49
17575,-12.47,0.96,-49.63,-590.820,-615.723,1073.730,2.10,-40.80,-36.30,17.82
17585,-6.08,-1.37,-41.08,-60.059,-691.406,1104.492,2.10,-40.80,-36.30,17.68
17595,-1.09,-1.00,-48.80,-241.699,-478.516,795.410,1.20,-42.00,-35.25,17.34
17605,10.24,-0.54,-53.27,-80.078,-254.883,939.453,2.40,-42.75,-35.25,17.77
17617,10.44,3.24,-39.36,47.363,-747.070,302.246,-0.15,-41.55,-34.05,17.25
17627,6.18,6.10,-47.11,-119.629,-590.820,839.844,-0.15,-41.55,-34.05,17.63
17637,4.91,-3.79,-41.34,-6.348,-766.113,1999.939,0.75,-42.90,-35.40,17.68
17647,7.43,0.33,-47.05,-334.473,-724.121,647.949,-0.45,-39.60,-36.00,17.53
17657,-5.58,0.21,-42.83,-249.023,-854.980,1999.939,-0.45,-39.60,-36.00,17.68
17667,3.00,-5.03,-39.95,-42.480,-626.953,926.270,-0.30,-41.40,-36.15,17.63
17677,-16.76,-1.02,-51.13,-194.824,-338.379,879.395,-0.90,-39.60,-35.55,17.34
17689,-10.53,0.68,-41.82,-1039.063,-457.031,940.430,0.00,-42.15,-34.65,17.82
