Time_ms,GyroX_degps,GyroY_degps,GyroZ_degps,AccelX_g,AccelY_g,AccelZ_g,MagX_uT,MagY_uT,MagZ_uT,Temp_C
1365,1.25,1.02,-3.48,-17.578,58.594,985.352,-21.60,-8.10,-31.80,17.63
1382,-0.58,2.16,-0.38,-10.742,58.105,1057.617,-20.55,-9.30,-31.80,17.53
1391,-1.51,-0.36,-0.08,24.414,45.410,1041.504,-22.35,-8.55,-31.50,17.87
1401,0.87,1.48,-0.48,69.824,20.508,954.102,-20.85,-9.75,-29.55,17.77
1411,0.31,-2.33,-2.82,39.551,-9.766,1062.500,-20.70,-9.45,-29.40,17.77
1421,1.06,-0.08,0.04,95.215,35.645,975.098,-19.50,-8.70,-30.15,17.44
1431,0.82,-0.50,1.44,72.266,19.043,1066.406,-19.50,-8.70,-30.15,17.68
1440,-0.02,1.28,-2.87,19.043,23.926,958.496,-20.10,-10.05,-29.10,17.49
1452,-0.42,0.43,-1.99,33.203,19.531,1020.020,-20.55,-9.30,-29.85,18.01
1462,0.05,1.10,-0.12,-18.555,18.066,1002.930,-20.70,-8.70,-30.90,17.82
1472,-2.31,-0.47,-0.05,-10.254,47.363,998.047,-20.10,-8.85,-29.85,17.82
1482,-0.74,-0.25,-0.73,51.270,32.715,1054.199,-20.10,-8.85,-29.85,17.63
1492,0.75,0.84,-0.44,56.641,30.762,1015.625,-20.55,-10.05,-29.10,17.68
1502,-0.31,-0.82,-2.46,90.820,45.410,1153.320,-20.25,-10.65,-29.40,17.87
1512,0.08,0.37,0.11,114.746,37.598,988.281,-20.25,-10.65,-29.40,17.82
1524,-0.56,0.92,-0.57,29.785,37.598,1070.313,-20.55,-11.25,-29.55,17.87
1534,-1.48,0.89,0.60,24.414,11.719,964.355,-20.25,-9.45,-28.95,17.82
1544,1.79,0.80,-0.18,44.922,29.297,1066.895,-19.20,-9.15,-28.65,17.77
1553,-0.63,-0.84,1.30,89.355,22.949,1007.324,-19.20,-9.15,-28.65,17.82
1563,2.13,1.06,1.19,65.430,27.832,1010.742,-19.95,-7.95,-30.15,17.53
1573,-3.29,0.58,-1.56,119.629,9.277,1008.789,-18.90,-9.30,-30.30,17.77
1583,1.45,1.20,1.19,73.242,55.176,1001.953,-18.90,-9.30,-30.30,17.53
1595,-2.31,1.25,-0.50,41.016,12.207,953.125,-19.65,-10.50,-30.30,17.77
1605,-0.70,1.25,-1.30,51.270,20.996,1041.504,-19.65,-10.50,-30.30,17.77
1615,-0.38,1.76,-2.22,76.660,7.324,979.980,-20.55,-9.30,-31.50,17.87
1625,0.47,2.86,0.79,129.395,5.371,1053.223,-21.90,-9.90,-31.65,17.87
1635,-2.08,1.75,-3.60,88.867,12.695,957.520,-21.90,-9.90,-31.65,17.68
1645,0.06,1.14,-3.54,26.855,22.949,1097.656,-22.35,-9.30,-31.05,17.77
1655,-1.35,1.31,-0.21,45.898,23.437,958.984,-22.35,-7.65,-32.55,17.82
1667,1.42,-2.67,6.08,91.797,11.230,1093.262,-22.35,-7.35,-33.30,17.77
1677,1.66,1.05,1.67,127.930,41.992,1020.996,-21.45,-8.70,-33.15,17.77
1687,0.46,-0.65,-1.06,22.461,32.715,1051.270,-21.45,-8.70,-33.15,17.63
1697,1.50,0.56,-0.69,59.082,32.227,984.863,-24.00,-9.75,-33.30,17.87
1707,-1.19,0.82,-4.31,139.648,40.039,976.562,-24.00,-9.75,-32.55,17.87
1717,0.25,0.02,1.62,132.324,59.082,981.934,-23.25,-10.50,-30.75,17.53
1727,-0.47,0.38,-5.66,46.387,29.297,997.559,-24.00,-9.75,-32.55,17.97
1737,-1.00,0.27,-0.46,80.566,46.875,1028.320,-23.25,-9.75,-31.05,18.01
1749,-2.79,-0.85,-1.93,126.465,32.227,1047.363,-22.20,-8.70,-30.15,17.77
1759,-0.61,1.63,2.03,98.145,-25.879,1018.066,-21.45,-10.35,-29.40,17.77
1769,2.63,0.07,1.26,2.441,77.148,1160.156,-21.45,-10.35,-29.40,17.87
1779,-0.30,-0.24,-0.69,96.680,35.645,1018.066,-21.00,-11.55,-29.40,17.82
1789,0.36,-0.69,-2.85,184.570,5.371,996.094,-19.65,-10.95,-28.35,17.82
1799,-1.06,1.37,-0.62,4.395,29.297,1016.113,-20.10,-9.75,-28.80,17.87
1809,0.01,0.60,0.63,110.352,-27.344,1109.863,-18.15,-9.75,-29.10,17.68
1821,1.00,1.35,-0.45,195.801,37.598,968.262,-18.15,-9.75,-29.10,17.68
1831,1.12,0.83,0.70,-13.184,26.367,1004.883,-20.10,-10.05,-29.55,17.68
1841,1.27,-0.30,-2.67,101.563,1.953,1056.152,-20.85,-9.30,-30.75,18.01
1851,0.78,-0.37,-0.40,242.187,89.355,998.047,-20.85,-9.30,-30.75,17.87
1861,1.50,0.47,-10.02,-62.500,-34.180,958.496,-23.40,-8.70,-32.70,17.77
1871,2.50,1.92,2.95,142.578,-34.668,1127.930,-22.05,-8.10,-32.25,17.87
1895,2.53,0.93,-0.79,-13.672,0.488,1093.262,-24.00,-9.75,-34.50,17.97
1904,1.71,1.08,-2.94,246.582,-68.848,1000.977,-24.30,-9.75,-32.25,17.87
1914,-1.03,-2.93,2.11,75.195,37.109,892.090,-23.55,-10.05,-31.50,17.63
1924,0.45,-1.09,-1.13,62.500,23.437,1104.004,-22.20,-9.90,-30.15,17.53
1934,1.44,-1.01,-1.03,219.727,72.266,919.922,-21.30,-8.85,-28.80,17.77
1944,-0.49,1.75,-1.08,-62.500,65.918,1043.945,-21.30,-8.85,-28.80,17.97
1954,3.10,-2.00,-3.69,206.055,25.391,1121.094,-19.20,-9.15,-27.45,17.97
1964,2.46,-1.41,1.45,143.555,-64.453,961.914,-18.45,-9.45,-28.95,17.82
1975,1.85,-4.60,-2.05,187.012,17.090,1216.309,-18.45,-9.45,-28.95,18.01
1985,0.69,-1.47,-1.94,93.262,165.039,975.586,-21.30,-10.95,-31.50,17.53
1995,0.32,-3.28,-0.88,-23.926,184.570,1092.773,-22.65,-9.15,-33.15,17.82
2005,0.23,2.48,-2.38,88.867,93.750,975.098,-23.25,-7.65,-33.30,17.68
2014,0.89,-0.24,0.39,72.754,-15.137,1234.863,-22.80,-8.10,-33.30,17.77
2024,-0.77,-0.12,-2.78,160.645,-24.902,767.090,-22.80,-8.10,-33.30,17.87
2034,2.23,-0.34,-1.71,95.215,-36.133,1446.289,-26.40,-9.15,-32.40,17.77
2046,-1.27,-3.44,-1.37,199.707,6.836,758.301,-22.95,-9.90,-32.40,17.82
2056,-0.49,1.79,-1.44,109.863,102.539,1191.406,-21.60,-8.85,-29.55,17.63
2066,-3.95,-2.11,-4.81,210.937,22.949,739.746,-19.95,-8.70,-28.20,17.68
2076,0.25,-4.35,0.77,137.695,132.324,1476.563,-19.95,-8.70,-28.20,17.97
2085,0.83,-1.31,-2.73,83.496,-46.387,815.430,-18.75,-8.25,-29.40,18.01
2095,2.87,0.56,-3.14,62.500,125.000,1395.020,-19.20,-8.70,-29.40,17.82
2104,-1.08,-3.08,-1.80,112.305,29.785,775.391,-19.20,-8.70,-29.40,17.87
2116,-1.28,-0.82,-1.31,191.406,54.199,1399.902,-23.25,-8.85,-33.30,17.68
2126,-3.51,-0.26,-2.37,77.148,-11.719,770.508,-24.75,-7.35,-34.05,18.01
2136,-2.22,-2.95,-1.05,223.633,-133.789,1271.484,-24.60,-7.95,-33.90,17.82
2146,-0.37,3.26,-2.28,120.117,65.918,1051.270,-25.35,-9.45,-32.70,17.82
2156,1.34,1.98,-0.15,144.531,-32.227,910.156,-25.35,-9.45,-32.70,17.87
2166,-0.52,0.40,1.49,274.414,-88.379,1180.176,-21.90,-11.10,-28.65,17.87
2176,-1.11,0.88,0.03,24.902,58.105,915.039,-20.25,-9.90,-29.40,17.63
2188,1.15,-1.04,-0.53,290.039,-57.617,766.113,-18.15,-10.50,-29.10,17.82
2198,-1.60,0.30,-5.02,303.711,63.965,1052.734,-19.65,-8.10,-30.30,17.87
2208,-1.75,-2.29,-5.59,14.648,20.996,1041.016,-19.65,-8.10,-30.30,17.97
2218,2.53,-1.80,-5.71,220.703,-170.410,1022.461,-24.60,-7.50,-33.90,18.21
2228,1.08,0.97,-0.88,231.445,66.895,1000.488,-24.90,-9.45,-34.20,17.87
2238,2.21,-2.94,-0.56,81.543,34.668,971.680,-24.90,-9.45,-34.20,17.82
2248,0.85,-2.48,0.83,71.289,-16.113,1061.523,-23.70,-9.45,-32.40,17.82
2260,0.05,0.98,-2.08,300.293,25.391,876.465,-21.30,-9.30,-30.30,17.82
2270,-0.95,-3.17,-0.13,163.086,80.566,1382.813,-19.50,-10.35,-29.70,17.87
2280,-0.42,-0.79,-4.18,82.520,96.680,1216.797,-19.50,-8.25,-29.70,17.44
2290,-1.12,-1.24,-0.06,103.027,-23.926,937.988,-19.50,-8.25,-29.70,17.97
2300,-0.47,-0.14,-2.23,233.887,38.086,934.570,-23.40,-9.15,-33.45,18.16
2310,0.15,-0.55,-2.75,176.758,95.215,1111.816,-22.95,-7.50,-35.70,17.87
2320,-0.11,0.51,-3.50,68.359,-28.809,1132.324,-25.65,-8.70,-33.90,17.82
2332,-0.50,-2.43,-0.49,114.258,28.809,948.242,-23.40,-9.45,-31.95,17.87
2342,-4.27,-0.18,0.62,199.219,54.688,896.484,-23.40,-9.45,-31.95,17.97
2352,-3.84,-2.73,-3.54,139.160,94.238,994.141,-18.60,-8.55,-30.30,17.77
2362,-1.74,0.10,-0.56,160.645,30.273,1201.660,-18.15,-8.55,-28.80,17.77
2372,-1.31,1.31,-2.15,113.770,60.547,1061.035,-18.15,-8.55,-28.80,17.82
2382,-0.02,-1.19,-0.42,145.996,77.148,1074.707,-23.55,-8.55,-34.80,17.77
2392,0.79,3.37,-0.98,148.437,105.957,1056.641,-24.90,-9.15,-34.95,17.97
2409,0.09,5.19,-0.04,140.625,107.422,928.711,-20.70,-9.15,-30.15,17.97
2419,0.85,1.48,-0.05,312.012,-28.320,1026.855,-20.70,-9.15,-30.15,17.68
2429,0.14,0.98,-1.50,154.785,-0.977,1249.512,-17.85,-7.35,-29.85,17.97
2439,-1.50,-1.09,-2.26,61.523,-55.664,1217.773,-20.55,-7.35,-32.25,17.82
2449,1.36,1.27,2.78,166.504,100.586,1065.430,-22.95,-7.50,-34.20,17.97
2458,-1.33,-0.38,-0.76,218.750,-75.195,1148.438,-25.05,-8.55,-34.05,17.97
2470,-0.49,-0.41,-2.11,97.656,17.578,1117.188,-25.05,-8.55,-34.05,17.87
2480,-1.66,0.79,-5.18,189.941,1.465,778.320,-18.90,-9.75,-29.55,18.01
2490,-0.82,3.12,-1.13,197.266,72.754,922.852,-17.40,-9.30,-28.35,17.87
2500,1.05,-1.21,-0.29,184.082,-0.488,1082.031,-17.40,-9.30,-28.35,18.01
2510,0.60,-0.27,-5.50,180.176,8.301,1014.648,-23.25,-6.90,-33.75,17.77
2520,0.21,0.08,0.08,145.020,55.664,1056.152,-23.40,-7.50,-33.90,17.87
2529,-0.94,0.09,-2.53,172.363,-38.086,1041.016,-23.40,-7.95,-31.65,17.77
2541,-2.92,0.98,-2.44,342.285,18.066,819.824,-19.50,-9.90,-28.65,17.97
2551,0.55,0.72,-4.43,78.125,191.406,1033.691,-19.50,-9.90,-28.65,17.87
2561,-0.55,0.02,-5.37,245.117,64.941,926.270,-18.75,-9.45,-30.90,17.87
2571,1.98,1.97,-3.21,255.859,-5.371,1088.867,-23.55,-8.10,-34.50,18.06
2581,3.36,-0.57,-1.07,163.574,71.289,913.574,-24.30,-9.30,-34.05,17.77
2591,1.91,-0.76,-2.98,218.750,-148.437,1110.352,-21.90,-8.70,-30.90,18.01
2601,1.41,-1.56,-4.96,221.680,-79.102,1276.855,-18.75,-11.55,-28.95,18.06
2613,-0.82,-1.11,-5.62,325.195,-83.984,823.242,-17.55,-9.45,-28.20,18.01
2623,-1.24,-0.99,-0.02,195.801,-78.613,1160.156,-20.10,-8.55,-33.30,17.87
2633,-2.08,0.71,-2.64,40.039,-103.027,919.922,-20.10,-8.55,-33.30,17.82
2643,-1.23,-0.09,-3.21,295.898,-25.879,945.801,-23.70,-9.15,-33.45,17.77
2653,-1.04,-1.55,-6.09,174.805,-39.063,1081.543,-19.50,-11.55,-28.65,17.82
2663,0.88,-1.88,-3.78,149.902,-106.445,1215.820,-16.80,-8.25,-28.20,17.87
2673,-0.41,0.10,-0.27,306.641,-58.105,1051.270,-18.60,-7.65,-31.50,17.97
2685,2.37,-1.18,-4.41,205.566,-49.316,883.789,-18.60,-7.65,-31.50,17.77
2695,1.50,-0.51,-5.68,121.582,8.301,880.371,-23.40,-9.90,-33.15,17.87
2705,-0.79,-3.25,-2.15,316.406,-204.102,882.324,-19.35,-10.05,-30.30,18.01
2715,-2.23,-1.08,-3.72,44.922,71.289,1163.086,-16.50,-8.70,-28.20,17.87
2725,-5.23,-2.87,-4.53,181.641,45.410,1207.031,-17.85,-7.35,-30.75,17.82
2735,-3.32,-5.66,-2.56,185.059,161.133,1189.453,-22.35,-8.10,-33.30,17.82
2745,-0.95,-3.67,-7.89,151.855,91.797,1504.395,-22.95,-10.35,-32.70,17.77
2757,-1.04,-3.08,-5.06,151.367,10.742,878.418,-20.70,-11.10,-28.20,17.87
2767,2.75,-3.11,-5.15,82.520,11.230,979.004,-20.25,-8.25,-30.15,17.97
2777,5.05,-1.76,-8.75,347.168,-42.969,953.613,-21.45,-9.45,-32.70,18.06
2787,7.79,-4.47,-5.47,181.641,-155.273,1166.992,-22.65,-11.55,-30.90,18.16
2797,0.36,1.38,-5.27,285.156,-157.227,766.602,-17.25,-11.10,-26.70,17.87
2807,2.77,0.85,-3.60,70.313,-52.246,934.570,-17.25,-11.10,-26.70,17.87
2817,-2.79,-0.33,-5.80,376.953,-111.816,963.379,-22.80,-6.15,-32.55,17.87
2829,0.40,0.27,7.64,339.844,-166.504,698.242,-22.95,-10.35,-30.90,18.01
2839,-8.34,0.96,-5.44,336.426,-95.215,1200.684,-22.95,-10.35,-30.90,17.97
2849,-7.01,-0.03,-2.90,219.727,94.727,866.211,-17.40,-9.30,-25.80,17.87
2859,-3.10,-2.99,-4.76,247.070,2.441,1297.852,-20.85,-8.85,-30.75,18.06
2869,1.32,0.89,-4.24,128.906,-152.344,949.219,-23.40,-10.35,-31.20,18.01
2879,1.11,-2.47,-0.11,37.109,-234.375,1372.070,-22.05,-12.15,-28.35,18.21
2889,3.05,4.01,-7.66,90.820,-74.707,649.902,-22.05,-12.15,-28.35,18.06
2901,-0.92,-1.35,-16.58,25.879,-244.629,1329.590,-18.75,-10.35,-28.20,18.01
2911,-3.64,-0.21,-15.13,269.043,-42.480,843.750,-24.00,-10.05,-30.75,18.06
2925,-4.51,0.79,-15.77,283.691,82.031,1309.570,-22.80,-11.70,-29.10,17.97
2935,-1.24,0.36,-19.63,129.883,145.508,1293.457,-18.15,-11.25,-25.35,18.06
2945,0.42,2.17,-16.53,312.012,-51.758,1276.367,-18.15,-11.25,-25.35,17.87
2955,-2.87,-1.36,-15.18,219.238,-6.348,866.699,-24.75,-10.50,-31.50,17.97
2965,-1.82,-2.03,-12.33,306.152,-97.168,1031.738,-23.25,-11.70,-28.05,17.63
2975,3.18,-3.42,-15.69,164.062,5.371,1076.172,-23.25,-11.70,-28.05,17.68
2987,2.66,-1.00,-13.60,78.125,-407.227,1378.418,-25.80,-10.50,-32.55,17.82
2997,1.94,1.37,-15.79,65.430,-80.078,860.352,-22.65,-11.10,-29.40,17.68
3007,-0.69,-0.63,-13.12,443.359,-77.148,882.324,-18.60,-10.50,-27.30,17.97
3017,-0.16,0.96,-14.06,109.863,-14.160,1206.543,-18.60,-10.50,-27.30,18.06
3027,0.08,-3.95,-13.28,211.914,-43.457,1405.762,-24.60,-10.65,-33.15,18.21
3037,0.47,-1.25,-16.14,243.652,-138.184,952.637,-19.35,-11.70,-27.30,17.87
3049,-5.30,-2.89,-16.62,233.887,90.820,787.598,-18.90,-8.10,-28.05,18.21
3059,-1.59,-2.79,-15.66,175.781,-3.418,1700.684,-22.35,-9.30,-32.25,18.01
3069,-5.76,1.37,-17.80,52.734,206.055,528.320,-22.35,-9.30,-32.25,17.77
3079,-0.68,4.02,-18.92,464.355,-285.156,633.301,-18.75,-11.85,-27.90,17.77
3089,-0.39,2.31,-17.87,76.660,-18.066,1076.172,-18.75,-7.50,-30.45,17.87
3099,-2.90,1.77,-19.76,176.758,-358.887,1121.582,-18.75,-7.50,-30.45,18.16
3109,-3.12,1.27,-19.39,191.895,-33.203,757.324,-21.90,-11.10,-29.70,17.82
3121,3.24,3.36,-25.11,60.547,-166.016,505.371,-17.55,-9.45,-27.15,18.06
3131,1.99,0.01,-12.67,342.773,-203.613,1658.691,-22.05,-7.65,-31.80,18.06
3141,5.15,-2.80,-23.86,-14.648,31.250,1279.297,-24.15,-9.90,-32.40,17.82
3151,-1.88,0.92,-17.25,278.809,-69.336,1174.805,-24.15,-9.90,-32.40,17.82
3161,4.44,-3.69,-21.95,167.969,-132.812,841.797,-19.20,-7.95,-30.45,17.87
3171,2.40,-7.79,-21.73,438.965,-473.145,1237.305,-23.25,-8.85,-32.55,18.21
3181,1.83,-2.29,-22.17,-53.711,-161.133,1366.211,-19.95,-10.65,-28.95,17.97
3193,-0.87,-2.91,-26.01,-74.219,81.543,1151.855,-17.55,-6.30,-29.40,17.87
3203,-1.85,-2.34,-21.06,344.727,-27.344,1012.695,-17.55,-6.30,-29.40,18.06
3213,3.63,3.57,-22.14,56.641,24.414,848.145,-20.85,-9.30,-30.75,18.01
3222,0.73,5.26,-25.50,212.891,-179.687,771.973,-16.20,-7.35,-27.60,17.97
3232,-2.99,0.24,-21.71,498.535,-214.844,1371.094,-16.20,-7.35,-27.60,18.21
3242,-1.77,0.89,-26.24,65.918,-200.195,1225.098,-22.05,-9.30,-31.80,18.16
3252,-6.40,2.66,-26.55,-168.457,-395.020,1383.301,-16.80,-8.25,-27.90,17.97
3264,-1.82,-1.31,-23.54,178.223,-221.680,1950.195,-20.25,-6.75,-31.95,17.97
3274,-3.97,-4.18,-22.50,358.398,-527.344,775.391,-23.40,-8.70,-32.40,18.21
3284,-7.71,-5.32,-23.31,489.258,-368.164,554.199,-23.40,-8.70,-32.40,18.01
3294,-4.08,-7.50,-24.58,307.129,151.855,688.477,-21.00,-5.55,-31.65,18.21
3304,-0.78,-15.66,-22.92,362.793,-193.848,1240.723,-20.55,-8.55,-29.85,17.87
3314,0.70,-11.13,-24.33,121.582,-118.164,1076.172,-17.85,-5.70,-27.30,18.01
3324,2.40,-10.26,-24.27,100.586,-242.676,1000.977,-20.70,-5.85,-34.20,18.16
3336,2.53,-5.92,-24.21,344.238,-557.617,1330.078,-20.70,-5.85,-34.20,18.01
3346,1.43,1.87,-26.64,-153.320,10.742,956.055,-16.80,-5.85,-27.45,18.16
3356,0.27,-0.24,-25.46,-4.395,-290.039,1207.031,-21.30,-4.50,-31.80,18.06
3366,-4.76,4.80,-24.27,82.031,-70.313,1450.684,-21.30,-4.50,-31.80,18.06
3376,-4.29,4.18,-26.07,233.887,-170.410,1031.250,-15.90,-4.95,-27.30,18.06
3386,-4.18,6.81,-24.24,-8.301,-168.945,1364.746,-21.00,-4.35,-31.95,17.82
3398,-1.26,7.60,-23.26,385.254,39.063,885.742,-14.55,-4.35,-27.45,17.97
3408,-1.18,7.26,-24.46,304.687,-273.437,678.223,-14.55,-4.35,-27.45,17.82
3418,-2.09,3.63,-29.20,210.937,-197.754,957.031,-20.55,-8.10,-30.75,18.16
3428,-3.55,7.22,-29.92,375.000,-84.473,706.055,-16.50,-5.55,-28.95,17.97
3443,-2.05,-3.57,-29.68,312.500,-148.926,568.848,-20.55,-4.50,-33.30,17.97
3452,-2.00,-3.46,-28.28,143.555,-139.160,810.547,-18.75,-7.50,-29.70,17.68
3464,2.70,-5.80,-27.86,2.441,-185.059,954.102,-18.75,-7.50,-29.70,18.01
3474,3.78,-6.45,-25.82,116.699,-250.000,1266.113,-20.55,-4.95,-32.55,17.97
3484,-0.89,-5.34,-30.85,178.223,-58.105,958.984,-17.40,-7.65,-29.10,17.68
3494,3.99,-1.02,-24.43,75.195,-228.027,875.488,-17.40,-7.65,-29.10,17.97
3504,2.17,1.31,-27.14,173.340,-194.824,1307.617,-20.55,-6.15,-31.80,17.87
3514,-3.27,1.10,-29.15,222.656,-323.242,1082.031,-15.75,-7.05,-29.40,18.06
3524,-1.24,-0.16,-29.45,375.488,-8.789,1023.926,-19.95,-4.35,-31.65,18.06
3536,0.85,2.01,-27.85,77.637,-50.293,769.043,-18.90,-7.65,-30.75,18.06
3546,5.05,-2.19,-30.21,510.742,6.836,1068.848,-18.90,-7.65,-30.75,18.01
3556,0.42,-7.84,-30.11,192.383,-75.684,1658.203,-20.25,-4.65,-33.45,17.77
3566,-3.88,-2.77,-30.09,-164.551,82.031,1127.930,-18.60,-8.85,-30.75,17.77
3576,1.89,-4.27,-29.41,113.281,-273.437,962.402,-15.75,-4.35,-29.40,17.97
3586,-6.66,-4.78,-27.51,392.578,-113.281,97.656,-20.10,-5.70,-32.55,18.06
3596,-15.68,2.28,-22.40,-0.488,-60.059,437.500,-20.10,-5.70,-32.55,18.16
3608,-8.56,-7.93,-25.42,166.992,-83.984,1714.844,-18.45,-6.30,-31.20,18.16
3618,-2.75,0.60,-21.34,-58.594,75.195,1288.574,-18.45,-6.30,-31.20,17.97
3628,3.84,2.88,-24.53,27.832,-143.555,505.859,-19.20,-4.65,-33.15,18.16
3638,6.25,3.43,-27.09,269.531,-351.562,816.406,-14.55,-7.05,-28.95,17.68
3648,-4.51,2.02,-26.98,-213.867,-215.820,651.367,-16.80,-3.90,-31.20,17.87
3658,-0.87,7.30,-30.46,177.734,-287.598,1007.812,-17.25,-6.75,-31.65,18.16
3668,-3.55,6.07,-32.14,302.734,-65.430,671.387,-17.25,-6.75,-31.65,18.16
3680,-3.12,1.67,-28.08,406.738,-697.754,819.336,-17.10,-3.75,-32.55,17.97
3690,-8.68,1.31,-32.70,-231.445,-42.480,1314.941,-16.05,-7.50,-27.90,18.01
3700,-1.47,-3.12,-29.79,362.305,-432.617,1291.016,-15.30,-3.45,-29.40,17.97
3710,-3.95,-0.34,-39.03,-82.031,-338.379,850.098,-17.55,-5.55,-29.70,18.16
3720,2.25,-3.53,-28.13,416.992,-398.926,1955.566,-17.55,-5.55,-29.70,17.87
3730,1.04,-4.75,-34.12,389.648,-390.625,513.184,-18.45,-4.65,-31.20,17.87
3740,-3.41,4.21,-33.57,-64.453,-66.406,1999.939,-15.90,-5.70,-28.80,17.87
3752,2.33,1.54,-34.08,-73.242,11.230,1482.422,-15.90,-5.70,-28.80,18.01
3762,-1.21,-1.29,-31.45,268.066,-381.836,1092.773,-17.55,-4.65,-30.15,18.06
3772,5.47,-0.80,-35.14,184.082,-274.414,1284.668,-14.10,-4.65,-27.45,18.01
3782,4.76,-2.26,-30.05,246.094,-414.062,1229.004,-18.75,-3.45,-31.95,18.06
3792,4.84,4.47,-32.23,162.109,-30.762,1042.480,-13.95,-6.15,-26.85,18.01
3802,4.16,-1.88,-32.92,364.258,-690.430,892.578,-13.95,-6.15,-26.85,17.53
3814,-0.38,-5.16,-31.06,212.402,-533.203,739.258,-16.65,-6.45,-30.75,18.16
3824,6.86,1.54,-35.97,82.520,-240.723,1057.129,-14.70,-1.65,-29.85,17.82
3834,5.18,3.72,-29.90,413.574,-467.773,1445.313,-17.55,-5.10,-32.40,18.01
3844,11.81,3.25,-36.52,28.809,-136.719,1286.621,-13.80,-3.45,-28.95,17.82
3854,4.34,3.62,-32.32,382.324,-539.551,1015.625,-13.80,-3.45,-28.95,18.06
3864,-2.84,4.13,-29.03,166.992,-752.930,1459.473,-13.35,-5.55,-28.65,17.97
3874,-12.02,1.36,-33.98,-241.211,-462.402,444.336,-14.40,-0.45,-32.25,18.06
3886,-13.94,-5.63,-32.05,153.809,-17.578,405.762,-14.40,-0.45,-32.25,18.01
3896,-12.53,-8.56,-40.70,368.652,-114.258,663.086,-12.60,-2.25,-30.15,17.87
3906,-3.73,-9.44,-33.24,328.613,-14.648,1187.500,-15.75,-5.10,-30.45,17.82
3916,3.84,-5.60,-34.41,-493.164,-116.699,1397.461,-11.70,-4.50,-27.60,18.16
3926,-2.15,-6.40,-36.06,400.879,-424.805,517.090,-16.65,-2.85,-31.80,17.87
3936,7.02,-3.73,-37.65,48.828,-271.973,1564.453,-16.65,-2.85,-31.80,17.87
3946,2.73,2.50,-43.50,-494.141,-182.129,778.809,-15.15,-2.85,-30.75,18.06
3963,9.42,-4.74,-31.88,541.992,-513.184,1140.625,-15.30,-1.50,-31.20,18.16
3972,10.97,0.66,-37.22,-123.047,-846.680,931.152,-14.10,-4.65,-29.40,18.16
3982,-2.54,-4.32,-37.42,-260.742,-244.629,600.586,-13.20,-1.35,-31.05,17.97
3992,3.01,-4.11,-35.53,476.074,-638.672,1557.129,-14.70,-2.85,-30.30,17.97
4002,6.04,-2.00,-39.71,77.637,-253.906,530.273,-12.30,0.00,-29.70,17.97
4012,-4.53,2.00,-31.24,-287.598,-51.270,1352.539,-12.30,0.00,-29.70,18.16
4022,5.37,0.81,-36.69,388.184,-451.172,863.770,-12.30,-0.75,-29.70,18.16
4034,5.53,8.95,-37.31,-358.887,-336.914,1358.887,-15.45,-2.55,-33.00,18.21
4044,-11.15,7.95,-36.60,386.230,-477.051,829.102,-11.25,-4.05,-27.60,18.16
4054,0.19,0.43,-38.35,537.109,-338.379,1327.148,-13.95,-0.15,-31.80,17.87
4064,-2.56,-2.50,-36.30,-18.555,-33.691,1911.133,-13.95,-0.15,-31.80,17.82
4074,5.04,8.31,-39.52,-251.953,-798.340,545.410,-12.45,-0.90,-32.25,17.97
4084,-2.20,5.11,-37.47,247.070,-658.203,637.695,-10.95,-4.95,-27.30,18.06
4094,-4.52,-2.39,-39.31,571.289,-115.234,461.914,-13.95,0.45,-29.85,18.06
4106,1.65,-2.68,-38.61,375.977,-591.797,1197.754,-12.75,-4.50,-28.05,18.06
4116,-0.98,-1.98,-39.58,-7.324,29.785,1224.609,-11.70,-0.45,-29.85,18.06
4126,2.88,-3.27,-36.50,195.312,252.930,1427.246,-12.60,-3.90,-29.70,18.21
4136,0.33,-5.80,-38.41,-50.781,-100.586,452.148,-11.85,-0.30,-28.95,17.87
4146,6.15,-2.63,-32.33,576.172,-245.117,406.250,-11.85,-0.30,-28.95,17.77
4156,8.20,-6.15,-31.77,562.012,-442.871,1372.070,-11.25,0.45,-29.85,17.97
4166,2.03,-7.15,-33.24,9.277,-14.648,1695.801,-13.20,-3.30,-31.05,18.01
4178,-10.94,1.40,-36.75,154.297,-244.629,1132.324,-11.25,0.15,-29.10,18.01
4188,-13.35,-9.25,-38.41,-48.828,269.531,1754.395,-13.35,-2.25,-31.65,17.97
4198,-9.54,-1.01,-30.85,-37.598,178.223,1055.664,-13.35,-2.25,-31.65,18.06
4208,-0.11,3.60,-29.78,-1.465,18.066,934.570,-11.85,-1.95,-32.40,18.06
4218,2.71,3.27,-33.92,442.871,-34.180,680.176,-10.65,0.00,-29.70,17.97
4228,9.67,-1.46,-25.92,261.719,-196.777,686.523,-12.60,-0.30,-32.40,18.35
4238,8.21,-4.07,-34.78,275.391,-756.836,1472.168,-9.60,0.75,-30.15,18.16
4249,-12.76,-3.75,-34.27,-43.945,45.410,1880.371,-11.25,-2.10,-32.25,18.01
4259,-13.32,-4.56,-32.31,5.371,529.297,1392.090,-11.10,-0.30,-32.40,18.01
4269,-6.21,-3.75,-33.69,190.430,397.949,970.215,-11.10,-0.30,-32.40,18.30
4279,-1.12,-0.82,-35.04,37.598,366.699,785.156,-10.95,-0.30,-32.40,18.01
4289,4.36,-3.03,-29.80,-47.852,-145.020,867.676,-7.65,0.30,-29.40,17.82
4299,3.08,-1.96,-35.95,-263.672,83.496,719.238,-7.65,0.30,-29.40,18.06
4309,3.67,2.09,-34.03,35.156,-267.090,1089.355,-9.30,-37.50,-31.65,18.16
4321,9.20,3.01,-35.82,82.031,-479.004,1583.496,-9.30,0.90,-29.55,18.16
4331,-1.92,-3.31,-41.99,-286.133,-69.336,709.961,-9.00,0.45,-29.85,18.21
4341,-2.01,-2.75,-26.05,-169.922,-30.273,743.652,-10.65,-1.05,-32.40,18.01
4351,-3.82,0.03,-40.67,-249.512,106.934,562.012,-9.00,1.65,-30.75,18.06
4361,-1.24,-2.44,-35.13,-187.500,384.277,1132.813,-10.50,-2.55,-31.50,17.87
4371,6.15,1.83,-37.17,-178.711,147.949,1168.457,-8.25,0.15,-31.50,17.82
4380,10.95,1.27,-34.16,-386.719,-134.277,1999.939,-10.50,-1.35,-30.30,18.01
4392,7.22,2.49,-28.47,67.383,-114.258,390.625,-7.35,0.90,-32.25,17.97
4402,-1.80,-2.63,-31.79,22.949,-552.734,951.172,-7.35,0.90,-32.25,18.06
4412,-9.42,-0.08,-31.62,-332.520,-394.531,896.484,-8.40,1.95,-32.70,18.21
4422,-6.90,-5.21,-31.42,94.238,192.871,606.934,-8.25,-2.55,-30.30,17.97
4432,-0.93,-0.40,-27.81,261.719,-124.512,745.605,-8.25,0.45,-33.00,18.21
4442,-3.89,-2.69,-38.85,-10.254,-197.266,1093.750,-5.70,-1.05,-30.15,17.97
4452,3.18,-3.08,-36.59,434.082,-548.340,783.691,-5.70,-1.05,-30.15,18.16
4464,0.31,-4.75,-33.42,0.977,-170.410,766.602,-8.55,-0.15,-29.85,17.82
4478,1.57,9.99,-33.63,197.754,-116.211,320.312,-10.35,0.00,-31.95,18.16
4488,2.60,2.61,-32.78,-121.582,143.066,1036.621,-7.80,-1.35,-30.75,18.01
4498,-2.63,4.18,-36.45,-227.539,14.160,785.645,-9.15,1.05,-33.45,17.97
4508,-6.13,5.51,-32.53,-228.516,-147.949,1489.258,-7.65,1.50,-31.20,17.82
4518,-2.62,6.36,-29.89,239.746,-530.273,960.937,-8.70,0.30,-33.90,18.16
4528,-0.50,6.78,-28.00,94.727,-312.988,1483.887,-7.05,2.55,-31.80,18.01
4540,6.08,7.49,-35.08,287.109,-332.520,1260.742,-5.70,2.25,-33.90,18.16
4550,5.68,2.31,-39.47,367.187,-315.430,841.797,-5.25,-1.95,-33.45,18.16
4560,4.34,-0.44,-36.99,2.441,-181.641,1324.219,-5.85,0.90,-33.00,18.21
4570,2.77,-9.68,-30.94,193.848,-417.969,1999.939,-5.10,0.90,-33.30,17.82
4580,0.09,-4.82,-30.49,-360.352,-545.898,1206.543,-5.10,0.90,-33.30,18.01
4590,-0.61,-2.20,-36.61,47.852,-424.805,22.461,-4.20,0.75,-35.70,17.82
4600,8.38,-1.05,-37.11,-278.320,-690.430,1078.613,-5.25,2.70,-33.90,18.16
4612,2.65,-5.27,-37.57,31.738,-454.590,747.070,-5.25,2.70,-33.90,17.82
4622,1.09,-2.18,-41.49,-79.590,-353.516,1394.043,-4.95,1.95,-35.70,18.16
4632,12.15,0.08,-34.95,129.883,-293.457,843.750,-3.15,2.10,-35.25,18.16
4642,0.79,2.65,-34.77,-235.840,-293.457,1854.980,-4.95,1.50,-34.65,18.16
4652,-2.17,-1.42,-28.88,-67.383,-363.770,772.949,-4.50,3.45,-35.70,18.21
4662,1.17,-8.76,-33.34,-0.977,-688.477,1366.211,-4.50,3.45,-35.70,17.97
4672,-5.98,-4.27,-33.45,-319.824,-367.187,1552.246,-3.75,2.25,-34.95,17.87
4684,-8.98,-14.86,-33.56,-80.566,157.227,1999.939,-4.20,3.15,-36.90,18.21
4694,-0.86,-3.66,-37.30,-411.621,-62.500,1015.625,-3.00,2.70,-35.70,18.01
4704,3.17,-7.19,-30.93,48.340,-144.043,945.801,-2.25,2.25,-36.60,18.01
4714,6.18,-9.28,-35.83,-77.637,-457.520,712.891,-2.25,2.25,-36.60,18.30
4724,0.77,-8.37,-31.73,-249.023,100.098,1530.762,-1.80,2.25,-34.65,18.16
4734,7.67,-8.37,-34.13,-218.262,-287.598,1643.555,-0.45,2.10,-34.50,18.01
4744,4.90,-3.67,-32.73,-205.566,-244.141,648.926,-0.45,2.10,-34.50,17.97
4756,-5.77,-2.05,-91.47,120.117,-642.578,630.859,-0.75,1.95,-33.90,18.01
4766,-5.18,0.34,-20.15,75.684,-423.828,850.098,-1.20,2.85,-33.30,18.16
4776,-8.26,-1.12,-27.07,-82.031,-198.242,1187.012,-1.20,2.10,-33.30,17.87
4786,-2.98,-2.21,-34.95,-151.855,-367.676,1238.281,-0.90,1.65,-33.75,18.21
4796,-14.43,3.44,-24.77,-255.859,-287.598,494.629,-0.90,1.65,-33.75,18.01
4806,-10.82,11.53,-25.25,-163.086,-211.914,421.387,-1.20,2.10,-33.75,18.16
4818,-17.32,-15.81,-27.14,-138.184,-416.504,1421.875,-1.50,2.25,-33.45,18.01
4828,8.56,1.92,-30.27,40.527,-562.012,1010.254,-1.65,1.35,-33.00,18.01
4838,4.97,-0.52,-23.09,-109.863,-117.676,1098.145,-1.05,2.70,-32.40,18.06
4848,8.57,0.37,-36.85,-185.547,-307.617,1413.086,-1.05,2.70,-32.40,18.21
4858,12.74,2.37,-36.54,-194.824,-213.867,1422.363,-0.30,1.05,-33.15,17.77
4868,13.84,1.47,-34.73,-181.641,-351.074,1696.777,-2.40,1.65,-34.05,18.16
4878,2.14,-8.50,-37.81,-413.086,300.781,1583.984,-2.40,1.65,-34.05,17.97
4890,-1.68,3.60,-40.76,113.770,-1085.449,1134.766,-1.50,2.10,-33.30,17.97
4900,-20.29,2.45,-34.50,404.785,-546.387,619.629,-1.50,3.15,-33.15,18.21
4910,-21.64,-1.47,-39.21,101.563,-225.586,1438.965,-0.30,3.45,-33.15,18.16
4920,-11.15,-2.17,-32.76,-183.594,253.906,1258.301,-0.30,3.15,-33.45,17.82
4930,-6.05,1.95,-33.82,-224.121,-130.859,931.641,-0.30,3.15,-33.45,18.16
4940,2.33,-1.33,-36.94,-364.258,-267.578,1355.469,0.45,2.10,-32.55,17.82
4950,0.18,0.83,-35.40,-330.078,-139.648,1362.793,-0.15,0.90,-33.75,17.87
4962,-20.80,4.07,-82.62,-22.949,-441.406,1156.738,1.05,1.05,-33.90,17.82
4972,-16.46,3.70,-40.00,-191.406,-485.840,853.516,0.00,1.05,-32.40,18.01
4982,-24.71,5.41,-29.66,-18.555,-601.562,839.844,0.75,1.50,-33.90,17.87
4996,-25.55,-2.49,-35.45,33.691,-210.937,1063.477,1.20,1.65,-33.30,18.06
5006,-32.47,-6.18,-28.86,-273.926,442.383,1999.939,1.20,1.65,-33.30,17.97
5016,-16.47,-12.58,-30.88,-165.039,458.008,1631.836,1.65,0.90,-34.50,18.06
5026,17.32,-10.47,-25.42,-329.102,354.004,1585.938,2.10,1.65,-33.00,18.01
5038,39.05,-22.44,-31.94,97.168,-633.301,1640.137,2.25,1.95,-34.20,18.01
5048,18.16,-20.73,-43.44,-271.484,-181.152,1060.547,0.90,-0.90,-32.55,17.97
5058,10.42,-20.27,-19.56,-349.121,204.590,1029.297,0.90,-0.90,-32.55,18.01
5068,4.44,-19.52,-37.76,-130.859,-647.949,1085.449,1.50,1.05,-33.45,18.16
5078,-6.46,-16.44,-28.51,-5.371,11.230,507.324,1.50,2.25,-33.15,18.16
5088,-4.02,-24.06,-35.96,-441.895,266.113,1289.063,1.50,2.25,-33.15,17.77
5098,3.00,-19.99,-39.73,-141.602,-164.551,1269.531,2.10,1.65,-33.30,18.06
5110,5.92,-34.39,-28.82,80.566,-836.914,1999.939,-0.30,1.50,-33.15,17.87
5120,1.35,-28.65,-29.56,-313.477,475.586,1999.939,0.75,0.75,-32.70,17.97
5129,11.82,-32.64,-26.11,109.863,-381.836,1139.160,0.90,1.65,-31.80,18.16
5139,7.53,-19.28,-32.73,189.941,-329.590,927.734,0.90,1.65,-31.80,17.97
5148,1.15,-12.27,-28.37,-162.109,-905.273,1187.500,-0.45,2.55,-33.75,18.06
5158,-12.15,-16.81,-32.78,-248.047,-410.156,916.992,1.05,2.25,-33.90,18.01
5168,-16.60,-18.62,-33.51,229.492,-933.594,860.840,-0.15,1.35,-32.55,18.16
5180,-13.46,-7.40,-27.39,25.879,-425.293,440.918,-0.15,2.55,-33.75,18.16
5190,-17.35,-10.37,-36.77,-22.461,-259.277,841.309,-0.15,2.55,-33.75,17.87
5200,-21.66,-9.50,-35.32,257.812,-488.770,1106.934,0.90,1.35,-33.75,18.01
5210,-15.24,-11.43,-32.23,-34.180,-56.641,1007.324,0.30,0.30,-33.15,18.16
5220,-16.79,-10.02,-37.18,-562.012,-150.391,1589.844,0.30,0.30,-33.15,18.16
5230,-11.17,-8.24,-38.60,-621.582,287.598,905.762,0.15,2.55,-34.50,17.87
5242,7.47,-0.05,-40.38,97.656,-664.551,823.242,-0.15,0.90,-34.50,18.06
5252,6.44,14.53,-22.54,-234.863,-308.105,1999.939,1.80,0.75,-33.15,17.68
5262,6.77,20.66,-40.15,-284.180,-83.984,1375.488,1.80,0.75,-33.15,17.87
5271,2.19,23.11,-35.35,-89.355,-45.898,741.211,1.80,0.75,-33.15,18.16
5281,2.40,27.75,-31.05,185.547,-417.480,781.738,1.80,0.30,-33.45,18.01
5290,4.29,17.45,-28.58,61.523,-715.332,1485.840,1.80,0.30,-34.20,17.77
5300,-12.98,15.27,-34.31,109.863,-102.051,792.480,2.25,1.95,-34.95,18.16
5312,-11.95,7.00,-31.15,127.441,-134.277,1471.680,2.25,1.50,-34.20,17.87
5322,-1.98,3.69,-31.15,-17.578,-40.039,1032.227,3.60,1.35,-34.80,17.87
5332,2.30,-8.64,-48.22,66.406,70.313,1398.438,3.90,-0.45,-34.80,18.21
5341,19.65,1.69,-21.28,-5.859,139.648,1516.602,3.90,-0.45,-34.80,18.21
5351,20.09,6.95,-42.89,-111.328,-709.473,274.902,3.90,-0.45,-34.80,17.82
5361,2.29,-2.74,-28.90,31.738,-795.898,809.082,3.00,1.50,-34.95,17.82
5371,-4.27,2.23,-30.23,216.797,-478.516,538.574,3.00,1.50,-34.95,18.01
5380,-8.47,0.11,-28.49,-316.895,-133.301,1486.328,3.60,2.10,-34.05,18.21
5391,-12.79,0.96,-33.55,-428.223,-22.461,1298.828,3.15,2.55,-34.80,17.87
5401,-14.47,2.93,-35.59,-764.160,82.031,444.824,3.15,2.55,-34.80,18.06
5410,-7.23,4.02,-43.33,15.137,-178.711,721.191,3.15,-0.15,-34.50,18.06
5420,1.08,6.27,-28.11,12.695,-125.000,1366.211,3.90,2.10,-34.80,18.06
5429,7.34,3.02,-32.12,-82.031,-433.105,1065.918,3.90,2.10,-34.80,18.01
5439,1.21,12.15,-30.00,49.316,-306.152,962.402,3.90,1.35,-33.75,18.16
5448,-3.98,5.91,-33.59,-126.953,-163.574,979.492,5.25,1.50,-34.95,18.06
5460,3.69,5.59,-37.40,-407.715,-327.637,1263.672,4.50,2.25,-34.95,17.77
5470,-3.39,5.10,-31.90,-75.195,-456.543,653.809,5.55,1.35,-35.55,18.16
5480,1.31,3.43,-29.66,30.762,-493.652,834.961,5.55,1.35,-35.55,18.21
5490,0.67,1.07,-37.01,-16.113,-446.777,1233.398,4.80,1.65,-34.50,18.16
5504,4.92,0.55,-40.77,-69.824,-458.008,1057.129,5.85,0.15,-34.05,17.82
5514,-3.48,3.10,-38.12,-266.602,-281.738,1362.305,5.70,1.50,-34.95,18.21
5526,9.84,-2.99,-40.54,-148.926,-591.309,1555.176,5.70,1.50,-34.95,17.82
5536,2.89,0.84,-40.33,61.523,-741.211,748.535,5.70,1.50,-33.45,17.97
5546,-3.71,1.34,-39.43,-103.027,-576.660,683.105,4.80,1.65,-35.55,18.01
5556,6.21,0.02,-39.33,83.008,-741.211,991.211,4.80,1.65,-35.55,18.06
5566,-3.02,2.45,-42.44,32.227,-559.570,811.523,5.55,0.45,-34.05,17.97
5575,-3.01,1.11,-41.69,37.598,-144.043,940.430,7.65,1.50,-34.20,17.87
5585,-3.53,0.03,-31.26,-67.871,-2.441,1137.695,5.55,0.45,-34.50,18.16
5597,2.35,-1.00,-38.37,221.680,-639.160,1301.270,7.65,1.05,-33.90,17.82
5607,5.62,-0.40,-31.64,86.426,-194.336,1016.602,7.65,1.05,-33.90,18.06
5617,4.98,2.21,-37.69,-116.699,-244.141,910.156,7.80,1.35,-34.05,18.35
5626,-6.19,6.54,-35.56,55.664,-107.910,707.031,7.20,1.05,-34.20,18.21
5636,-4.40,-1.74,-32.39,121.582,-355.957,973.145,8.25,2.10,-33.00,18.21
5646,-5.79,-1.27,-37.38,45.410,-432.129,989.258,7.80,-1.35,-34.50,17.97
5656,-12.03,-2.11,-39.95,-26.367,-135.742,1397.949,7.95,0.75,-34.20,18.21
5668,0.83,-1.73,-42.18,17.578,-422.852,906.738,7.35,0.15,-34.80,18.01
5678,4.81,1.68,-39.42,205.566,-603.516,1051.758,8.55,1.35,-34.05,18.16
5688,6.44,-0.73,-33.69,-60.547,-527.344,1416.504,8.55,1.35,-34.05,18.06
5698,7.01,-0.47,-41.11,109.863,-510.254,1211.426,9.75,0.45,-33.30,18.35
5708,3.74,2.59,-41.12,-186.035,-128.906,1381.836,8.25,-0.90,-35.25,18.01
5718,5.10,3.56,-38.72,-213.379,-447.266,783.203,10.95,0.45,-33.00,18.01
5728,4.54,7.24,-42.66,0.000,-270.996,836.914,7.80,-0.90,-34.80,17.97
5737,-0.58,-0.60,-43.15,83.496,-483.398,1032.227,7.80,-0.90,-34.80,18.06
5749,-1.14,4.08,-37.12,211.426,-269.043,753.418,9.75,0.15,-35.55,18.30
5759,-3.60,2.69,-38.49,40.039,-236.328,1079.590,11.25,1.35,-32.55,18.30
5768,2.95,-2.98,-38.07,32.227,-115.723,1139.648,11.25,1.35,-32.55,18.01
5778,11.44,-3.31,-33.50,-14.648,-404.785,1144.531,10.05,-0.45,-33.00,18.01
5788,13.69,-3.91,-36.70,-80.078,-466.309,1170.410,9.30,-1.65,-35.25,17.97
5798,5.63,0.06,-40.82,104.004,-881.348,442.383,11.10,0.30,-34.20,18.06
5810,-6.42,-5.68,-40.13,-286.621,-333.496,867.676,9.75,0.15,-35.55,17.82
5820,-10.41,-6.32,-44.95,-176.270,-440.430,1066.895,9.75,0.15,-35.55,18.16
5830,-3.72,-4.62,-42.66,-300.293,-530.762,1063.965,10.05,-1.65,-34.50,17.97
5840,-4.02,-9.32,-43.56,-131.348,-113.770,1433.594,11.70,0.90,-33.75,18.16
5850,6.92,-1.17,-44.93,13.672,-261.719,1457.520,11.25,-0.45,-34.05,18.16
5860,-3.58,-0.78,-40.52,-258.301,-217.773,172.363,13.05,0.00,-34.65,17.97
5870,-2.15,-2.06,-41.12,527.832,-1161.621,1295.410,13.05,0.00,-34.65,17.87
5882,-2.53,-6.28,-36.49,54.199,-122.070,1097.168,12.30,-0.75,-33.90,17.82
5892,-0.06,-8.17,-43.11,-168.457,-325.195,1476.563,12.30,-1.50,-35.40,17.87
5902,1.98,-7.14,-36.73,41.504,-569.824,652.832,12.30,-1.50,-35.40,18.21
5912,-3.50,-0.66,-42.84,165.527,-650.879,1098.145,10.65,-1.50,-34.20,18.21
5922,0.66,-6.73,-40.57,174.316,-211.914,1618.652,11.25,0.15,-34.80,17.82
5932,1.23,-5.67,-37.37,-18.066,-649.902,1324.707,11.25,-2.85,-34.05,18.06
5942,-6.04,-6.22,-43.70,-337.402,-153.320,504.883,12.30,0.00,-34.20,17.87
5956,-0.61,-3.40,-43.05,-114.746,-580.566,902.344,12.75,-0.15,-34.50,18.21
5965,-4.95,3.66,-41.57,101.563,-541.992,624.512,11.70,-2.10,-34.05,18.01
5975,-5.46,-4.18,-42.97,24.414,-583.008,1486.328,11.70,-2.10,-34.05,18.16
5985,3.20,2.18,-40.34,-27.344,-455.566,842.773,12.00,-2.85,-33.00,17.82
5995,5.52,0.40,-40.76,-25.391,-683.105,1017.090,13.50,-0.15,-36.00,18.16
6005,-2.59,-1.81,-46.69,269.531,-625.977,971.680,11.40,-4.65,-34.95,18.16
6028,5.92,0.95,-36.89,22.461,-911.621,1367.676,13.50,-0.45,-36.30,18.30
6038,4.60,4.46,-33.79,40.039,-780.273,742.187,15.15,-0.90,-35.25,18.06
6048,2.05,4.89,-40.60,92.773,-699.707,864.746,13.50,-2.85,-34.80,18.16
6057,-0.14,-4.01,-42.75,-38.574,-615.723,1334.473,15.15,-1.35,-36.00,18.06
6067,2.37,-0.58,-45.18,19.531,-528.320,1020.996,14.10,-3.45,-34.65,17.87
6077,-1.56,0.71,-43.88,175.781,-459.961,1520.508,14.10,-3.45,-34.65,18.06
6087,-11.38,-6.37,-44.56,-209.473,-142.090,806.152,14.40,-4.50,-35.25,18.21
6099,7.69,-1.22,-36.67,-79.590,-134.277,1041.016,15.45,-1.65,-36.00,18.01
6109,12.72,1.23,-44.54,296.387,-752.441,1134.766,15.45,-1.65,-36.00,18.01
6119,6.53,7.85,-44.43,-1.465,-449.707,854.980,13.80,-2.70,-34.95,18.06
6129,-10.61,-0.03,-43.53,71.289,-486.328,925.293,15.75,-3.45,-33.45,17.82
6139,-4.12,1.21,-45.82,-294.434,-413.574,802.734,13.80,-2.25,-34.95,18.06
6149,-0.36,0.76,-37.75,48.340,-203.613,1211.914,14.70,-4.05,-34.80,17.97
6159,-0.11,3.27,-48.34,-190.430,-115.723,1024.902,14.70,-4.05,-34.80,18.21
6171,-6.03,1.05,-44.18,-15.137,-36.621,370.117,15.75,-3.90,-34.65,18.06
6181,-6.92,-3.97,-43.68,-70.801,-633.301,1046.875,15.75,-3.90,-36.60,18.01
6191,-3.95,-3.98,-46.14,-391.113,-291.016,591.797,16.05,-3.45,-34.95,18.16
6201,-4.23,-8.73,-51.98,-96.191,-293.945,995.117,15.90,-3.75,-36.30,18.16
6211,1.11,-2.11,-37.90,55.176,-200.195,687.988,15.90,-3.75,-36.30,18.21
6221,1.11,1.37,-46.30,-4.883,-141.602,1123.535,14.55,-4.35,-36.15,17.77
6231,2.79,-3.41,-44.92,-131.348,-530.273,522.949,16.50,-2.70,-34.20,17.82
6243,4.21,1.19,-37.24,267.090,-711.914,1136.230,16.50,-2.70,-34.20,17.82
6253,0.59,3.80,-41.89,243.164,-533.691,991.699,17.10,-3.90,-37.35,17.68
6263,-4.96,-0.13,-38.36,281.738,-285.645,1541.992,17.10,-6.45,-35.55,18.06
6273,3.66,7.43,-45.44,-107.910,-417.969,956.055,17.85,-3.75,-35.25,18.06
6283,0.68,4.96,-48.17,-86.426,-427.246,639.160,17.25,-5.85,-34.95,18.21
6293,7.43,4.82,-42.65,206.543,-867.187,645.020,17.25,-5.85,-34.95,18.06
6302,-1.67,1.92,-39.29,-175.293,-291.992,1122.070,17.25,-6.75,-34.65,17.97
6314,6.90,3.27,-49.85,237.793,-531.738,1349.121,19.50,-6.30,-34.95,17.82
6324,3.59,4.81,-44.14,-239.258,-286.621,810.059,16.65,-4.95,-36.30,18.06
6334,4.04,6.39,-41.90,240.234,-1013.184,1131.348,18.45,-6.30,-34.65,18.01
6344,6.06,4.08,-41.46,194.336,-879.395,812.988,17.10,-5.25,-37.05,18.06
6353,-4.34,6.82,-46.05,-272.949,122.559,1663.086,17.10,-5.25,-37.05,18.01
6363,1.35,7.52,-42.38,78.613,-270.508,733.398,18.60,-4.95,-34.50,17.77
6372,2.16,5.40,-45.08,-11.230,-166.992,1030.762,18.60,-4.95,-34.50,18.30
6384,5.69,2.25,-44.91,-29.785,-472.656,862.305,18.60,-7.65,-36.75,18.06
6394,0.76,3.49,-44.50,-182.617,-537.109,1869.629,20.25,-4.65,-35.40,18.06
6404,-0.30,-2.15,-39.31,390.137,-538.574,762.207,18.00,-7.50,-36.90,18.21
6414,-0.29,-0.44,-41.27,-21.973,-0.488,1355.957,18.00,-7.50,-36.90,18.30
6424,-0.98,-11.95,-50.02,220.215,-264.648,1262.207,19.50,-8.70,-36.15,18.21
6434,-3.78,-1.47,-39.80,9.277,-365.723,1194.336,18.90,-4.95,-37.05,17.82
6444,-1.63,-6.79,-41.48,562.012,-497.070,824.707,18.90,-4.95,-37.05,18.16
6456,-4.68,-5.99,-42.41,131.348,-406.738,910.156,20.10,-5.25,-37.05,17.82
6466,1.94,-6.02,-47.63,212.402,-357.910,1157.715,20.70,-6.75,-33.90,18.21
6476,-1.14,-9.37,-47.07,-39.551,-218.262,890.625,18.90,-7.35,-36.00,17.87
6486,-5.62,-1.14,-42.50,56.641,-229.004,790.039,20.55,-7.65,-35.25,18.01
6496,-1.49,-2.47,-36.72,30.273,-458.496,860.840,20.55,-7.65,-35.25,18.21
6506,-3.27,-1.07,-48.41,175.293,-638.184,960.937,20.85,-7.35,-35.55,18.01
6516,-2.13,3.41,-35.38,-382.812,-219.727,916.504,18.90,-9.75,-37.05,17.87
6528,-1.37,-1.05,-45.10,29.297,-163.574,1161.621,20.85,-6.90,-36.00,18.01
6544,-0.94,-3.66,-38.23,-12.695,-564.453,1322.266,19.35,-9.75,-36.30,18.06
6553,-1.04,-5.56,-41.19,-59.570,-403.320,1150.879,19.35,-9.75,-36.30,18.06
6563,-1.21,-2.09,-37.82,4.395,-388.184,799.805,20.55,-10.05,-34.80,18.30
6573,2.18,-2.00,-42.58,89.355,-284.180,937.988,20.55,-8.10,-37.05,18.16
6583,3.76,-1.81,-40.62,-83.496,104.492,1185.547,20.55,-8.10,-37.05,18.21
6593,9.53,-0.79,-42.72,-89.844,-373.047,1500.000,19.65,-9.30,-37.05,17.87
6605,14.83,1.56,-38.58,-28.809,-773.926,1161.621,20.25,-10.35,-37.35,18.06
6615,8.92,-2.37,-45.37,34.180,-679.687,871.094,21.90,-8.25,-35.70,17.82
6625,10.88,-0.47,-40.03,-195.312,-615.234,842.285,21.90,-8.25,-35.70,18.01
6635,3.09,-0.55,-40.30,-130.371,-517.090,870.605,21.00,-8.25,-36.60,18.30
6645,-4.84,1.15,-37.21,15.137,-447.754,1022.461,20.25,-10.35,-34.95,18.06
6655,-4.89,2.31,-37.56,-68.848,-561.523,1017.090,20.70,-9.90,-38.85,18.06
6667,-3.44,1.35,-35.25,62.988,-316.406,1097.656,22.65,-10.65,-35.70,18.01
6677,-2.74,5.49,-40.63,463.867,-185.547,1123.535,21.45,-10.65,-38.85,18.16
6687,0.98,2.42,-44.47,343.750,-177.734,1184.082,22.35,-8.85,-36.00,18.16
6696,5.15,4.46,-40.49,293.945,-873.535,1094.727,20.55,-11.25,-37.80,18.21
6706,-1.85,7.20,-39.50,-25.879,-505.371,1288.574,20.55,-11.25,-37.80,18.30
6716,-3.82,0.50,-37.86,352.051,-699.219,1037.109,22.20,-13.05,-36.90,18.21
6726,2.31,-1.32,-37.90,-169.922,-505.859,1812.988,21.30,-9.75,-37.50,18.06
6738,-1.34,2.64,-41.29,269.043,-540.039,793.945,24.00,-11.70,-36.30,18.30
6748,-6.91,1.37,-41.03,-401.367,13.672,1214.844,21.45,-11.85,-38.40,18.06
6758,2.82,5.56,-44.86,153.809,-781.738,796.387,21.45,-11.85,-38.40,17.82
6767,-3.13,9.67,-34.25,196.289,-391.602,680.176,22.65,-11.85,-38.40,18.35
6777,-7.60,6.11,-39.32,-29.785,-524.414,1371.582,23.40,-10.35,-36.60,18.16
6787,-5.64,4.96,-34.04,-297.363,-244.141,1440.918,23.40,-10.35,-36.60,18.16
6797,-3.95,7.96,-43.76,-139.648,-238.770,1012.695,22.95,-11.10,-38.40,17.97
6809,6.09,15.99,-44.89,288.574,-269.043,536.133,22.35,-13.20,-37.05,18.16
6819,7.76,7.37,-30.34,33.203,-212.402,1513.184,22.80,-11.70,-37.80,18.06
6829,1.94,8.31,-39.03,146.973,-590.332,1105.957,22.95,-12.75,-36.60,18.16
6839,-5.63,6.05,-38.10,61.035,-1103.027,173.340,22.95,-12.75,-36.60,18.16
6849,-9.31,-1.03,-39.94,66.895,-726.074,668.945,23.70,-12.30,-38.40,18.16
6859,-7.42,-4.67,-37.62,104.980,-458.008,1093.750,23.70,-16.20,-36.90,18.16
6869,-9.21,-3.41,-43.82,-287.598,-70.313,1291.016,23.55,-12.15,-39.00,18.21
6881,2.00,-0.92,-49.02,-147.949,-390.625,1093.750,22.65,-13.50,-37.35,18.16
6891,3.88,-11.34,-43.02,740.234,-875.000,291.016,22.65,-13.50,-37.35,18.16
6901,8.83,0.78,-45.95,-188.477,-915.039,877.930,22.95,-13.50,-38.85,18.06
6911,-2.23,-11.34,-40.93,-147.461,-167.480,1999.939,23.40,-15.00,-36.90,17.82
6921,-0.27,-0.60,-44.09,-286.133,-794.434,392.578,23.40,-15.00,-36.90,17.97
6931,7.95,-0.73,-42.44,-162.109,-502.930,403.320,23.55,-14.10,-37.80,18.01
6941,3.35,4.76,-42.63,-229.492,-349.121,602.539,22.35,-16.80,-37.80,18.21
6953,-2.19,8.04,-41.93,-246.094,-937.988,1062.012,24.00,-12.90,-39.30,18.06
6963,-9.56,6.28,-38.96,36.133,-819.824,746.094,24.90,-16.65,-36.90,18.01
6973,-5.30,7.19,-36.24,-161.133,-727.051,1307.617,24.90,-16.65,-36.90,18.35
6983,-4.70,5.50,-36.20,323.730,-502.930,756.836,24.30,-16.05,-37.05,18.16
6993,-2.87,-0.62,-39.27,-209.961,-93.750,1870.117,22.35,-17.70,-38.55,18.06
7003,1.22,-1.69,-42.91,-220.215,-314.453,772.461,22.20,-13.50,-38.10,18.01
7015,11.82,1.21,-32.19,12.207,-605.957,1672.363,22.65,-14.25,-39.90,17.82
7025,-0.79,-3.73,-40.98,37.598,-811.523,1559.082,22.65,-14.25,-39.90,17.82
7035,-5.73,-7.05,-43.63,436.035,-586.914,125.000,22.95,-17.10,-38.40,18.21
7045,-2.19,-1.14,-35.02,-101.563,-562.012,997.559,22.95,-17.10,-38.40,18.21
7060,-2.30,-11.78,-43.26,-111.328,-308.594,1603.027,24.30,-18.90,-39.30,18.01
7069,1.02,-5.13,-46.30,-192.383,-114.258,1528.320,23.55,-15.60,-40.05,17.77
7079,12.87,-1.60,-43.24,-192.383,-473.145,1810.547,24.30,-16.80,-38.25,18.30
7089,15.05,2.16,-39.97,366.699,-429.687,444.824,24.75,-19.65,-38.55,18.30
7100,8.05,0.53,-37.15,-609.863,-301.758,1875.977,24.75,-19.65,-38.55,18.06
7110,2.99,-0.56,-39.37,124.512,-608.398,958.008,24.30,-18.90,-37.50,18.16
7120,4.73,6.51,-27.76,311.523,-778.809,271.973,22.65,-17.85,-39.60,18.16
7130,-3.23,5.31,-32.36,106.934,-340.820,915.039,22.65,-17.85,-39.60,18.06
7140,-0.51,7.74,-31.03,210.937,-234.375,1001.465,24.75,-18.45,-39.00,17.82
7150,-3.41,2.65,-37.06,129.883,-365.234,920.410,24.00,-17.70,-40.05,18.21
7160,6.94,3.51,-38.24,292.480,-732.422,730.957,25.50,-21.30,-39.00,18.21
7171,-2.66,0.13,-41.72,53.223,-27.344,973.633,24.60,-19.50,-38.85,18.16
7181,10.03,-2.32,-34.89,258.301,-674.316,101.563,24.60,-19.50,-38.85,18.16
7191,2.81,-1.58,-11.08,-93.262,-155.762,1490.234,24.75,-20.85,-39.75,18.16
7201,2.01,3.35,-42.02,99.121,-497.559,1090.820,23.25,-19.20,-38.55,18.21
7210,-6.53,-6.65,-35.04,-138.184,-218.262,1749.023,24.30,-20.85,-37.50,18.21
7220,-0.77,-8.43,-21.95,363.770,-516.602,599.609,22.80,-19.20,-40.05,18.21
7232,2.76,-9.34,-39.68,94.238,-563.965,735.840,22.80,-19.20,-40.05,18.06
7242,10.56,-3.16,-33.97,324.219,-791.992,1608.887,23.40,-21.45,-39.60,18.06
7252,-1.23,-2.27,-41.77,-170.898,-487.793,1167.969,24.00,-18.90,-40.50,18.21
7262,4.23,4.68,-44.44,34.180,-634.766,563.477,24.00,-18.90,-40.50,18.21
7272,-3.65,-0.61,-40.33,-76.660,-359.375,608.398,24.30,-22.80,-39.75,18.35
7282,2.47,7.55,-36.30,-237.305,-630.371,1003.906,23.55,-18.45,-39.30,17.82
7292,-8.82,5.98,-26.60,-22.461,-296.875,1628.418,23.40,-21.45,-37.65,18.16
7304,-11.37,9.77,-43.84,-592.285,235.352,855.469,22.80,-22.05,-39.00,17.97
7314,1.85,2.97,-33.51,504.883,-629.883,8.789,22.80,-22.05,-39.00,18.16
7324,-0.89,10.45,-33.03,440.430,-580.566,281.738,26.25,-22.50,-39.00,18.30
7334,-1.10,-0.29,-35.20,-291.992,-445.312,1713.379,23.25,-20.10,-39.75,18.16
7344,-7.86,1.05,-37.27,382.324,-197.754,26.367,24.00,-20.85,-39.75,17.97
7354,-2.10,8.05,-39.57,-10.254,-49.805,947.266,23.40,-23.40,-39.90,17.87
7364,-3.70,-10.45,-32.90,-7.812,-705.566,1999.939,23.40,-23.40,-39.90,18.01
7376,-11.92,-4.17,-45.21,-513.184,-444.824,1442.383,23.55,-23.70,-39.30,17.77
7386,0.99,-4.15,-30.18,576.660,-969.238,-63.477,23.55,-23.70,-39.30,17.77
7396,-3.76,6.24,-40.03,-219.727,62.988,608.398,24.15,-23.40,-38.40,18.06
7406,12.25,-11.02,-35.50,835.937,-593.750,569.336,23.55,-23.70,-39.75,18.35
7416,10.54,10.22,-33.24,-336.426,-1198.730,291.504,23.55,-23.70,-39.75,17.97
7426,-9.27,-5.56,-35.40,560.059,-278.320,1999.939,23.40,-24.60,-38.85,18.06
7436,-2.50,11.63,-40.92,302.734,-771.973,665.039,23.40,-24.60,-38.85,18.01
7448,-7.93,6.42,-46.89,287.109,-398.926,843.262,23.40,-22.65,-39.60,18.30
7458,-21.05,-2.88,-31.82,-1093.750,149.414,732.910,24.60,-24.30,-38.85,18.01
7468,-7.25,-0.90,-43.60,574.219,-664.062,-253.906,24.60,-24.30,-38.85,17.87
7478,-11.44,0.06,-34.35,-498.047,288.574,232.910,23.70,-21.90,-40.35,18.21
7488,-3.83,2.92,-37.99,378.418,-854.980,-344.238,24.60,-25.50,-39.60,18.06
7498,-12.90,-3.95,-32.06,-305.664,-181.152,1311.523,22.35,-24.90,-40.50,18.16
7510,-15.05,2.28,-45.22,5.371,175.781,1163.086,24.00,-23.70,-39.30,18.16
7520,0.61,-0.11,-39.83,297.363,-547.363,-1021.973,24.00,-23.70,-39.30,18.30
7530,-18.13,-6.63,-40.33,-451.172,-253.418,333.984,22.95,-25.05,-40.65,18.35
7540,-4.15,-6.69,-46.18,69.336,-270.020,-209.473,23.40,-24.30,-41.10,18.01
7550,-6.78,-9.13,-37.38,16.113,-536.133,1736.328,22.20,-27.45,-40.35,17.97
7560,-3.40,-1.82,-58.81,95.215,-989.746,104.980,23.55,-26.40,-40.05,18.21
7577,-11.24,-4.11,-45.30,22.461,-395.996,-62.500,23.55,-26.40,-40.05,18.06
7586,-15.82,-3.05,-44.11,-955.078,447.266,114.746,22.80,-24.90,-39.15,17.97
7596,5.57,-5.56,-27.99,622.559,-671.387,-238.281,22.80,-24.90,-40.80,18.06
7606,1.21,-1.69,-42.80,-719.238,-20.020,845.703,22.80,-24.90,-40.80,18.30
7616,4.01,-4.99,-38.39,563.477,-1086.914,-595.703,23.25,-26.40,-40.80,17.82
7626,-5.38,14.19,-33.34,-102.051,-764.648,507.812,23.25,-26.40,-40.80,18.16
7636,-5.08,-5.89,-39.21,749.023,214.844,1882.813,23.25,-24.90,-40.80,18.16
7648,10.28,-6.00,-33.53,738.770,-768.555,843.750,21.90,-26.55,-38.40,18.16
7658,2.95,9.56,-38.04,-559.082,-731.934,1458.984,22.20,-25.80,-40.65,18.16
7668,-4.90,-6.02,-30.88,46.875,-628.906,1999.939,22.65,-28.65,-39.60,18.21
7678,-2.95,0.03,-42.20,-235.352,-399.414,789.062,21.90,-26.25,-41.40,18.16
7688,0.96,2.98,-19.68,-55.176,-659.668,1999.939,22.95,-27.75,-40.65,18.16
7698,-6.31,1.79,-42.10,-254.883,-674.316,555.176,22.95,-27.75,-40.65,18.06
7708,3.89,-0.95,-43.45,-501.465,-443.848,1752.441,23.40,-27.45,-40.35,18.16
7720,-7.90,4.96,-47.73,41.016,-900.391,1999.939,22.80,-26.85,-39.75,17.97
7730,7.89,2.59,-44.12,446.289,-744.629,-104.492,22.80,-26.85,-39.75,18.30
7740,-1.88,12.45,-48.15,124.512,-600.586,-93.750,22.65,-26.55,-40.35,18.16
7750,0.95,3.55,-39.39,494.141,-737.793,-765.137,22.65,-27.45,-40.35,18.21
7760,-8.59,3.95,-42.90,-56.641,-335.449,687.988,21.60,-30.00,-40.05,18.06
7770,-0.35,-7.44,-38.11,582.520,-934.082,-826.172,21.60,-28.05,-41.25,18.01
7780,5.40,8.47,-45.63,-406.738,-802.246,100.098,21.60,-28.05,-41.25,18.16
7792,1.28,-10.37,-29.14,224.121,-97.656,54.688,21.90,-31.05,-39.90,17.97
7802,2.56,-4.95,-41.07,-224.609,-119.629,-50.781,21.90,-28.65,-39.60,17.77
7812,3.20,-9.02,-41.70,268.555,-509.766,1146.484,20.70,-28.20,-40.35,18.16
7822,3.78,-0.21,-48.71,-219.727,-354.980,736.816,21.30,-29.25,-39.75,18.16
7832,-6.42,-3.85,-30.41,464.355,-1276.367,1636.719,21.30,-28.35,-40.05,18.06
7842,-6.36,5.01,-45.05,-712.891,-107.910,1513.672,21.90,-28.20,-40.65,18.16
7854,-6.78,9.82,-34.86,-317.871,-341.309,1471.191,21.60,-28.80,-39.75,18.06
7864,-0.68,-5.31,-26.05,876.465,-1164.551,835.449,21.60,-28.80,-39.75,18.30
7874,-2.94,8.35,-48.85,-897.461,-348.633,1999.939,20.10,-28.05,-40.50,18.16
7884,0.76,4.63,-27.11,896.973,-745.605,723.145,21.45,-30.15,-39.90,17.82
7894,-1.92,5.29,-40.51,-787.109,-552.246,1366.699,22.20,-29.40,-40.65,18.01
7904,-3.93,2.03,-32.82,1019.043,-514.160,644.531,20.70,-28.95,-41.40,18.21
7914,-2.99,4.12,-40.67,-515.137,-272.461,816.895,20.70,-28.95,-41.40,18.35
7926,6.50,6.03,-36.28,48.828,-380.859,585.449,19.65,-30.45,-41.55,18.16
7936,7.85,0.14,-33.69,666.992,-1171.387,-100.098,20.70,-28.20,-40.65,18.16
7946,-1.98,8.82,-45.18,-589.844,-333.984,915.527,21.30,-30.45,-41.55,18.06
7956,8.85,-11.82,-43.60,775.391,-460.449,-232.422,21.30,-31.20,-41.25,18.06
7966,13.18,3.79,-47.27,63.477,-855.469,216.309,21.30,-29.55,-41.55,17.97
7976,10.56,-5.75,-48.84,213.379,-753.418,-27.832,22.65,-31.05,-41.10,18.01
7986,11.13,8.78,-30.02,-8.789,-1116.211,1125.000,20.70,-31.35,-41.40,18.16
7998,-17.47,-5.49,-42.93,-312.012,-43.945,5.859,20.85,-31.65,-40.80,18.16
8008,-0.37,-0.09,-44.95,92.285,-401.367,-728.027,20.55,-30.75,-39.75,18.06
8018,-10.72,-11.28,-40.96,441.406,-1217.773,1999.939,18.60,-30.00,-41.25,18.35
8028,2.71,-7.03,-65.94,-380.371,-201.660,399.902,18.75,-31.80,-39.60,18.16
8038,-0.37,-6.40,-31.14,87.402,-439.453,1859.375,18.75,-31.80,-39.60,17.87
8048,-0.47,9.10,-49.14,-1003.906,-603.027,1379.883,18.90,-31.20,-41.25,17.82
8058,15.19,-15.34,-34.06,145.508,-682.129,1999.939,19.50,-32.25,-39.60,18.06
8070,16.56,-8.05,-48.89,593.750,-1525.391,396.484,18.15,-33.15,-41.55,18.16
8080,-10.69,3.08,-40.99,-510.254,-602.051,1209.473,19.50,-31.80,-41.40,18.21
8095,10.86,-5.89,-41.67,166.016,-791.016,1628.418,18.90,-31.20,-40.50,18.16
8104,13.80,8.12,-44.18,-67.871,-770.020,1523.438,20.10,-31.20,-40.80,18.16
8114,9.20,-2.47,-36.19,-165.039,-1083.496,2.441,18.60,-31.95,-42.00,17.87
8124,0.42,0.56,-41.56,-633.789,-331.055,852.051,18.60,-31.95,-42.00,18.06
8136,2.31,5.43,-46.21,-184.082,-261.719,1592.773,19.20,-30.60,-41.85,18.01
8146,2.58,0.91,-44.17,69.824,-883.789,329.590,19.95,-32.55,-41.40,17.97
8156,-1.44,2.36,-38.01,170.410,-405.762,834.961,18.90,-32.40,-41.55,18.06
8166,-6.32,-1.98,-40.60,-236.328,-441.406,286.621,17.55,-31.80,-42.60,18.21
8176,0.03,0.14,-41.65,-153.809,-515.625,748.047,17.55,-31.80,-42.60,18.16
8186,1.35,-4.26,-44.27,69.824,-622.559,1410.156,18.15,-31.95,-42.00,18.21
8196,0.72,-5.95,-37.65,-108.887,-646.484,1668.457,17.85,-32.85,-42.45,17.97
8208,-6.06,-6.32,-37.18,-74.707,-123.535,607.422,18.00,-33.45,-41.85,17.97
8218,3.74,-8.15,-36.63,-137.207,-523.437,1247.559,17.55,-33.45,-42.15,17.68
8228,5.05,-8.73,-37.42,-368.164,-461.914,1446.777,18.75,-32.55,-41.10,18.06
8238,2.71,2.01,-36.46,-275.391,-627.441,1262.695,18.45,-33.75,-41.85,18.16
8248,3.01,-1.11,-49.39,40.039,-686.523,813.477,18.45,-33.75,-41.85,18.16
8258,-1.44,2.07,-38.69,-111.816,-796.387,942.383,16.05,-34.20,-41.85,18.30
8270,-4.93,-0.55,-39.11,22.461,-484.375,899.414,16.20,-32.40,-42.00,18.16
8280,-1.04,4.66,-35.21,-654.785,-36.621,948.242,17.40,-34.05,-40.80,18.21
8290,8.15,0.88,-34.75,102.539,-655.273,971.680,17.10,-34.35,-41.25,18.06
8299,9.31,-2.88,-33.72,94.727,-466.309,432.617,17.10,-34.35,-41.25,18.01
8309,4.20,0.71,-35.85,42.480,-248.535,1841.797,17.55,-34.20,-41.10,18.21
8318,0.85,-6.62,-35.79,88.867,-468.262,1169.922,16.80,-34.20,-41.40,18.06
8328,1.58,1.43,-35.05,-219.727,-308.105,821.777,16.80,-34.20,-41.40,18.06
8340,-5.31,5.59,-31.59,-131.836,-257.812,356.445,16.50,-34.95,-40.35,18.30
8350,-3.90,-0.90,-41.36,-316.406,-481.934,1071.289,17.10,-33.60,-40.50,18.30
8360,4.89,-6.09,-30.98,94.238,-937.988,1177.734,16.80,-34.20,-41.10,17.87
8370,-0.20,-1.18,-37.70,-104.980,-610.840,1386.719,16.80,-34.65,-40.35,18.21
8380,1.33,-4.97,-38.27,-291.016,-521.973,1389.648,16.80,-34.65,-40.35,18.16
8390,3.26,-2.15,-30.34,-316.895,-452.637,924.805,17.10,-33.15,-40.50,18.16
8400,6.11,-1.99,-32.15,-99.609,-521.973,804.199,16.80,-33.75,-41.85,18.16
8412,4.53,-3.79,-43.63,-184.082,-584.961,1018.066,15.45,-34.35,-39.75,18.21
8422,2.63,0.37,-32.00,-207.520,-248.535,682.129,16.05,-34.65,-40.35,18.06
8432,0.25,1.01,-39.86,-62.012,-390.625,885.742,16.05,-34.65,-40.35,17.87
8442,0.73,-4.23,-34.31,-153.809,-290.039,1519.531,15.30,-34.65,-40.65,18.06
8452,3.42,-1.68,-41.61,-24.902,-800.293,694.824,15.30,-34.65,-38.85,18.01
8462,-9.83,-8.06,-34.24,-327.148,-295.898,1454.102,14.85,-35.40,-40.35,18.01
8472,3.60,2.84,-35.06,-216.797,-311.523,517.578,15.75,-36.15,-40.65,18.16
8484,5.26,4.97,-52.44,18.066,-367.187,567.871,15.45,-35.25,-40.80,18.21
8494,-5.09,2.03,-30.53,-290.039,-47.363,723.633,13.95,-35.25,-40.50,18.16
8504,2.69,1.79,-27.85,129.395,-644.531,115.723,14.55,-34.95,-39.15,18.21
8514,-1.12,-2.75,-25.29,391.602,-1244.141,1322.754,14.55,-34.95,-39.15,17.82
8524,-4.28,-5.53,-40.15,-254.395,-303.223,897.461,14.40,-35.55,-39.75,17.82
8534,5.19,-0.40,-39.81,162.598,-602.539,1485.840,15.75,-34.95,-39.60,18.21
8546,10.90,-10.69,-31.98,-158.203,-691.406,1736.816,14.10,-35.40,-40.65,18.16
8556,3.76,7.17,-33.30,-173.828,-856.445,668.945,14.10,-34.95,-39.15,18.16
8566,-3.41,-0.35,-30.57,-400.391,-368.652,1555.664,14.10,-34.95,-39.15,18.21
8576,1.97,3.84,-31.17,-395.020,-517.578,769.043,13.05,-35.85,-39.90,18.16
8586,0.60,-4.56,-10.13,-452.637,24.902,1805.664,13.95,-36.00,-38.55,18.06
8596,1.02,0.24,-31.53,-23.926,-389.160,1008.301,14.10,-36.60,-40.35,17.82
8610,68.17,46.89,-94.46,-392.090,-102.539,1227.051,14.70,-35.55,-37.80,18.21
8620,13.81,5.50,30.80,-28.320,-378.418,1768.066,13.95,-36.75,-39.75,18.01
8632,2.26,2.48,-9.10,-152.344,-422.852,1723.145,12.75,-34.35,-38.55,18.30
8642,2.71,4.46,-36.25,8.789,-576.172,585.937,12.75,-34.35,-38.55,18.21
8652,1.91,4.46,-32.76,-514.648,-340.332,1336.426,13.20,-35.55,-39.30,18.01
8662,16.93,-1.11,-81.50,218.750,-300.293,1429.199,12.00,-36.00,-39.00,18.16
8672,1.01,7.67,-39.82,81.543,-349.609,834.473,13.35,-35.85,-39.15,17.87
8682,-5.63,-2.14,-31.95,-44.434,-357.910,1374.512,12.60,-35.85,-39.15,18.06
8692,3.09,2.23,-30.91,59.570,-337.402,668.457,12.60,-35.85,-39.15,18.21
8704,0.86,-5.35,-32.50,24.902,-337.402,732.910,12.30,-35.85,-39.90,18.21
8714,2.76,-5.15,-40.82,112.793,-503.906,1058.594,12.00,-35.55,-39.00,18.06
8724,-0.61,-8.31,-34.67,-156.250,-303.223,1700.195,12.00,-35.25,-38.25,18.16
8734,7.24,-0.08,-12.76,-86.426,-686.035,28.809,12.30,-36.15,-39.15,18.21
8744,5.60,-0.64,-32.38,-11.230,-341.797,859.375,12.30,-36.15,-39.15,18.16
8754,7.63,-2.81,-31.50,78.125,-522.461,758.789,13.80,-36.15,-39.60,18.01
8764,0.44,-2.39,-30.08,39.063,-550.293,1494.141,11.85,-37.05,-38.10,18.16
8776,1.66,1.60,-31.05,-27.832,-458.008,347.168,11.85,-37.05,-38.10,18.21
8786,4.98,-1.06,-27.11,15.625,-262.695,1418.945,12.60,-36.60,-38.10,18.21
8796,3.82,-7.02,-36.42,-29.297,-377.930,980.469,10.95,-36.75,-40.50,18.16
8806,10.74,-1.51,-21.46,-79.590,-391.602,1339.844,11.85,-35.85,-38.40,18.35
8816,0.27,-4.78,-32.58,-337.402,-468.750,1749.023,11.85,-37.05,-39.15,18.21
8826,3.95,-0.27,-28.40,-63.965,-740.723,317.383,11.85,-37.05,-39.15,17.87
8836,10.12,3.85,-34.33,-324.219,-229.492,1490.723,10.50,-36.00,-38.25,18.01
8848,6.55,2.79,-35.57,45.410,-327.148,822.266,10.95,-37.95,-38.25,17.77
8858,-7.83,3.52,-38.45,-59.082,-206.543,1110.352,10.65,-37.05,-40.35,18.01
8868,-7.95,-5.98,-37.52,-31.738,-218.262,678.223,12.00,-36.00,-37.05,18.21
8878,4.66,-2.22,-35.73,-295.898,-81.055,911.133,12.00,-36.00,-37.05,18.21
8888,10.74,-4.88,-36.75,-136.230,-58.594,1167.480,12.00,-36.45,-39.00,18.01
8898,12.90,-2.68,-35.37,429.687,-600.586,776.367,11.10,-37.35,-38.10,18.01
8910,0.37,-2.17,-35.34,-145.508,-465.332,846.680,11.25,-36.45,-38.55,18.21
8920,1.92,5.02,-131.04,-216.797,-375.000,650.879,11.25,-37.95,-37.05,18.35
8930,0.21,-5.77,-31.56,-368.164,-413.574,1555.664,10.50,-36.75,-37.50,18.01
8940,4.63,0.83,-32.69,70.313,-323.730,555.176,11.40,-36.60,-39.60,17.82
8950,0.81,1.01,-33.50,-705.078,209.961,1839.844,11.40,-36.60,-39.60,18.16
8960,2.19,1.82,-38.89,20.508,-250.000,807.129,10.95,-37.20,-38.55,18.21
8969,5.73,3.69,-37.65,201.172,-762.695,567.871,10.95,-37.20,-38.55,18.16
8981,4.44,0.44,-37.26,53.711,-308.105,1098.633,11.10,-38.55,-38.10,17.97
8991,8.58,1.18,-32.62,31.250,-296.387,1864.746,11.40,-36.15,-37.35,18.21
9001,10.12,-1.53,-34.49,-204.590,-617.187,1999.939,11.40,-36.15,-37.35,18.01
9011,7.76,-2.08,-33.27,76.660,-183.594,656.738,9.75,-36.75,-37.80,18.16
9021,11.56,3.38,-33.64,216.309,-401.367,738.770,11.10,-36.15,-36.90,18.35
9031,5.12,-1.19,-20.82,-506.836,-1128.906,1999.939,11.10,-36.15,-36.90,18.30
9041,0.28,0.57,-39.31,165.039,-481.934,599.609,9.90,-37.35,-38.40,18.06
9053,6.24,-5.13,-39.56,180.176,-535.645,473.145,10.95,-37.20,-37.05,18.16
9063,4.46,8.02,-31.25,139.648,-444.336,465.332,9.30,-37.95,-38.25,18.30
9073,2.64,6.95,-40.17,-154.297,-566.406,1242.188,10.05,-37.95,-37.80,17.97
9083,1.96,0.19,-35.51,62.500,-149.414,951.172,10.05,-37.95,-37.80,18.06
9092,-0.14,-4.02,-35.98,108.887,-602.051,935.547,11.40,-37.35,-37.35,18.30
9102,-3.69,6.73,-38.39,-72.266,-769.531,665.039,10.50,-36.75,-37.05,18.06
9112,-7.79,2.12,-41.53,-161.133,-695.312,1026.855,8.70,-38.55,-36.90,18.35
9129,-4.64,-3.66,-32.34,-371.094,-462.891,1400.391,10.05,-36.75,-37.50,18.21
9138,-4.60,-3.58,-41.33,47.363,-229.492,911.133,10.05,-36.75,-37.50,18.16
9148,3.06,1.93,-34.58,-286.133,-379.883,753.906,10.50,-37.95,-37.50,17.87
9158,3.09,-1.34,-31.12,-389.160,-342.773,1895.996,9.75,-37.65,-37.80,18.21
9168,3.19,1.87,-22.37,288.086,-521.484,334.473,9.75,-37.65,-37.80,18.40
9177,12.85,-2.22,-36.63,60.059,-404.785,1215.820,9.30,-38.40,-36.30,18.21
9189,9.60,-3.49,-34.69,415.039,-835.449,440.430,9.60,-37.35,-37.65,18.16
9199,6.14,3.08,-39.72,-411.621,-442.383,1050.781,10.50,-38.40,-37.05,18.21
9209,1.07,-6.15,-39.10,-110.352,-400.391,1999.939,9.30,-36.75,-38.25,17.82
9219,4.17,-0.45,-27.02,166.504,-499.023,970.215,9.30,-36.75,-38.25,18.06
9229,2.10,-1.34,-36.89,-129.883,-503.418,1130.859,7.95,-39.00,-38.10,18.21
9239,4.11,-0.03,-47.35,265.625,-698.730,397.461,8.55,-37.95,-36.75,18.30
9251,-3.04,-3.46,-38.76,-329.102,-927.734,1999.939,9.15,-39.00,-36.60,17.97
9261,0.08,-3.91,-46.56,409.180,-681.641,410.156,9.15,-39.00,-36.60,18.16
9271,-0.81,-1.15,-44.22,-109.375,-434.570,1057.129,8.25,-38.70,-36.75,18.30
9281,-5.92,-7.73,-50.60,307.129,-32.715,937.012,9.30,-39.60,-37.80,18.21
9291,6.95,-1.66,-33.87,-29.297,-737.305,211.914,9.30,-39.60,-37.80,17.87
9301,0.23,-6.08,-39.23,-302.246,-447.266,1934.570,7.20,-39.00,-36.90,18.21
9311,6.76,-8.52,-35.15,43.457,-559.570,920.898,9.60,-39.00,-36.90,18.21
9323,-0.44,-2.31,-38.63,-166.992,-835.937,1072.754,8.40,-37.80,-36.15,18.01
9333,-6.91,0.79,-38.50,-268.555,-383.301,186.523,8.55,-38.70,-36.75,18.06
9343,1.44,4.50,-41.53,-281.250,-619.141,1453.125,8.55,-38.70,-36.75,18.30
9353,0.89,-4.27,-37.43,-143.066,-955.566,1126.465,8.40,-39.00,-35.70,18.21
9363,-1.36,5.63,-46.30,-124.023,-596.680,911.621,7.35,-39.90,-37.05,18.16
9373,1.89,5.54,-44.02,-417.969,-404.785,1426.270,7.95,-38.25,-36.15,17.87
9383,11.11,6.82,-38.85,315.430,-563.477,143.555,6.90,-39.30,-35.40,18.30
9394,4.65,5.22,-40.18,-271.484,-218.750,1751.953,6.90,-39.30,-35.40,18.06
9404,8.76,6.19,-48.73,265.137,-513.672,669.922,6.60,-37.65,-35.55,18.21
9414,8.21,8.17,-36.80,143.555,-1072.266,644.531,6.90,-40.20,-36.15,18.30
9424,-0.24,-3.52,-53.27,-171.875,-754.883,1662.109,6.90,-40.20,-36.15,18.16
9434,-3.44,0.41,-55.21,222.168,-493.652,292.480,6.60,-39.15,-34.80,18.06
9444,-3.28,1.57,-38.93,-5.859,-431.152,924.805,6.15,-39.75,-36.15,17.97
9454,-5.19,-3.24,-54.09,-131.348,-478.027,1379.883,6.30,-39.15,-36.00,18.30
9466,-4.73,0.26,-41.32,-447.754,-310.059,1507.813,5.85,-40.35,-36.00,18.06
9476,6.75,0.32,-37.51,44.434,-588.867,464.844,5.85,-40.35,-36.00,18.30
9486,7.05,7.95,-49.19,-126.465,-1206.543,721.191,5.55,-39.60,-36.00,18.30
9496,-3.69,-9.44,-48.15,-332.520,-4.883,1999.939,4.95,-40.50,-35.70,18.16
9506,4.20,-3.89,-52.05,197.754,-824.707,742.187,4.50,-39.00,-37.65,18.30
9516,4.78,1.81,-47.95,326.660,-750.000,963.379,5.10,-40.80,-36.30,18.21
9525,-0.15,0.76,-51.26,83.496,-576.172,988.281,5.10,-40.80,-36.30,18.21
9537,-6.74,-4.08,-47.72,225.586,-382.324,634.766,5.70,-39.75,-34.95,17.87
9547,-5.94,-4.12,-39.53,-617.676,-528.320,1999.939,4.50,-40.50,-34.65,18.16
9557,-5.84,6.61,-56.92,115.234,-655.273,479.492,4.50,-40.50,-34.65,18.21
9567,-2.04,1.81,-45.01,278.320,-877.930,799.316,4.95,-40.20,-35.70,18.30
9577,-0.76,4.12,-58.13,-370.605,-706.543,1999.939,4.50,-40.20,-34.65,18.16
9587,15.02,4.73,-38.54,223.633,-957.520,-371.582,3.60,-41.10,-37.05,18.21
9597,19.69,5.84,-62.47,-581.055,-897.949,752.441,4.50,-40.50,-34.95,17.97
9609,13.02,6.66,-52.30,-17.090,-979.492,1675.781,4.50,-40.50,-34.95,18.21
9619,1.86,-5.66,-47.79,-443.848,-753.906,1958.984,3.00,-40.95,-35.70,18.01
9629,-5.06,-3.02,-52.73,-113.770,-706.055,226.562,2.85,-41.10,-35.25,18.21
9644,-9.37,8.12,-53.27,-76.172,-679.199,375.488,2.85,-39.90,-35.25,18.16
9653,-16.84,-2.44,-57.14,150.879,-632.812,897.949,2.85,-39.90,-35.25,17.97
9663,-9.18,-10.00,-56.59,225.098,-648.926,78.125,2.10,-42.00,-35.25,18.01
9673,9.31,-4.47,-55.27,-610.352,-183.105,294.922,2.55,-42.15,-36.15,18.16
9685,23.17,-1.56,-50.81,183.105,-671.875,1633.301,2.40,-43.20,-36.30,18.01
9695,-4.56,-8.83,-54.96,-705.078,-804.687,1999.939,2.10,-42.00,-36.00,18.06
9705,-2.89,-1.54,-47.95,128.906,-853.027,-6.836,3.15,-39.90,-35.25,18.21
9715,-10.76,-2.02,-59.46,20.508,-812.012,1237.793,1.20,-40.80,-36.00,18.16
9725,-2.50,-10.24,-57.64,-431.152,-635.742,1999.939,1.65,-40.80,-36.30,18.21
9735,-7.34,-2.34,-49.02,94.238,-903.320,658.691,1.65,-40.80,-36.30,18.06
9745,-13.21,-1.05,-64.07,-211.914,-632.812,1102.051,1.20,-42.30,-34.50,17.97
9757,8.36,0.02,-47.88,164.062,-582.520,1080.566,1.05,-41.40,-36.90,18.06
9767,-0.30,-4.59,-43.67,-692.871,-267.578,1908.203,1.20,-41.55,-36.00,18.01
9777,13.69,-7.67,-47.37,-38.574,-777.832,791.504,1.20,-42.00,-36.30,18.21
9787,13.37,9.60,-44.72,73.730,-845.703,882.812,1.20,-42.00,-36.30,18.06
9796,3.82,1.89,-63.48,-327.148,-381.836,1646.484,0.00,-42.60,-34.65,18.16
9806,3.05,6.62,-34.66,-14.648,-654.785,537.598,-0.30,-40.95,-35.70,18.21
9818,-10.18,10.84,-36.91,-359.375,-562.012,133.301,0.00,-41.70,-34.65,18.21
9828,-5.16,-12.63,-57.18,-22.949,-979.492,55.176,-2.25,-43.35,-34.20,18.30
9838,-3.98,4.86,-55.06,235.352,-495.117,856.445,-2.25,-43.35,-34.20,18.06
9848,3.78,-6.82,-42.88,-33.691,-650.879,1687.500,-0.75,-42.15,-34.65,18.16
9858,16.48,-1.99,-56.07,273.926,-935.547,440.430,-2.25,-42.15,-34.65,18.01
9868,2.32,6.09,-48.85,-259.766,-615.723,742.676,-2.25,-42.15,-34.65,18.21
9878,-0.40,-7.24,-51.17,83.008,-1135.254,1029.297,-2.10,-42.75,-33.75,18.16
9890,8.56,-9.50,-48.33,-955.566,-721.680,1999.939,-1.80,-42.60,-34.65,18.21
9900,3.76,-0.14,-46.40,752.930,-971.191,-214.355,-3.45,-41.40,-34.65,18.30
9910,-15.01,4.75,-54.36,42.480,-771.973,958.496,-2.10,-41.10,-34.50,18.21
9920,-19.89,-10.76,-52.72,-59.082,-631.348,1999.939,-2.10,-41.10,-34.50,17.87
9930,-16.85,-1.52,-54.94,197.266,126.953,-414.062,-2.85,-42.30,-34.05,18.16
9940,-8.76,-5.21,-52.90,-462.402,293.457,1469.727,-2.40,-42.75,-36.00,18.16
9950,7.69,-1.70,-50.55,-619.629,230.957,1768.555,-3.15,-41.55,-34.05,18.16
9962,19.84,14.21,-48.40,-639.648,-924.805,1229.980,-3.15,-41.55,-34.05,18.21
9972,-0.76,-1.86,-48.72,-4.395,-1276.367,-320.801,-3.60,-40.80,-34.05,18.30
9982,3.56,7.10,-53.75,-237.793,-891.602,1999.939,-3.60,-43.95,-33.75,18.21
9992,-1.78,16.43,-54.08,-209.961,-400.879,305.664,-3.60,-43.95,-33.75,18.16
10002,-0.91,-4.63,-53.92,557.617,-703.125,179.687,-5.55,-43.20,-33.75,17.97
10012,0.24,7.84,-48.05,-1.953,-640.625,574.219,-5.55,-41.55,-34.05,17.97
10022,2.77,0.45,-60.61,-451.172,-978.027,1999.939,-5.55,-41.55,-34.05,17.97
10034,-3.27,-4.72,-49.79,-252.441,-170.898,1999.939,-5.85,-41.55,-32.55,18.06
10044,-2.36,-8.23,-55.59,-2.441,-538.086,311.035,-5.85,-41.55,-32.55,18.16
10054,1.31,9.12,-56.31,226.562,-1063.477,135.742,-5.55,-39.90,-34.05,17.97
10064,-3.42,-5.47,-47.14,-561.523,-331.543,1654.785,-4.80,-43.20,-34.05,18.06
10074,-4.85,-5.12,-47.82,213.379,-267.578,587.891,-6.90,-40.20,-34.20,18.06
10084,17.69,9.66,-59.02,295.410,-945.801,1080.078,-6.45,-40.50,-33.90,18.01
10096,-8.19,-0.33,-47.85,276.367,-480.469,381.836,-6.45,-40.50,-33.90,17.87
10106,-20.00,-11.81,-47.21,-537.598,152.344,1588.379,-6.60,-40.80,-34.80,17.87
10116,1.62,-1.11,-51.34,-65.918,152.344,1218.262,-6.30,-40.80,-33.30,18.06
10126,2.26,11.27,-46.29,537.109,-216.797,594.727,-6.30,-40.80,-33.30,18.16
10136,1.24,-0.87,-41.01,-264.648,-178.223,1999.939,-7.35,-39.60,-33.75,18.35
10146,-0.89,0.00,-50.08,172.363,-885.254,-512.207,-8.40,-41.40,-32.70,18.49
10163,-1.55,-17.20,-43.80,146.484,-631.348,157.227,-7.20,-40.95,-34.65,18.01
10172,7.99,9.63,-49.27,420.898,-299.805,1848.145,-7.95,-40.20,-34.65,18.01
10182,-5.55,8.11,-46.05,-424.805,-540.527,1876.465,-7.95,-40.20,-34.65,18.16
10192,0.67,-1.23,-51.30,494.629,-441.895,-130.859,-9.00,-40.35,-33.75,18.16
10202,0.19,4.45,-48.85,-323.242,310.547,-150.391,-7.65,-38.55,-32.70,18.01
10212,1.38,0.67,-45.57,-31.250,-713.379,1999.939,-7.35,-40.80,-33.30,18.16
10222,6.15,-2.44,-45.68,40.039,-1101.074,188.965,-7.35,-37.95,-34.80,18.21
10234,7.26,-3.94,-50.37,334.961,-1053.223,-476.074,-9.60,-40.20,-33.45,18.16
10244,15.69,18.19,-47.27,219.727,-603.516,879.395,-9.90,-39.00,-33.45,18.21
10254,0.84,0.49,-46.73,-264.160,-604.004,1999.939,-9.90,-39.00,-33.45,17.97
10264,2.94,4.27,-53.73,187.012,-782.227,590.332,-9.60,-40.95,-33.45,18.30
10274,-15.92,0.32,-51.11,-893.066,241.699,1227.539,-9.90,-39.00,-33.15,18.16
10284,-6.10,3.84,-54.51,416.016,-236.816,1529.785,-9.90,-39.75,-33.45,18.06
10294,6.95,6.05,-51.18,-311.523,-439.453,1054.688,-10.50,-39.60,-35.25,18.35
10306,11.38,5.73,-49.65,771.973,-965.332,531.250,-10.50,-39.60,-35.25,18.21
10316,-14.55,-2.62,-49.02,-81.055,-427.246,1615.723,-9.00,-40.35,-34.05,18.21
10326,-1.85,-3.36,-43.82,362.305,-322.754,-76.172,-11.70,-38.70,-33.75,18.21
10336,-1.05,-10.89,-45.05,227.051,-698.242,1826.660,-11.25,-39.60,-33.00,17.87
10346,-0.49,1.33,-60.20,208.496,-636.230,-516.113,-9.90,-40.20,-32.70,18.40
10356,-18.40,-6.74,-47.66,-337.891,-625.000,1202.148,-9.90,-40.20,-32.70,18.40
10368,-6.88,-9.04,-55.73,-396.484,-390.137,1626.953,-10.35,-38.25,-33.15,18.16
10378,3.00,-10.48,-51.65,681.641,-685.547,989.746,-11.40,-40.50,-32.40,18.21
10388,20.11,2.51,-48.21,-801.270,-583.008,773.926,-11.40,-40.50,-32.40,18.21
10398,2.40,2.17,-43.28,608.398,-509.766,1998.535,-12.45,-37.95,-32.55,17.97
10408,5.55,16.69,-57.78,-83.008,-147.461,860.352,-12.30,-39.30,-32.40,18.16
10418,3.08,-3.42,-42.28,561.523,-560.059,1999.939,-13.05,-37.80,-33.15,18.21
10428,9.31,11.01,-48.59,-132.812,-1092.773,940.430,-11.70,-37.65,-31.80,18.21
10442,-2.86,20.00,-44.18,-369.141,-221.191,1242.676,-11.70,-37.65,-31.80,18.06
10451,0.66,3.95,-41.79,247.070,-916.992,1999.939,-12.30,-36.15,-34.20,17.97
10461,-2.15,10.50,-38.73,115.234,-1085.449,459.473,-12.45,-37.65,-31.80,18.16
10471,-7.55,-4.15,-50.02,-107.422,-868.164,1999.939,-13.35,-38.55,-33.90,18.21
10481,7.80,0.04,-45.99,-57.617,-395.508,454.590,-12.60,-37.35,-33.15,18.21
10491,1.51,-3.96,-47.34,-351.562,-317.383,1999.939,-12.60,-37.35,-33.15,18.35
10503,2.92,-3.66,-44.27,-463.867,-652.832,538.086,-12.60,-36.15,-32.70,18.21
10513,4.50,-7.51,-45.14,317.871,-1417.969,24.902,-12.60,-36.15,-32.70,18.16
10523,-7.01,-0.10,-56.72,-619.141,-403.320,1422.363,-12.60,-36.15,-32.70,18.06
10533,-11.03,0.02,-48.01,475.098,-732.910,636.719,-13.95,-35.55,-33.75,17.97
10543,3.08,2.44,-46.05,-670.898,-435.547,777.344,-13.95,-35.55,-33.75,18.21
10553,22.67,1.95,-48.27,-100.098,-943.359,1999.939,-14.55,-34.95,-33.15,18.21
10563,9.53,5.42,-47.63,229.492,-891.602,1516.113,-13.20,-34.80,-34.50,18.21
10575,-8.50,4.08,-47.85,254.883,-518.066,228.516,-13.95,-36.00,-33.75,18.01
10585,3.81,3.27,-45.21,-439.453,-103.516,1526.855,-14.10,-35.40,-33.90,18.16
10595,-4.39,-2.92,-51.52,148.926,-651.855,1335.449,-14.40,-34.05,-33.30,18.49
10605,5.23,0.21,-43.05,-92.773,-588.867,355.957,-14.70,-34.80,-34.05,18.30
10615,-11.48,1.02,-56.37,-398.437,-345.703,1287.598,-14.70,-34.80,-34.05,18.06
10625,1.24,-3.92,-49.29,57.129,-163.574,1222.168,-13.80,-33.45,-33.45,18.01
10635,-1.20,3.74,-45.14,-375.977,-232.422,1926.758,-13.80,-33.45,-34.20,18.35
10647,0.66,2.20,-48.38,-307.617,-332.520,1071.289,-14.10,-33.45,-34.20,18.16
10657,15.50,-3.66,-38.56,-305.176,-1220.215,1028.809,-14.55,-33.75,-32.70,18.35
10667,7.63,6.27,-37.64,11.230,-791.992,338.379,-14.55,-33.00,-32.40,18.21
10689,-3.82,18.30,-40.97,-196.777,-92.285,342.285,-14.40,-32.40,-32.55,18.30
10698,2.21,-2.73,-35.77,-70.801,-570.312,1263.184,-14.40,-32.40,-32.55,18.30
10708,4.86,12.63,-47.31,-206.055,-555.664,1345.703,-13.35,-32.25,-33.15,18.06
10718,-4.81,3.91,-42.82,-457.031,-9.277,761.230,-13.80,-32.55,-33.45,18.16
10730,-3.92,27.66,-38.89,-56.641,-1324.707,64.941,-14.70,-30.75,-33.75,17.63
10740,11.88,-3.01,-0.33,-750.488,-1671.387,1999.939,-14.55,-31.35,-33.45,18.21
10750,-10.96,30.95,-43.63,-638.184,-1184.570,51.270,-14.55,-31.35,-33.45,18.21
10760,-17.22,-29.40,-24.17,122.559,342.285,1152.832,-12.75,-31.20,-32.55,18.21
10770,30.15,3.01,-15.85,-79.590,-1195.313,734.375,-14.85,-30.60,-32.40,18.21
10780,29.60,19.52,-71.57,-212.402,-1374.512,1587.891,-15.15,-31.20,-31.80,18.01
10792,-6.57,20.06,-43.53,225.586,-131.348,32.227,-14.40,-30.45,-31.50,18.21
10802,-5.88,23.25,-45.67,632.812,-19.531,-104.492,-13.95,-29.55,-31.05,18.30
10812,4.88,13.36,-46.95,-157.227,252.441,1132.324,-13.80,-29.85,-31.65,18.16
10822,10.15,10.15,-25.15,-205.566,-240.723,1872.559,-14.55,-29.85,-32.70,18.06
10832,20.95,-4.11,-41.66,-346.191,-388.184,1357.910,-14.55,-29.85,-32.70,18.16
10842,23.76,-13.68,-59.47,-122.070,-1394.531,1999.939,-13.95,-31.65,-31.05,18.35
10852,22.70,-16.53,-60.49,-151.367,-730.957,1712.402,-13.35,-31.05,-30.90,18.16
10864,21.49,-24.48,-44.60,288.574,-1017.578,484.863,-14.55,-28.20,-30.45,18.30
10874,17.60,-23.48,-60.63,26.855,-1347.656,1005.859,-14.55,-28.20,-30.45,18.21
10884,0.02,-31.85,-47.76,-390.137,-904.785,1348.633,-14.55,-28.20,-30.45,18.16
10894,-3.67,-33.37,-48.49,-134.277,-1405.762,1999.939,-16.50,-28.20,-29.40,18.01
10904,-26.21,-32.36,-40.73,-273.926,-696.777,844.727,-16.50,-28.20,-29.40,18.01
10914,-20.15,-35.00,-53.20,116.699,-1037.598,484.375,-17.40,-28.35,-29.85,18.30
10926,-30.22,-35.61,-63.44,92.773,-105.469,1490.234,-18.60,-28.05,-29.10,18.16
10936,-10.46,-27.99,-43.89,-228.516,-191.895,1398.926,-17.55,-27.45,-30.15,18.30
10946,0.37,-16.66,-58.73,-491.699,-615.234,775.879,-17.40,-30.00,-30.30,18.06
10956,-7.85,-11.90,-43.84,-270.508,-798.340,-8.789,-17.40,-30.00,-30.30,18.21
10966,-16.98,-15.53,-53.50,-244.629,-812.500,1165.527,-18.75,-28.65,-30.90,18.01
10976,-10.56,-12.77,-53.28,18.555,-398.437,963.379,-19.20,-27.75,-30.15,17.97
10989,-21.14,-12.56,-57.17,-336.914,-112.793,913.086,-18.90,-27.15,-30.30,17.87
10998,3.52,-9.30,-45.21,83.008,-239.746,596.191,-20.10,-28.80,-30.30,18.16
11008,29.60,-12.74,-58.89,-492.676,450.684,1999.939,-20.10,-28.80,-30.30,18.21
11018,37.00,1.14,-44.57,-562.988,-67.383,516.602,-20.55,-27.60,-30.30,18.06
11028,40.94,5.76,-35.19,-131.348,-1574.219,719.727,-19.95,-27.00,-30.15,18.21
11038,6.97,13.63,-64.76,-585.937,-833.008,655.273,-19.95,-25.80,-31.65,18.21
11048,23.34,3.22,-44.98,-248.535,-357.422,1669.922,-18.90,-25.95,-31.50,18.30
11060,10.23,16.07,-46.82,-124.023,-641.113,841.309,-19.65,-26.40,-31.50,18.16
11070,-2.95,15.42,-54.41,101.563,-281.250,467.773,-19.35,-24.45,-31.05,18.06
11080,11.00,14.19,3.96,-664.551,-556.641,1482.422,-20.85,-25.65,-31.05,17.87
11090,0.95,5.37,-51.47,211.426,-670.410,1547.363,-20.85,-25.65,-31.05,18.16
11100,-3.66,5.95,-45.83,35.156,-604.004,1553.711,-20.25,-25.50,-32.70,18.16
11110,-9.97,0.85,-45.23,284.668,-854.492,1486.328,-20.70,-25.50,-30.90,18.40
11120,-7.56,-6.63,-49.23,-398.437,-872.559,1632.813,-18.75,-24.60,-31.20,18.21
11132,2.21,-1.24,-46.13,-328.613,238.281,1909.668,-20.55,-25.65,-32.25,18.06
11142,26.46,-8.49,-55.63,903.809,-1173.828,652.344,-20.55,-25.65,-32.25,18.16
11152,19.95,-0.95,-44.71,-568.848,-770.508,-72.754,-22.05,-26.85,-31.50,18.16
11162,9.27,-13.02,-48.15,236.328,-1253.906,1837.891,-22.05,-25.20,-30.75,18.21
11172,-7.45,-8.97,-43.99,419.922,-1087.402,323.242,-21.00,-25.80,-29.70,18.16
11182,-22.68,-8.11,-49.07,-21.484,-589.355,838.379,-20.25,-27.00,-30.15,18.16
11194,-14.47,-3.46,-50.15,-204.590,-652.344,1678.711,-22.05,-24.00,-31.05,18.21
11210,-7.45,-10.40,-44.53,153.320,-220.703,1265.137,-22.20,-25.50,-30.15,18.16
11219,-1.92,-11.47,-42.27,69.336,-368.652,216.797,-22.20,-25.50,-30.15,18.16
11229,3.60,-11.60,-50.96,-506.836,-169.922,500.488,-22.20,-27.45,-30.90,18.21
11239,9.34,-4.66,-46.31,65.430,-508.301,790.527,-22.95,-24.60,-31.20,17.87
11249,5.44,0.16,-42.60,291.504,-755.371,433.105,-21.90,-25.05,-29.70,18.16
11261,-2.23,-6.70,-40.25,22.949,-532.227,1257.813,-21.90,-25.80,-30.45,17.82
11271,-2.15,9.47,-38.08,-15.137,-553.223,474.609,-21.90,-25.80,-30.45,18.06
11281,-5.11,3.47,-47.16,-757.812,-39.063,1705.078,-21.30,-25.65,-30.30,18.30
11291,1.60,7.95,-41.05,125.000,-237.793,466.797,-22.80,-24.45,-31.05,18.06
11301,7.75,10.85,-38.33,28.809,-318.359,690.918,-22.80,-24.45,-31.05,18.21
11311,8.48,8.60,-40.77,-263.672,-490.234,658.691,-22.35,-24.45,-30.30,18.21
11321,14.13,9.44,-31.82,-80.078,-704.590,1346.191,-22.20,-23.40,-30.15,18.16
11333,11.44,6.73,-39.69,-541.992,-388.672,1280.762,-21.00,-23.85,-29.40,18.16
11343,6.92,-4.59,-49.15,-141.602,-591.797,955.078,-23.25,-24.45,-29.85,17.97
11353,11.11,4.34,-38.15,501.953,-660.156,464.355,-23.25,-24.45,-29.85,18.16
11363,4.87,3.45,-39.82,-132.812,-704.102,1999.939,-23.25,-24.00,-29.10,18.35
11373,-0.13,-0.18,-45.06,62.012,-373.535,718.750,-24.75,-23.70,-30.30,18.01
11383,11.61,0.92,-43.83,256.836,-595.215,812.500,-22.95,-23.85,-29.40,18.06
11393,7.68,-0.47,-42.63,-559.570,-252.930,1345.703,-22.95,-22.65,-30.90,18.30
11405,3.74,-0.08,-38.51,196.777,-529.785,1105.957,-22.95,-22.65,-30.90,18.16
11415,-5.28,-7.99,-48.79,-365.234,-46.387,1661.621,-22.95,-22.65,-29.70,18.21
11425,5.40,-11.11,-37.08,314.941,-675.293,355.469,-22.95,-23.10,-31.95,17.87
11435,-0.71,-0.95,-41.74,-28.809,-513.672,1205.078,-22.95,-23.10,-31.95,18.21
11445,-4.46,-10.30,-36.34,-395.508,-361.816,1894.531,-23.55,-22.05,-30.15,18.16
11455,-5.89,-3.91,-37.69,71.289,-732.422,581.543,-23.55,-22.05,-31.50,18.16
11467,-12.18,-4.14,-36.60,-215.820,-365.234,1606.934,-22.05,-22.50,-32.25,18.49
11477,-6.67,1.05,-40.98,349.609,-493.164,406.738,-22.05,-22.50,-32.25,18.30
11487,-3.33,13.80,-35.62,-122.070,-356.934,391.113,-24.00,-22.50,-29.85,18.16
11497,-2.95,-6.56,-38.70,274.902,-346.680,378.906,-23.70,-23.40,-30.45,18.16
11507,8.68,8.01,-41.21,323.730,-178.223,795.898,-22.95,-21.45,-30.15,17.87
11517,8.95,6.10,-34.69,-456.543,-283.203,1702.637,-22.95,-21.45,-30.45,18.30
11527,10.47,0.50,-39.11,623.535,-563.965,-123.535,-22.95,-21.45,-30.45,18.21
11539,3.50,-2.75,-36.37,316.895,-733.887,526.367,-22.95,-19.50,-29.70,18.21
11549,2.11,2.89,-36.79,-13.184,-645.020,653.320,-24.60,-21.45,-30.15,18.16
11559,-4.73,-4.46,-29.92,-203.125,-75.195,1999.939,-24.60,-21.45,-30.15,18.21
11569,10.49,-5.14,-41.24,365.234,-411.621,-66.406,-24.30,-20.85,-31.05,18.21
11579,9.50,6.90,-33.60,228.516,-790.039,788.086,-24.15,-21.45,-30.45,18.06
11589,6.84,-4.64,-38.85,-305.176,-571.289,1999.939,-23.25,-18.90,-31.50,17.97
11601,-4.31,2.67,-31.32,-708.496,-192.383,1717.773,-22.65,-20.70,-30.90,18.40
11611,0.92,-1.02,-31.41,129.883,-435.547,273.926,-22.65,-20.70,-30.90,17.87
11621,0.26,6.53,-37.50,173.340,-454.590,439.453,-23.40,-19.05,-31.20,18.06
11631,-12.55,1.01,-34.76,-283.691,-437.012,1669.922,-22.05,-20.85,-31.05,18.21
11641,-8.41,-1.52,-28.05,144.043,-483.887,470.215,-24.15,-20.70,-31.20,18.21
11651,-3.50,2.78,-40.47,226.074,-176.270,1090.820,-21.90,-20.70,-29.70,18.16
11661,-4.09,-4.85,-40.83,-455.566,-435.059,1999.939,-21.90,-20.70,-29.70,18.21
11674,-12.32,-9.89,-37.95,-970.703,-61.523,-55.176,-23.25,-18.90,-31.50,18.01
11683,-2.11,-12.71,-44.69,117.676,-543.945,117.188,-23.40,-21.00,-29.70,18.35
11693,0.47,5.29,-38.55,-300.293,-432.129,1459.473,-23.40,-21.00,-29.70,17.97
11703,-9.81,-7.27,-29.91,-492.676,-453.613,1999.939,-24.15,-19.05,-31.20,18.21
11713,7.96,-0.43,-36.90,366.699,-709.473,71.289,-24.00,-22.05,-30.30,18.16
11727,0.11,13.98,-42.37,-353.516,0.977,1121.094,-24.00,-18.00,-30.75,17.97
11737,6.40,-1.50,-32.98,1050.781,-520.020,1752.441,-24.00,-18.00,-30.75,17.87
11747,10.10,16.65,-45.42,-399.414,-855.469,1442.871,-24.90,-18.30,-30.90,18.30
11757,-2.22,17.81,-35.98,-496.582,-380.859,1999.939,-23.40,-17.10,-30.45,18.16
11767,2.04,1.75,-32.44,591.797,-754.395,-89.844,-23.40,-19.05,-30.15,18.21
11777,-0.39,7.30,-33.48,148.926,-183.594,466.797,-24.30,-17.70,-31.50,18.16
11787,-2.85,-1.50,-32.85,311.035,-466.309,1999.939,-24.30,-17.70,-31.50,18.06
11797,10.81,-0.08,-30.32,33.691,-333.496,843.262,-23.25,-18.45,-30.30,17.82
11807,-0.02,-3.35,-40.23,-42.969,-626.953,1999.939,-24.00,-16.50,-31.05,18.21
11819,8.39,11.51,-44.56,235.840,-707.520,790.039,-23.25,-18.45,-29.85,17.97
11829,7.24,-9.34,-29.63,395.508,-606.934,111.816,-23.70,-18.60,-31.95,18.16
11839,5.50,-2.21,-43.37,-18.066,-452.148,1063.477,-22.20,-17.10,-30.15,18.21
11849,4.23,-5.97,-39.01,-417.480,60.059,1999.939,-22.95,-18.30,-29.40,18.06
11859,2.27,-4.64,-42.60,296.875,-263.672,61.035,-24.15,-17.85,-30.15,18.16
11869,-14.03,-5.56,-35.92,-710.449,845.215,-211.426,-24.15,-17.85,-30.15,18.06
11881,-19.28,-6.44,-32.67,-445.801,285.645,1245.117,-22.80,-18.90,-29.10,17.97
11891,-5.02,-13.56,-36.46,622.070,-717.773,1100.586,-25.35,-17.10,-30.90,18.16
11901,-4.05,-5.46,-36.00,-517.090,-141.602,921.875,-23.25,-15.60,-29.55,17.87
11911,-12.55,-7.14,-56.71,132.324,-648.437,1999.939,-22.80,-18.90,-29.55,18.21
11921,-6.43,5.08,-27.29,-237.305,-458.008,520.508,-22.80,-18.90,-29.55,18.21
11931,-7.18,-0.24,-32.40,-335.937,-408.691,1667.969,-22.65,-17.10,-30.45,18.21
11941,5.99,-4.42,-34.99,273.926,-435.547,202.637,-24.30,-17.70,-29.85,18.16
11953,6.47,2.73,-33.22,553.223,-935.059,17.090,-24.75,-16.05,-31.80,18.16
11963,2.62,12.34,-36.54,-462.402,-560.059,874.023,-23.25,-16.05,-31.05,18.16
11973,-1.56,0.67,-34.27,838.867,-398.926,1504.883,-23.25,-16.05,-31.05,18.16
11983,15.85,14.66,-33.60,-158.691,-543.457,1999.939,-23.40,-15.00,-32.70,18.01
11993,22.63,-15.69,-38.08,400.879,-1260.254,1999.939,-24.15,-16.65,-30.15,18.16
12003,16.63,2.53,-40.72,-411.621,-769.043,1213.379,-24.15,-16.65,-30.15,18.16
12015,4.57,4.85,-22.79,-253.418,-339.844,740.234,-22.95,-13.05,-31.20,18.21
12025,5.68,8.42,-34.96,-100.098,-812.012,1999.939,-22.65,-13.50,-28.20,18.21
12035,1.17,2.26,-35.26,1057.129,-836.426,-166.504,-23.40,-15.90,-30.45,18.06
12045,-24.00,-10.08,-29.47,-890.137,82.031,232.422,-23.40,-12.75,-30.90,17.87
12055,-4.16,-13.26,-28.44,674.316,-416.016,153.809,-23.40,-12.75,-30.90,18.21
12065,-9.00,6.97,-33.63,-373.047,-492.187,644.043,-25.50,-14.10,-30.75,17.97
12075,-1.44,-14.67,-23.69,459.473,-896.484,89.844,-24.60,-12.30,-30.90,18.06
12087,7.25,-13.66,-35.23,690.918,-427.734,131.348,-24.75,-14.40,-31.80,17.97
12097,-11.08,-4.50,-42.32,-494.629,294.922,685.059,-24.75,-14.40,-31.80,18.01
12107,8.53,-5.39,-26.21,511.230,-884.766,303.711,-24.75,-14.40,-31.80,18.30
12117,-3.56,-0.37,-36.65,-283.203,-210.937,370.117,-23.55,-14.40,-32.25,18.16
12127,7.31,-5.56,-33.63,594.727,-1167.480,886.230,-23.55,-14.40,-32.25,18.16
12137,-1.84,8.15,-38.40,-338.867,-293.457,1364.258,-21.90,-12.30,-32.25,18.16
12149,-3.40,11.53,-36.15,-640.625,-177.734,1150.391,-22.35,-12.90,-32.25,18.16
12159,0.95,-1.80,-22.10,1088.867,-138.184,696.289,-22.20,-11.55,-32.70,18.16
12169,8.84,13.05,-44.62,-337.402,111.328,1580.566,-22.80,-12.90,-31.80,17.87
12179,5.69,-5.65,-35.46,427.734,-912.598,151.367,-22.80,-12.90,-31.80,17.87
12189,1.08,8.63,-28.90,-222.168,-465.820,1305.664,-22.20,-11.55,-32.40,18.16
12199,11.74,2.29,-35.87,263.184,-428.223,1999.939,-21.45,-13.80,-31.95,17.97
12209,13.79,7.95,-41.52,-433.105,-992.676,1540.527,-22.95,-12.30,-32.70,18.21
12221,5.40,9.41,-47.36,-577.148,-780.273,1999.939,-21.90,-11.55,-32.70,18.21
12231,4.64,-10.44,-33.65,231.445,-760.742,1999.939,-21.90,-11.55,-32.70,18.06
12246,-9.02,-0.10,-34.99,-372.559,-442.383,670.898,-22.95,-11.55,-30.15,18.21
12255,-11.78,-9.18,-36.54,527.832,-887.207,1531.738,-20.85,-10.95,-32.25,18.16
12265,-17.05,3.96,-29.18,-248.535,-244.629,1340.332,-20.85,-10.95,-32.25,18.16
12275,8.12,-8.45,-44.25,368.652,-537.109,1126.465,-21.90,-13.05,-30.90,18.21
12287,-0.81,-8.40,-28.56,602.539,-604.980,844.238,-21.45,-10.35,-30.90,18.30
12297,0.24,8.75,-48.33,-70.313,-238.770,544.434,-21.60,-12.15,-30.75,18.21
12307,16.80,-8.39,-38.77,359.863,-1133.789,249.023,-21.30,-12.45,-31.05,18.21
12317,3.10,2.19,-45.76,-590.332,-544.922,732.422,-21.30,-12.45,-31.05,17.87
12327,1.39,-3.24,-33.17,600.098,-1058.105,-252.930,-20.70,-11.10,-30.15,18.21
12337,2.85,15.03,-43.05,-544.434,-73.242,979.004,-21.90,-12.30,-30.90,18.16
12349,10.66,16.25,-37.19,-461.426,-701.172,1156.738,-21.60,-9.30,-29.10,18.01
12359,5.54,5.79,-44.96,385.254,-543.457,1368.652,-21.90,-10.65,-31.20,18.30
12369,-7.27,16.42,-33.34,-475.586,-403.809,981.934,-22.65,-9.15,-32.40,18.21
12379,13.22,8.12,-37.13,187.988,-542.969,6.348,-21.00,-8.70,-29.70,18.16
12389,10.63,22.79,-52.75,-5.371,-462.402,181.641,-21.00,-8.70,-29.70,18.06
12399,4.75,6.93,-48.80,430.664,-134.766,-192.871,-21.60,-7.35,-31.50,18.16
12409,3.02,9.12,-41.82,491.211,-1312.012,490.234,-22.05,-7.65,-33.00,18.01
12421,-10.67,-5.94,-57.04,159.668,-498.535,1301.758,-20.25,-8.25,-31.20,17.68
12431,-22.98,-7.15,-33.74,-535.156,67.871,1835.938,-21.00,-9.45,-31.95,18.16
12441,2.63,-12.77,-40.50,122.559,-359.375,-11.230,-21.00,-9.45,-31.95,18.21
12451,-5.45,-4.40,-37.38,536.621,-243.164,1209.473,-19.35,-8.10,-33.00,17.87
12461,2.40,-9.83,-53.31,-810.059,34.180,751.953,-19.20,-8.70,-33.90,17.97
12471,8.91,2.16,-23.99,231.445,-656.738,1999.939,-20.25,-6.75,-30.90,18.21
12481,10.53,7.65,-42.51,-1058.105,-528.320,1999.939,-18.60,-6.90,-30.30,17.87
12493,-0.92,14.53,-38.09,-454.102,-421.387,958.984,-19.65,-8.55,-32.55,18.16
12503,8.21,2.60,-42.16,297.363,-800.781,-692.871,-18.75,-5.85,-31.95,18.16
12513,-0.27,9.06,-32.71,415.527,-825.195,490.234,-18.90,-7.35,-31.05,18.01
12523,-9.02,-3.43,-42.02,26.855,-500.977,24.902,-18.90,-7.35,-31.05,18.06
12533,-7.85,4.75,-34.04,486.328,-412.109,144.531,-19.35,-6.90,-31.80,18.49
12543,-2.77,-0.45,-51.63,-47.852,-9.277,-385.742,-19.20,-7.95,-29.70,18.16
12555,-1.98,-3.72,-43.85,-329.102,11.719,590.332,-18.45,-8.70,-30.45,18.16
12565,5.62,-16.31,-40.69,191.406,-555.664,1999.939,-17.40,-7.65,-29.10,18.16
12575,3.24,3.32,-47.45,-129.395,9.766,733.398,-17.40,-7.65,-29.10,18.16
12585,-0.20,-11.19,-37.76,-524.902,-731.445,1791.504,-19.20,-8.70,-29.70,18.01
12595,-5.50,-0.48,-35.21,84.473,-1059.082,-513.672,-18.75,-8.25,-29.70,17.87
12605,-11.48,-4.48,-45.45,-545.898,-321.289,1242.676,-19.20,-7.50,-29.70,18.35
12615,-12.64,-9.01,-37.58,672.363,-518.066,1888.672,-18.60,-8.85,-29.55,18.16
12627,10.57,-3.52,-36.90,-43.457,-357.910,1368.164,-19.65,-8.55,-30.30,18.01
12637,5.04,-0.82,-46.39,295.410,-634.766,1317.383,-19.20,-5.85,-31.20,18.06
12647,3.56,-4.27,-36.11,-584.473,-714.355,631.348,-19.20,-7.95,-30.90,18.16
12657,2.53,-1.19,-50.82,275.879,-789.551,569.336,-19.20,-7.95,-30.90,18.01
12667,8.15,3.23,-36.43,-401.367,-723.145,1230.957,-18.00,-5.85,-31.20,18.06
12677,0.98,-6.69,-43.01,34.180,-536.621,1664.063,-18.45,-5.55,-30.15,18.16
12687,-5.42,4.59,-40.62,272.949,-728.516,682.129,-18.75,-7.95,-30.90,17.87
12699,0.31,2.79,-36.42,262.695,-535.156,1212.891,-18.45,-5.10,-31.95,18.21
12709,-3.38,1.19,-48.66,-190.918,-87.402,1144.531,-17.10,-6.15,-31.05,18.21
12719,13.40,7.17,-44.94,-8.301,-340.820,872.559,-17.40,-6.15,-31.05,18.21
12729,2.50,0.19,-37.99,203.613,-1027.832,1276.855,-17.55,-3.45,-31.65,18.35
12739,-9.40,1.50,-43.38,-107.910,-616.699,707.031,-18.00,-4.35,-29.70,18.16
12749,-14.28,-7.16,-40.11,291.504,-1238.770,132.812,-17.40,-5.25,-31.80,17.87
12766,-15.40,-4.69,-44.86,-604.492,-100.098,1999.939,-17.55,-3.15,-30.90,18.30
12775,12.37,-9.37,-28.63,374.512,330.078,1254.883,-17.55,-3.90,-30.15,18.01
12785,22.66,-15.74,-31.29,373.047,-466.797,-324.219,-17.55,-3.90,-30.15,18.21
12795,8.90,-8.31,-48.52,-1194.336,-655.762,229.980,-16.50,-5.85,-29.40,18.16
12805,12.65,-0.28,-28.76,-1004.395,-630.371,1325.684,-18.15,-2.55,-29.85,18.16
12815,19.44,-1.44,-35.54,437.012,-1597.656,650.391,-18.60,-2.55,-29.10,17.87
12825,0.71,2.63,-45.31,-1127.930,-480.469,1811.035,-17.40,-4.50,-31.05,18.21
12837,-1.23,5.73,-34.08,-445.801,-453.613,963.867,-17.40,-4.50,-31.05,18.01
12847,2.18,0.08,-32.99,-170.898,-405.273,792.969,-16.65,-3.30,-30.75,18.16
12857,0.07,0.06,-40.10,851.562,-743.164,1130.859,-16.50,-4.65,-31.65,18.21
12867,-7.11,3.51,-39.05,-108.398,-322.754,782.715,-16.50,-2.70,-29.70,18.16
12877,12.18,7.81,-33.44,326.660,-287.109,382.324,-16.20,-3.30,-31.05,18.01
12887,0.94,-5.54,-45.54,540.039,-786.621,437.988,-15.90,-3.75,-32.25,18.21
12897,4.86,1.27,-42.90,-742.187,-117.188,890.137,-16.20,-3.75,-31.05,18.16
12909,-4.20,2.66,-33.18,-501.953,-595.703,718.750,-14.70,-2.55,-33.30,18.16
12919,3.36,1.31,-35.24,-166.016,-404.297,1999.939,-14.70,-3.75,-33.30,17.97
12929,5.21,2.71,-31.07,469.238,-731.445,-383.301,-14.10,-1.95,-32.40,18.16
12939,-6.87,-1.54,-55.19,-253.418,-291.504,864.258,-14.10,-1.95,-32.40,18.06
12949,-4.92,-1.71,-43.23,117.188,-684.570,1668.945,-14.70,-4.05,-29.85,18.21
12959,-2.93,1.23,-35.31,-51.270,-534.180,317.871,-14.70,-4.05,-29.85,18.21
12971,10.76,5.44,-47.47,476.074,-795.410,1444.336,-14.70,-2.10,-30.30,18.06
12981,0.39,-2.43,-33.46,22.949,-540.039,1119.141,-14.40,-2.10,-29.55,18.21
12991,1.66,-3.24,-47.89,-382.324,-362.305,758.301,-14.70,-4.05,-30.75,18.01
13001,7.36,2.24,-34.05,318.359,-806.641,758.789,-14.55,-1.50,-31.65,17.82
13011,0.67,-5.40,-48.25,-111.816,-521.973,582.520,-13.95,-0.45,-31.50,18.16
13021,7.92,5.41,-41.68,-354.492,-304.687,1034.668,-13.50,-3.30,-31.80,18.21
13031,10.32,5.26,-34.02,529.785,-861.816,603.516,-15.30,-1.50,-33.15,18.21
13043,9.75,0.25,-39.63,11.719,-893.066,1037.109,-15.30,-1.50,-33.15,17.97
13053,1.64,-1.82,-40.92,-186.523,-506.348,1587.891,-13.95,-1.35,-31.80,18.01
13063,-4.33,0.00,-39.88,-283.203,-645.508,1370.117,-13.05,-1.50,-31.95,18.16
13073,-19.95,-4.18,-35.62,486.328,-689.941,659.180,-13.80,-1.05,-33.45,18.16
13083,-19.15,0.84,-51.79,-288.086,-193.359,676.758,-13.05,-1.05,-31.20,17.87
13093,-8.48,-5.96,-42.55,182.617,-363.770,1296.387,-13.05,-1.05,-31.20,18.21
13103,-4.10,-12.90,-41.11,62.988,-309.082,1570.801,-13.35,-1.05,-31.65,18.21
13115,-3.64,-7.85,-47.40,182.129,20.020,1729.492,-13.20,-0.45,-31.80,18.01
13125,3.00,-6.27,-42.98,38.574,-186.035,555.176,-12.75,-0.90,-31.80,18.16
13135,7.78,-4.26,-30.61,-786.621,-939.453,1545.410,-12.30,-1.05,-31.65,18.01
13145,11.49,-1.90,-49.73,148.926,-1186.035,-43.457,-12.60,-0.30,-31.65,18.30
13155,-5.40,-2.47,-41.69,1.465,-1058.594,795.410,-12.45,-1.35,-31.80,18.21
13165,-7.85,0.79,-40.79,-252.930,-687.500,1215.820,-11.85,-0.75,-31.65,17.87
13177,-4.78,5.63,-38.71,-365.723,-560.547,725.098,-11.85,-0.75,-31.65,17.82
13187,-11.12,7.52,-41.52,-57.129,-294.434,774.414,-10.65,-1.05,-32.40,17.97
13197,3.20,3.34,-38.68,-264.160,-160.645,1424.805,-12.30,-1.50,-34.95,18.30
13207,12.93,0.85,-45.21,43.457,-270.020,848.633,-11.25,-1.65,-34.05,18.01
13217,14.87,0.21,-38.05,250.488,-591.309,1134.766,-12.00,-0.90,-32.55,18.01
13227,17.02,4.92,-40.27,-110.840,-703.125,1021.973,-12.00,-0.90,-32.55,18.30
13237,10.89,5.88,-41.39,-56.641,-498.535,991.211,-11.70,-0.15,-33.75,18.16
13249,1.54,0.40,-37.92,-209.473,-808.105,938.965,-10.95,0.90,-33.30,18.01
13259,-7.31,1.37,-39.33,-236.816,-653.809,736.328,-12.45,-0.15,-33.30,18.16
13269,-12.53,11.02,-36.13,40.039,-273.437,743.652,-11.25,0.15,-34.05,18.21
13284,-2.91,2.87,-40.95,-203.125,-373.047,794.922,-9.00,1.65,-33.75,18.21
13293,-1.16,-4.37,-45.20,73.242,-175.293,1767.090,-9.30,1.65,-34.05,17.97
13303,4.72,3.53,-34.67,-166.504,-588.867,699.707,-9.30,1.65,-34.05,18.21
13313,5.89,-2.68,-38.23,-131.836,-590.820,1521.973,-8.40,1.05,-33.15,18.01
13325,3.34,-5.40,-33.98,-3.418,-674.316,754.395,-10.50,0.45,-32.55,18.06
13335,-0.56,-9.50,-42.67,-184.082,-358.887,1179.199,-9.60,0.75,-32.40,18.01
13345,5.23,-8.13,-42.41,-211.426,-619.629,1006.348,-8.25,0.15,-33.75,18.16
13355,9.92,-11.74,-39.19,82.520,-1089.355,1225.098,-8.25,0.15,-33.75,18.16
13365,2.07,-6.85,-40.00,-472.656,-450.684,729.980,-9.30,1.35,-33.30,18.35
13375,-0.16,1.19,-44.13,-113.281,-705.566,498.047,-8.25,0.90,-34.05,18.06
13385,0.97,-1.40,-46.44,-388.672,-429.687,876.465,-9.00,1.35,-33.75,18.21
13397,12.97,8.31,-42.18,-149.902,-555.664,608.887,-7.65,0.75,-33.90,18.16
13407,11.21,4.19,-35.60,-176.270,-452.637,957.031,-6.60,0.90,-34.50,18.35
13417,4.95,9.24,-41.36,121.582,-545.898,519.043,-7.35,1.65,-33.00,17.87
13427,-5.78,1.11,-34.93,482.422,-876.465,954.102,-7.05,1.65,-34.50,17.97
13437,-11.15,1.51,-35.66,-267.090,-395.508,533.691,-7.05,1.65,-34.50,18.16
13447,-5.08,-3.92,-41.74,143.555,-764.160,828.613,-8.40,1.50,-33.90,18.21
13457,-11.50,2.79,-35.57,-83.496,-93.750,948.730,-7.35,1.35,-33.75,18.21
13469,-5.26,-4.43,-44.27,-304.199,-64.453,1465.820,-7.65,0.75,-33.90,18.21
13479,8.05,0.79,-31.53,-236.816,-212.891,217.285,-8.55,1.65,-33.75,18.21
13489,9.05,0.55,-42.56,-93.750,-740.723,1732.422,-8.55,1.65,-33.75,18.35
13499,2.37,9.82,-47.06,-255.371,-252.930,876.465,-6.45,1.50,-34.20,17.82
13509,3.68,4.61,-41.57,-111.816,-821.777,1135.742,-6.60,0.90,-34.50,18.16
13519,-0.77,-0.61,-42.06,-204.590,-225.098,1750.000,-6.30,0.90,-35.25,18.16
13531,6.38,3.24,-40.38,-86.426,-406.250,1115.723,-6.15,1.50,-34.95,18.35
13541,3.92,7.73,-37.57,-368.164,-578.125,508.789,-5.55,1.35,-34.50,18.21
13551,6.77,-0.82,-36.21,-13.184,-572.266,1540.527,-5.85,1.35,-35.55,18.01
13561,4.21,-5.68,-36.02,-95.703,-772.461,1160.645,-5.85,1.35,-35.55,18.21
13571,-7.58,2.85,-42.34,-201.660,-384.277,1262.207,-5.70,1.95,-34.20,18.06
13581,-0.21,-7.13,-37.18,-71.289,-703.613,1304.199,-4.20,3.15,-34.65,18.01
13591,-2.53,-2.14,-36.85,-239.746,-89.355,1748.535,-3.45,3.15,-34.95,18.01
13603,1.08,-1.91,-35.85,-77.637,-262.207,1151.855,-6.30,3.30,-35.25,17.87
13613,-1.01,-5.50,-37.11,-17.578,-404.785,833.008,-6.30,3.30,-35.25,18.16
13623,0.18,-3.50,-43.27,-55.176,-741.211,1729.004,-4.20,1.50,-36.15,18.30
13633,-6.30,-7.34,-38.51,71.777,-326.172,733.887,-4.35,2.85,-37.50,18.21
13643,-4.89,-10.81,-39.48,-242.187,-402.832,1690.918,-1.50,1.95,-37.35,18.35
13653,2.08,-9.15,-36.99,12.207,-351.562,644.043,-0.90,2.55,-36.30,18.21
13663,0.86,-9.96,-43.05,-9.277,-427.246,1625.488,-0.90,2.85,-35.55,17.82
13675,1.13,-8.05,-32.79,-202.637,-77.637,1274.414,-1.05,2.70,-33.90,17.97
13685,8.09,1.66,-40.27,-123.047,-52.734,622.559,-1.65,2.55,-32.55,18.01
13695,-0.60,-3.51,-34.43,-176.758,-456.543,1124.023,-1.65,2.55,-32.55,18.16
13705,4.08,3.55,-37.80,-82.031,-346.680,527.832,-2.10,2.85,-33.30,18.21
13715,-9.94,-0.53,-36.27,-364.746,-965.820,1242.676,-2.55,3.15,-34.20,18.16
13725,-10.08,6.09,-37.65,-158.203,-665.039,809.082,-3.15,2.10,-34.50,18.16
13735,-2.33,7.47,-41.16,-27.344,-484.375,1903.809,-2.85,2.10,-33.00,18.01
13747,-5.95,7.66,-52.49,2.930,-596.191,574.219,-2.85,2.10,-33.00,18.21
13757,-0.19,2.66,-39.70,-23.926,-306.152,1064.941,-0.90,2.85,-34.05,18.01
13767,10.91,-4.65,-43.56,-366.211,-368.652,1723.145,-2.40,2.55,-33.75,17.82
13777,16.15,5.01,-40.23,-413.086,-585.449,808.105,-1.80,1.50,-32.40,18.30
13787,6.50,0.40,-47.10,63.477,-603.516,1270.996,-1.80,1.95,-33.45,18.21
13803,-9.63,2.28,-48.71,68.359,-920.410,1226.074,-1.80,3.90,-34.20,18.35
13813,-14.24,-3.98,-46.81,-27.832,-1042.969,567.383,-1.50,2.70,-34.20,18.21
13823,-21.37,10.45,-44.13,-43.945,-318.359,1059.570,-1.50,2.70,-34.20,18.21
13833,-14.48,6.50,-43.32,-45.410,-207.520,542.480,-0.90,2.55,-33.30,17.97
13843,-7.25,9.97,-53.15,-330.566,-140.625,558.594,0.00,1.95,-32.40,18.06
13853,-1.40,1.77,-45.27,-212.402,-25.391,1452.637,0.30,2.25,-32.40,18.16
13863,-9.73,1.82,-46.32,15.137,-734.863,1229.980,-0.15,1.65,-33.75,18.16
13875,-9.73,-4.80,-50.94,-45.410,-908.691,1488.281,-0.15,1.65,-33.75,18.16
13885,-18.63,-3.19,-46.79,-104.980,-100.586,1604.980,1.20,0.90,-33.30,18.06
13895,-19.50,-4.27,-37.99,178.711,-36.133,1438.477,1.05,1.05,-33.45,18.49
13905,-9.57,-3.08,-46.89,2.441,43.457,1815.918,1.05,1.95,-32.70,18.35
13915,3.50,-10.97,-36.69,-4.395,46.875,1651.855,0.90,0.90,-34.05,18.21
13925,38.02,-19.90,-57.50,-16.602,-1311.035,1999.939,0.45,0.90,-32.55,18.21
13935,33.63,0.02,-27.99,-745.605,-1079.102,1183.594,0.90,1.35,-31.80,17.97
13947,16.07,-12.37,-42.70,-17.090,-516.602,442.871,1.05,1.05,-32.70,18.21
13957,9.25,-18.60,-47.15,136.719,-683.105,413.574,1.05,1.05,-32.70,17.97
13967,-0.86,-22.66,-45.63,106.445,-1122.070,1249.023,1.65,3.30,-34.05,18.30
13977,-22.80,-26.94,-41.69,-156.738,-394.531,962.402,1.50,2.70,-33.90,18.06
13987,-8.19,-27.66,-46.37,65.430,-331.055,1159.180,-0.90,1.35,-32.55,18.21
13997,-2.74,-26.56,-49.56,147.949,-977.051,1121.094,0.00,0.30,-32.70,18.01
14007,-7.99,-40.02,-41.87,-71.289,-783.691,1479.004,0.00,0.30,-32.70,18.01
14019,-10.48,-30.85,-35.27,154.785,-1253.906,664.551,-0.30,1.50,-33.15,17.87
14029,-18.24,-28.42,-44.33,-207.520,-458.984,656.250,1.20,0.45,-33.30,18.16
14039,-26.28,-31.98,-53.27,-68.848,-482.422,1924.805,1.50,1.95,-32.40,18.21
14049,-12.77,-18.30,-45.95,-164.551,-750.488,1414.551,1.05,1.50,-32.70,18.01
14059,-26.30,-12.47,-42.60,-491.699,-753.418,678.711,1.05,1.50,-32.70,18.16
14069,-15.53,-13.55,-44.05,52.246,-214.355,373.535,-0.30,1.50,-34.20,18.21
14079,5.86,-3.23,-41.94,-1104.980,124.023,1999.939,0.45,0.45,-32.25,18.01
14091,12.02,15.71,-46.40,-4.395,-602.539,910.645,0.45,0.45,-32.25,18.06
14101,6.02,13.50,-48.82,-489.746,-177.734,1837.891,0.45,2.55,-32.55,17.87
14110,4.86,22.80,-48.04,-144.043,-613.770,372.070,1.05,1.50,-33.45,18.21
14120,7.05,31.06,-55.61,-166.504,-635.742,827.637,0.45,0.45,-34.80,18.30
14129,6.01,28.27,-56.93,-16.602,-387.207,738.770,2.10,1.65,-34.80,18.21
14139,-5.73,12.07,-49.66,355.469,-1082.520,1019.043,2.10,1.65,-34.80,18.06
14151,-14.15,10.59,-44.19,-218.750,-422.363,893.555,2.55,1.95,-35.70,17.87
14161,14.51,10.50,-48.47,104.980,-26.855,1786.133,2.10,1.65,-33.75,18.06
14171,14.98,10.85,-56.27,154.297,-584.961,1825.195,2.55,0.75,-34.65,18.40
14180,-8.93,5.11,-52.92,-508.301,73.730,714.355,3.00,2.25,-34.65,18.16
14190,7.49,6.96,-52.41,-55.176,-945.312,745.605,3.00,2.25,-34.65,18.16
14199,4.94,-0.74,-51.45,40.527,-452.148,1012.207,4.35,0.45,-35.25,17.87
14209,-1.71,3.63,-56.05,360.840,-654.785,657.715,3.60,2.55,-33.00,18.40
14221,-2.44,-2.16,-53.73,56.152,-521.973,-220.215,3.60,2.55,-33.00,18.16
14231,-6.51,1.50,-57.22,-729.492,-295.898,1517.578,3.00,1.50,-34.65,18.30
14241,0.31,-1.27,-61.19,146.484,-797.363,430.664,5.10,3.30,-35.25,18.30
14250,-2.59,3.13,-54.02,-132.812,-737.305,470.703,4.95,-0.30,-33.45,18.16
14260,1.85,-0.96,-53.34,-292.969,-872.070,1917.969,5.55,1.35,-34.05,17.87
14270,3.62,4.81,-50.23,41.016,-328.125,555.664,5.55,1.35,-34.05,18.21
14280,7.76,8.50,-44.05,-124.023,-763.184,990.723,4.80,0.15,-34.80,18.16
14291,3.21,-0.23,-47.65,-40.039,-581.543,171.875,4.80,1.35,-35.55,18.16
14301,-1.17,6.14,-46.16,-36.133,-996.094,508.789,6.15,0.30,-34.20,18.06
14315,3.82,-3.67,-44.53,-324.219,-584.961,1197.266,7.35,0.15,-34.50,17.87
14325,3.50,0.57,-54.24,-119.629,-449.707,718.750,6.60,-0.15,-34.05,17.82
14335,9.40,4.47,-56.05,291.504,-816.895,1159.180,7.80,0.15,-34.50,18.16
14344,7.03,1.45,-52.22,-52.734,-978.516,667.969,7.80,0.15,-34.50,18.16
14354,4.08,-5.06,-46.13,179.687,-563.965,1884.277,7.35,-0.45,-35.25,18.06
14364,6.35,3.02,-48.77,-412.598,-362.305,953.125,7.05,0.90,-36.00,17.87
14376,8.31,-0.36,-55.60,10.742,-914.062,478.516,7.65,0.00,-33.90,18.21
14386,-2.14,4.95,-50.79,-33.203,-580.566,785.156,6.90,0.30,-33.90,17.87
14396,-1.32,2.01,-51.81,-275.879,-975.098,1305.176,6.90,0.30,-33.90,17.87
14406,-2.15,4.91,-37.95,136.230,-623.047,365.723,7.80,0.15,-33.75,18.16
14415,-5.49,4.16,-48.40,-119.141,-339.844,516.113,8.70,-0.75,-33.90,18.16
14425,-3.64,7.67,-49.82,-449.219,-903.809,1402.832,9.30,1.35,-34.05,18.16
14435,3.45,0.79,-52.27,-112.305,-186.523,1119.141,8.40,-0.75,-33.45,17.82
14447,3.24,4.79,-48.70,-195.801,-565.918,1279.785,8.40,-0.75,-33.45,18.30
14457,4.27,5.71,-42.71,150.879,-957.031,34.668,9.60,-1.05,-34.95,17.97
14466,3.52,-2.33,-67.34,162.598,-922.363,934.570,9.15,0.00,-33.45,18.40
14476,-2.98,0.48,-48.79,-727.539,-607.910,1288.574,9.15,0.00,-33.45,18.06
14486,0.28,-2.27,-45.26,183.105,-824.707,218.262,9.60,-0.75,-33.90,18.21
14496,4.41,4.98,-55.59,-85.938,-833.984,1118.164,9.75,0.90,-35.55,18.16
14505,-6.50,-1.49,-52.70,-175.293,-229.004,1715.332,10.95,0.45,-34.50,18.21
14517,12.34,4.31,-51.75,91.309,-864.258,1126.465,10.65,-0.75,-35.70,17.87
14527,4.85,-5.82,-54.83,-724.609,-687.012,1999.939,10.65,-0.75,-35.70,18.16
14537,5.51,-3.02,-54.60,218.262,-872.070,-241.211,10.50,0.15,-33.75,18.06
14547,5.23,-4.81,-41.88,-712.402,80.078,1999.939,12.75,-2.55,-33.75,18.21
14557,9.11,-3.95,-38.44,-179.199,-1453.125,1999.939,11.70,0.45,-35.25,18.21
14567,-10.24,-6.26,-61.47,88.379,-509.277,154.785,11.10,0.30,-33.90,17.87
14579,1.36,-2.98,-51.34,257.812,-293.457,-195.801,11.10,0.30,-33.90,17.97
14589,5.89,-6.78,-57.69,525.879,-184.570,1126.953,12.30,-0.75,-34.95,18.35
14599,-2.82,-7.76,-50.86,-834.961,-93.262,1636.230,13.05,-1.95,-33.90,17.87
14609,3.03,-8.91,-44.34,429.199,-664.551,416.016,13.05,-1.95,-33.90,18.01
14619,-4.50,8.05,-48.19,-34.180,-589.355,204.590,11.25,0.15,-34.80,17.97
14629,-6.30,-7.82,-50.08,-642.090,-639.160,1999.939,12.45,-1.65,-34.05,18.16
14639,-7.68,-7.27,-49.26,103.516,-638.184,695.312,11.10,-0.75,-35.70,18.30
14651,0.51,3.36,-46.80,-254.395,-883.301,442.871,14.40,-1.65,-34.50,18.21
14661,3.95,3.89,-48.62,-215.820,-894.043,1173.828,14.40,-1.65,-34.50,18.40
14671,-5.95,-2.29,-50.28,-413.086,-479.492,1498.535,13.80,-1.50,-34.20,18.16
14681,-0.11,1.50,-52.57,-56.641,-570.801,915.527,13.95,-1.35,-36.00,17.87
14691,7.28,5.85,-46.37,-272.949,-321.289,949.219,13.35,-1.50,-34.65,18.16
14701,5.24,-0.18,-42.76,-5.859,-554.687,1141.602,15.15,-0.90,-35.25,18.16
14711,7.35,1.58,-53.25,143.066,-701.172,451.660,15.15,-0.90,-35.25,18.06
14723,4.14,1.77,-42.46,4.883,-817.871,219.727,14.40,-0.90,-34.05,18.16
14733,7.87,5.72,-52.31,36.621,-536.133,1014.160,14.40,-0.90,-34.05,18.06
14743,-8.66,-1.56,-62.02,-451.172,-714.844,1999.939,14.40,-0.90,-34.05,18.06
14753,-3.47,0.30,-48.34,353.516,-711.914,-343.262,15.75,-2.25,-35.40,18.16
14763,2.18,4.15,-51.24,-625.000,-741.699,622.559,15.75,-2.25,-35.40,17.82
14773,0.53,-1.66,-51.77,239.746,-647.949,671.387,14.40,-1.95,-35.40,18.35
14783,-0.87,9.66,-47.72,834.473,-589.844,1401.855,14.40,-0.45,-34.80,18.16
14795,-13.20,3.02,-50.71,316.895,-1188.477,-162.109,15.15,-2.85,-35.55,18.40
14805,-2.21,2.98,-49.40,-600.098,-987.305,507.812,15.90,-2.85,-34.80,18.21
14815,-4.14,1.99,-49.45,-92.285,-405.273,1999.939,16.05,-5.10,-35.40,18.16
14829,5.45,1.01,-46.79,196.777,-447.266,118.164,16.65,-4.50,-36.30,18.06
14839,-3.56,-4.02,-55.11,-785.645,-746.094,-314.453,16.65,-4.50,-36.30,18.30
14849,10.05,3.00,-54.15,137.207,-945.312,616.699,17.10,-4.50,-35.25,18.30
14858,1.50,-4.36,-51.29,-18.555,-904.297,424.316,15.75,-3.45,-35.70,18.01
14871,7.88,2.81,-52.09,81.543,-879.395,519.043,15.75,-3.45,-35.70,18.06
14881,-6.15,-10.89,-56.35,-321.289,-801.758,1999.939,17.10,-5.25,-35.55,18.30
14891,-0.42,-0.46,-58.43,470.215,-637.207,264.648,16.80,-4.65,-36.90,17.97
14901,-10.31,1.25,-48.95,-62.012,-181.152,1485.840,18.45,-5.85,-34.95,18.06
14911,-7.82,-3.92,-41.64,152.344,-322.754,454.102,16.20,-6.45,-36.00,17.87
14921,12.81,8.79,-48.24,-162.109,-598.633,1049.805,16.20,-6.45,-36.00,17.87
14931,-1.53,3.40,-48.50,-586.914,-83.984,471.680,17.85,-4.95,-34.05,18.21
14943,-0.36,7.62,-53.88,-317.871,-320.312,704.590,17.85,-5.25,-37.50,18.16
14953,-3.37,-2.45,-49.89,1.465,-762.695,1350.586,19.50,-3.15,-34.95,18.06
14963,4.83,11.70,-50.61,352.051,-738.770,1636.230,18.60,-6.15,-36.00,18.35
14973,-4.28,4.07,-56.89,-921.875,-699.707,458.496,18.60,-6.15,-36.00,18.06
14983,-4.96,-0.09,-47.82,689.941,-792.480,-99.121,18.90,-4.50,-36.00,18.06
14993,1.66,15.52,-55.73,-253.906,-525.879,1921.387,17.85,-6.45,-35.55,17.87
15005,0.40,5.82,-47.80,-141.113,-1136.719,570.801,19.35,-6.45,-36.00,18.16
15015,-4.98,7.15,-65.06,-660.156,118.164,1646.484,19.50,-5.55,-37.65,17.97
15025,-0.07,0.30,-53.30,359.863,-851.562,21.484,19.95,-5.55,-36.60,18.01
15035,0.45,-0.36,-53.95,-120.605,-330.566,1061.035,18.00,-7.05,-35.70,18.06
15045,-7.92,-13.02,-50.75,-450.195,-404.785,1999.939,18.00,-7.05,-35.70,18.30
15055,6.27,-8.66,-52.92,311.035,-1029.785,-348.145,20.10,-6.15,-36.30,18.06
15065,-0.30,-1.35,-54.94,-450.195,-991.211,208.496,19.50,-7.50,-37.65,18.16
15077,1.26,-4.08,-51.05,-245.117,-620.605,814.453,19.50,-7.05,-37.65,18.35
15087,-11.78,-14.10,-65.62,162.109,-145.996,1827.637,20.10,-8.10,-36.00,18.16
15097,0.19,-11.00,-44.76,-134.277,-758.789,476.074,20.10,-8.10,-36.00,18.01
15107,-19.16,-4.40,-48.89,-860.840,201.660,950.684,21.30,-6.45,-36.75,18.06
15117,3.15,-6.17,-51.63,861.328,-682.617,-812.012,20.85,-6.90,-34.80,18.21
15127,-4.60,-3.34,-44.15,-616.699,260.254,1088.867,20.85,-6.90,-34.80,18.01
15137,7.10,-4.57,-53.52,-53.711,-368.164,1606.445,20.10,-6.45,-37.05,18.21
15149,20.78,1.32,-40.14,-308.594,-780.273,1999.939,21.30,-9.75,-36.30,18.06
15159,7.90,-0.60,-49.59,567.871,-920.410,330.566,20.10,-10.05,-36.75,18.35
15169,4.23,7.85,-35.27,-704.102,-482.422,434.082,20.25,-6.75,-37.65,17.97
15179,10.52,-4.23,-54.47,772.461,-1069.336,784.180,20.25,-6.75,-37.65,18.06
15189,-1.49,9.50,-52.95,-203.125,-542.969,630.371,21.45,-8.25,-36.90,18.35
15199,4.23,-5.57,-44.76,-336.914,-888.184,1999.939,21.90,-8.25,-37.35,17.97
15211,-21.27,-3.16,-48.28,-585.449,-41.504,1673.340,21.30,-9.75,-36.75,18.21
15221,-1.53,-0.78,-43.20,502.441,-260.742,-549.805,20.70,-10.35,-36.90,18.16
15231,5.76,15.42,-55.44,-273.437,-585.937,294.922,20.70,-10.35,-36.90,18.16
15241,0.91,0.89,-59.41,666.016,-1152.344,1999.939,22.35,-11.25,-36.75,18.16
15251,-1.68,5.46,-53.74,64.453,-286.621,915.527,21.00,-9.45,-36.60,17.82
15261,-10.82,3.85,-51.12,-419.922,-462.402,1917.480,22.05,-10.05,-36.30,18.01
15271,-0.55,3.21,-53.60,536.621,-763.672,460.449,21.00,-11.10,-36.15,18.06
15283,-0.65,-6.29,-50.52,446.289,-864.258,436.035,21.60,-10.05,-39.00,17.97
15293,-11.66,6.94,-47.82,-424.805,-62.988,697.754,22.20,-11.85,-36.90,18.21
15303,-7.59,-3.85,-59.66,417.480,-600.098,1044.434,21.00,-11.55,-37.35,18.16
15313,-1.09,10.08,-46.02,-293.945,-357.422,1325.684,21.00,-11.55,-37.35,18.16
15323,1.02,0.68,-60.78,-777.344,-590.332,1226.074,23.40,-13.80,-37.65,18.16
15333,5.60,6.98,-41.35,-78.613,-429.199,-116.211,22.05,-11.70,-38.55,18.16
15357,1.10,1.18,-41.85,-162.109,-434.082,1937.988,22.80,-12.45,-36.75,18.30
15366,3.57,11.89,-46.37,-231.445,-356.445,236.816,22.80,-12.45,-37.50,18.16
15376,6.80,5.36,-52.40,-60.059,-705.566,1999.939,24.60,-13.50,-38.10,17.97
15386,-0.03,7.11,-43.04,389.160,-920.898,-34.668,21.90,-13.50,-39.15,18.16
15396,-26.66,1.81,-62.76,-554.687,-244.141,211.914,23.25,-12.45,-38.55,18.21
15406,0.68,4.03,-49.45,83.984,-778.809,451.660,23.25,-12.45,-38.55,18.30
15415,-28.50,-1.25,-56.26,-729.492,-72.266,280.762,24.90,-14.25,-38.85,18.21
15427,-2.73,-4.40,-53.31,766.602,-1108.398,1999.939,22.20,-13.05,-39.15,18.01
15437,-14.83,-0.37,-49.76,-275.879,-226.074,415.039,22.20,-13.05,-39.15,17.97
15447,1.10,-8.02,-57.94,50.293,-850.098,1838.867,24.15,-15.90,-38.10,17.77
15457,-4.78,-14.55,-43.33,-1063.965,-344.238,1485.840,22.65,-13.80,-39.60,18.06
15467,4.68,-4.49,-51.56,260.254,-822.754,-6.348,23.55,-14.10,-37.50,18.30
15477,-17.59,-3.31,-30.12,-390.137,-103.516,481.445,23.70,-15.45,-37.35,18.21
15487,7.91,-0.34,-35.44,-3.418,-726.562,-959.961,23.70,-15.45,-37.35,18.21
15499,14.01,-3.04,-39.04,279.297,-872.070,-603.516,24.60,-15.45,-37.65,18.35
15509,-0.69,17.12,-46.78,-230.957,-752.930,-48.340,23.55,-17.25,-38.25,18.21
15519,7.22,-2.63,-43.12,454.590,-1386.719,-825.684,24.15,-14.70,-40.65,18.21
15529,3.57,11.73,-55.36,-775.391,-647.949,1307.129,24.15,-15.90,-37.35,17.77
15539,0.76,1.85,-47.21,1037.109,-891.602,496.582,24.15,-15.90,-37.35,18.21
15549,1.34,9.23,-45.32,-224.609,-5.859,1229.980,24.30,-15.60,-40.05,18.06
15561,2.58,11.22,-40.72,-360.352,-680.664,393.555,24.15,-16.20,-38.40,18.49
15571,-8.15,-3.92,-37.67,888.672,-116.211,1160.156,24.15,-16.20,-38.40,18.30
15581,-11.79,12.39,-37.64,-181.152,43.457,208.496,23.40,-15.45,-39.60,18.21
15591,7.78,-10.40,-39.76,436.523,-612.793,-703.613,24.30,-16.80,-37.80,18.06
15601,-14.69,-2.91,-30.98,-441.895,-169.922,18.555,23.40,-19.05,-38.10,17.97
15611,6.21,-10.84,-42.89,194.336,-766.602,-378.418,23.40,-17.10,-38.85,17.97
15621,-11.91,-2.31,-40.05,-428.711,-348.633,252.441,23.40,-17.10,-38.85,18.06
15633,-6.47,-7.40,-52.11,-483.887,-155.762,1877.441,24.60,-18.30,-37.65,18.16
15643,2.15,-10.98,-36.28,-48.340,-1066.406,865.723,23.70,-19.50,-39.60,18.21
15653,-7.51,-6.70,-47.18,-439.453,-732.910,1999.939,24.90,-17.10,-38.85,18.16
15663,-3.03,3.42,-33.19,16.113,-359.375,440.430,24.00,-20.10,-39.00,18.16
15673,4.03,-1.03,-39.73,-52.246,-920.898,1702.148,24.00,-20.10,-39.00,18.21
15683,3.49,9.00,-45.19,-116.211,-283.691,-23.437,24.60,-19.05,-39.60,18.01
15693,-8.18,1.79,-47.56,-68.359,56.152,351.074,24.75,-20.40,-38.55,18.06
15705,-6.82,0.92,-40.56,-32.227,-543.945,1321.777,24.75,-20.40,-38.55,18.16
15715,5.01,3.14,-49.52,-372.070,-273.926,174.316,23.40,-19.05,-39.60,17.97
15725,-4.63,-6.21,-40.61,174.316,-1025.879,1465.820,24.75,-20.85,-38.25,18.16
15735,-7.50,10.99,-48.48,-468.262,-275.879,816.895,23.55,-20.10,-39.00,18.21
15745,-0.31,-4.18,-45.36,829.590,-1132.324,1847.656,24.15,-18.60,-39.15,18.30
15755,-10.80,12.10,-42.42,-371.094,-380.859,1171.387,24.15,-18.60,-39.15,18.01
15767,-10.65,15.76,-42.69,-238.770,-416.992,981.445,24.75,-19.65,-39.30,17.97
15777,11.83,-3.08,-32.12,1.953,-510.742,166.016,24.30,-22.50,-37.80,18.21
15787,-8.20,1.17,-45.18,199.707,-728.027,240.723,22.95,-21.00,-39.90,18.06
15797,-0.14,5.86,-41.11,-102.539,-201.172,48.828,22.95,-21.00,-39.90,17.87
15807,-12.39,6.28,-34.66,453.613,-801.270,1756.836,23.55,-21.30,-39.75,18.21
15817,0.24,9.89,-38.80,-565.918,-143.066,956.055,24.90,-21.45,-39.15,18.01
15827,0.34,6.77,-38.34,257.324,-1061.523,1358.887,24.90,-21.45,-39.15,17.97
15839,6.07,6.85,-49.20,100.586,-986.328,1101.563,24.60,-20.70,-38.10,18.16
15849,-4.02,16.78,-45.32,-99.121,-771.973,1235.352,24.60,-23.40,-38.40,18.21
15859,9.11,-0.33,-32.89,-250.488,-510.254,633.301,22.65,-20.25,-39.60,18.16
15874,8.14,0.37,-43.31,265.625,-1012.695,935.059,25.05,-20.10,-38.25,18.30
15884,-5.96,5.50,-46.40,265.137,-209.473,939.941,25.05,-20.10,-38.25,18.16
15894,-10.50,0.24,-55.27,62.500,-817.383,525.391,24.75,-22.80,-40.05,18.16
15904,8.37,-0.47,-39.51,-382.324,-718.262,1194.824,23.40,-22.20,-39.60,18.16
15916,-25.82,0.82,-43.02,479.980,-347.168,840.820,23.25,-24.45,-39.75,18.16
15926,-11.76,-4.85,-54.35,298.340,-138.672,642.578,23.25,-24.45,-39.75,18.21
15936,2.56,2.79,-42.31,249.512,11.230,1014.160,23.25,-24.45,-39.75,18.21
15946,0.08,-0.27,-47.53,166.992,-760.742,927.246,24.00,-24.00,-40.05,18.21
15956,-9.05,-6.95,-42.43,-469.238,-918.945,1140.625,24.00,-24.00,-40.05,17.97
15966,-5.40,-5.47,-51.40,-593.262,-565.430,1853.027,23.25,-24.00,-40.05,18.16
15980,-5.60,-0.23,-41.02,403.320,-932.617,718.262,24.15,-23.40,-39.90,18.21
15990,-8.73,-1.07,-41.82,-128.418,-535.645,1767.578,24.00,-26.40,-39.00,18.06
16000,0.42,7.26,-38.47,-212.891,-513.184,959.961,23.25,-25.65,-40.80,17.87
16010,5.43,2.05,-38.68,290.039,-968.750,1783.691,23.25,-25.65,-40.80,18.21
16020,0.80,-0.69,-41.64,-407.227,-564.453,1679.688,23.55,-25.65,-39.30,18.35
16030,-2.63,1.19,-41.88,6.836,-789.062,851.562,23.25,-25.20,-40.80,18.06
16040,-3.97,-0.24,-52.39,136.719,-772.461,861.816,24.15,-24.60,-40.65,18.21
16052,-3.68,-2.25,-45.75,-63.477,-843.262,1250.977,22.65,-25.80,-40.35,18.01
16062,-2.88,-0.47,-45.00,-795.898,-648.437,825.684,22.65,-25.80,-40.35,18.30
16072,-1.53,1.49,-48.21,287.109,-117.188,730.957,23.25,-24.90,-39.75,18.21
16082,7.59,-2.34,-42.61,419.434,-949.219,705.078,23.40,-25.50,-40.35,18.06
16092,-5.40,-9.51,-39.72,-327.637,-623.047,1260.742,23.40,-25.50,-40.35,18.06
16102,-8.00,-7.33,-48.91,337.402,-269.531,1619.629,22.65,-26.25,-41.10,18.21
16112,6.99,-14.77,-49.21,269.043,-978.516,246.094,22.20,-25.50,-41.10,18.01
16124,4.48,-4.22,-41.39,749.023,-816.406,819.824,22.95,-26.55,-39.60,18.01
16134,3.08,-4.59,-44.86,-123.535,-419.922,1159.668,22.95,-27.00,-40.35,18.06
16144,5.72,-1.31,-44.53,-550.781,-744.629,1662.109,22.95,-27.00,-40.35,18.01
16154,6.79,-7.52,-32.12,520.996,-678.223,556.641,22.35,-26.85,-40.05,18.16
16164,0.20,2.95,-37.92,-386.719,-666.992,1006.836,22.20,-28.20,-39.60,17.87
16174,-4.99,6.63,-44.38,-493.164,-385.742,173.828,22.80,-28.80,-40.50,18.35
16186,-11.31,1.19,-41.95,-400.879,-251.953,1636.230,21.30,-25.65,-40.05,17.82
16196,-6.38,10.40,-50.05,296.387,-572.754,718.262,21.30,-25.65,-40.05,18.35
16206,-0.21,0.65,-39.82,5.859,-607.910,1037.109,22.20,-27.75,-40.35,18.01
16216,-2.76,1.74,-44.24,-308.105,-380.371,1285.645,22.65,-27.75,-41.10,18.21
16226,3.16,1.68,-43.30,-3.418,-599.609,431.152,22.65,-27.75,-41.10,18.30
16236,9.83,-2.73,-38.13,143.066,-916.016,1125.488,21.45,-29.85,-39.90,18.06
16246,-6.86,-4.05,-52.95,-484.863,-28.809,1816.406,21.60,-28.05,-40.80,17.87
16258,-1.15,-2.04,-38.87,-188.965,-983.887,1766.113,22.80,-29.55,-40.80,17.87
16268,3.80,-0.44,-38.06,85.938,-709.473,1999.939,22.80,-29.55,-40.80,17.87
16278,-0.67,-2.38,-37.78,81.055,-956.543,1380.859,21.90,-27.75,-41.85,18.06
16288,-4.53,-4.08,-47.33,-380.371,-490.234,1259.277,20.25,-28.95,-40.35,18.35
16298,5.98,-0.59,-47.51,220.215,-235.840,1000.977,20.10,-29.25,-40.05,18.16
16308,22.50,-9.56,-36.66,363.281,-937.988,1362.305,21.90,-29.40,-41.85,18.01
16318,4.06,5.77,-37.64,143.066,-1106.445,954.590,21.90,-29.40,-41.85,18.06
16330,-6.24,-4.18,-32.57,225.586,-1185.547,95.703,21.30,-30.75,-40.05,18.30
16340,-8.40,-5.23,-48.46,-437.012,-699.219,633.789,20.55,-30.75,-40.05,18.06
16350,-3.47,-1.20,-34.07,-6.836,275.391,1897.949,20.55,-30.75,-40.05,17.97
16360,1.80,-4.69,-54.82,347.656,-251.465,748.535,20.70,-30.15,-41.10,18.06
16370,14.66,-1.78,-34.80,27.832,-888.672,554.687,20.25,-30.60,-40.65,18.21
16380,6.20,1.34,-37.85,-597.656,-744.629,1851.074,21.90,-31.35,-40.35,18.16
16396,1.04,-5.66,-40.22,308.105,-916.016,839.355,20.55,-30.00,-41.25,18.21
16406,-9.71,5.79,-33.58,-560.547,-91.797,1511.230,20.55,-30.00,-41.25,18.16
16416,5.94,-5.53,-36.18,791.504,-466.797,1116.211,20.10,-32.85,-39.75,17.87
16426,-0.16,1.22,-37.47,-298.340,-877.930,1788.086,19.35,-30.75,-40.50,18.30
16436,5.44,3.66,-51.37,-256.348,-588.867,1550.293,18.90,-30.00,-40.50,18.16
16446,15.26,-2.76,-28.83,743.652,-945.312,1190.918,19.95,-31.05,-39.15,18.35
16456,6.95,-1.59,-49.82,275.391,-899.414,881.836,19.95,-31.05,-39.15,18.35
16468,24.27,-7.55,-22.56,222.656,-927.734,1249.023,19.35,-31.95,-41.55,18.01
16478,-1.60,3.29,-37.35,-297.852,-436.035,962.891,19.35,-31.95,-41.55,18.06
16488,-3.11,1.98,-35.73,-180.176,-723.145,895.020,20.55,-32.40,-39.00,18.30
16498,1.51,-1.59,-31.44,735.352,-1035.645,740.723,18.75,-32.25,-41.10,17.77
16508,-5.38,-1.05,-35.14,-219.238,-832.031,949.707,18.15,-33.15,-39.00,18.16
16518,-12.92,-3.30,-37.95,-530.762,-301.758,1055.664,18.45,-33.45,-39.60,18.16
16528,12.64,-2.18,-40.05,302.734,-555.664,916.992,18.45,-33.45,-39.60,18.21
16539,5.90,3.88,-26.85,101.563,-410.156,269.531,19.65,-31.65,-39.30,18.21
16549,12.15,-5.08,-47.08,167.480,-1072.754,1078.613,17.25,-33.75,-39.90,18.16
16559,-9.92,0.61,-35.86,-252.441,-666.992,1277.344,19.20,-33.75,-41.40,18.16
16569,-6.21,-4.55,-31.66,-332.520,-399.414,925.781,19.20,-32.25,-39.60,18.01
16579,7.83,-2.19,-46.45,656.250,-791.992,734.863,19.20,-32.25,-39.60,18.35
16589,-10.21,-8.92,-38.02,-233.398,-1014.160,1567.871,18.60,-34.35,-39.30,18.16
16601,15.06,1.60,-38.46,642.578,-1190.918,1062.988,17.55,-32.25,-40.65,18.40
16611,-0.15,-2.98,-47.92,-801.758,-720.703,1999.939,17.55,-32.25,-40.65,18.35
16621,-1.79,9.30,-43.41,-225.586,32.227,916.504,17.85,-34.05,-39.30,18.16
16631,11.64,-1.18,-41.92,627.441,-307.617,717.773,18.45,-33.45,-41.10,18.16
16641,0.92,-4.93,-37.26,81.055,-979.980,1899.902,18.60,-31.65,-40.50,18.01
16651,-19.55,0.33,-37.42,-378.418,-427.734,874.512,16.65,-33.60,-39.75,18.01
16661,3.73,-3.02,-33.64,-185.059,374.023,1611.328,16.65,-33.60,-39.75,18.01
16673,-19.99,-6.75,-38.96,-445.801,-353.516,70.313,16.65,-33.15,-40.05,18.01
16683,-8.40,-5.77,-45.94,9.277,720.215,1698.730,17.25,-31.80,-39.60,18.30
16693,9.30,-7.92,-24.41,-149.414,-121.094,101.074,17.40,-34.80,-40.05,18.35
16703,19.99,-6.02,-27.66,307.617,-1326.660,1999.939,17.85,-34.05,-39.30,18.21
16713,0.54,-4.03,-44.64,-155.762,-139.160,1943.359,17.85,-34.05,-39.30,18.16
16723,3.59,2.17,-41.50,-686.035,-329.102,850.098,17.40,-33.15,-38.55,18.16
16733,14.63,-5.63,-36.13,265.137,-1299.316,1229.492,17.25,-34.65,-38.40,17.97
16745,-6.40,1.96,-46.19,-322.266,-466.797,1487.305,17.25,-34.65,-38.40,17.97
16755,13.81,-4.50,-37.82,214.355,-1170.410,578.613,16.50,-34.95,-38.85,17.97
16765,1.90,1.45,-35.38,-92.773,-618.652,1047.363,17.10,-34.05,-38.55,18.21
16775,-5.63,7.71,-28.91,-529.297,-206.055,944.336,16.65,-35.55,-38.55,18.01
16785,0.84,9.89,-43.46,130.859,-7.812,846.191,15.75,-34.95,-40.35,18.06
16795,2.99,-2.52,-32.03,1.465,-750.000,211.426,15.75,-34.95,-40.35,18.01
16807,-6.82,2.47,-29.69,-44.922,194.824,1999.939,16.80,-34.65,-39.15,18.21
16817,11.12,0.46,-45.47,152.832,-1116.211,548.828,17.25,-34.95,-39.60,18.21
16827,-1.85,2.10,-19.79,88.867,-822.754,860.352,16.05,-34.20,-39.60,18.21
16837,-13.79,3.36,-44.42,-216.797,39.063,1713.867,14.85,-34.20,-39.90,17.97
16847,-5.23,0.34,-45.69,-312.500,-218.750,857.422,14.85,-34.20,-39.90,18.30
16857,5.63,-9.18,-30.56,546.387,-675.293,182.129,15.75,-34.20,-39.60,18.21
16867,-5.21,-4.92,-47.90,40.039,-164.551,1320.801,15.75,-33.75,-39.15,18.21
16879,10.53,-2.54,-34.95,6.836,-937.500,879.883,15.15,-34.80,-39.00,18.21
16889,-2.52,-7.37,-39.11,-311.035,-327.637,1757.813,15.30,-35.40,-39.60,18.21
16899,-6.24,-1.28,-34.82,-801.270,-48.828,997.559,15.45,-33.15,-39.30,17.97
16914,4.85,-0.90,-35.00,-11.230,-621.582,288.574,15.45,-33.60,-39.00,18.06
16923,1.20,-3.44,-41.35,237.305,-800.781,121.094,15.45,-33.60,-39.00,18.40
16933,-7.63,-3.91,-51.49,-786.133,97.656,1999.939,14.85,-35.40,-39.90,18.01
16943,-0.12,6.08,-27.91,-467.773,-541.504,446.289,14.55,-35.40,-39.90,18.35
16955,-19.11,7.23,-33.48,9.277,-239.258,1010.742,15.30,-35.40,-38.40,18.21
16965,-10.97,9.46,-38.82,-181.641,-207.520,749.023,13.95,-34.80,-40.05,18.16
16975,-0.34,6.27,-33.89,-228.516,-31.250,818.359,13.95,-34.80,-40.05,18.16
16985,10.67,-2.66,-30.09,-28.320,-557.129,508.301,15.90,-35.55,-39.75,17.97
16995,1.60,2.77,-48.18,-599.121,-851.074,1040.527,14.70,-36.00,-39.30,18.30
17005,8.18,2.90,-30.47,-246.094,-687.012,765.137,14.70,-36.00,-39.30,18.01
17015,-2.52,-0.60,-37.43,141.113,-946.289,931.641,15.30,-35.85,-39.15,18.21
17027,4.50,2.41,-36.50,-130.371,-696.777,556.641,13.20,-34.05,-39.75,18.16
17037,4.92,6.65,-35.39,104.004,-933.105,674.805,13.50,-34.35,-39.75,18.40
17046,-5.65,2.45,-36.14,-168.457,-373.535,1104.492,14.10,-34.95,-39.90,18.21
17056,3.37,4.71,-49.09,-84.961,-179.687,806.641,14.10,-34.95,-39.90,17.82
17066,11.85,3.21,-31.88,176.270,-529.785,1146.973,13.35,-35.85,-39.60,18.21
17076,-2.54,1.86,-40.08,-37.109,-415.527,1228.027,13.50,-36.00,-39.75,18.30
17088,11.10,3.46,-35.61,141.113,-679.199,871.094,13.20,-34.35,-37.80,18.35
17098,2.38,4.63,-37.76,12.695,-761.230,595.703,13.50,-36.75,-39.75,18.30
17108,-1.63,-1.57,-39.25,-230.957,-628.418,1488.770,13.50,-36.75,-39.75,18.35
17118,5.85,-2.15,-32.85,-291.016,-553.711,1446.777,12.75,-35.25,-39.30,18.35
17128,0.15,0.90,-29.89,-107.422,-882.324,1999.939,13.20,-36.00,-39.30,18.21
17138,-4.87,1.48,-35.83,-450.684,-54.688,1125.488,13.20,-35.25,-39.75,18.21
17148,6.40,1.04,-39.17,-112.305,-597.656,625.488,13.95,-36.45,-39.00,18.21
17160,4.07,-6.08,-29.89,-475.098,-238.770,1614.258,12.60,-36.15,-39.15,18.21
17170,9.32,6.64,-40.10,-232.910,-764.648,516.602,12.60,-35.40,-40.35,18.01
17180,9.60,-1.38,-35.11,106.934,-779.785,908.203,12.60,-35.40,-40.35,18.21
17190,-3.33,0.33,-43.11,-322.754,-591.797,260.254,12.45,-36.45,-39.00,18.35
17200,3.90,-2.28,-36.97,170.898,-812.988,137.207,13.35,-36.15,-38.40,18.35
17210,6.14,-1.24,-37.08,-208.008,-515.625,669.434,11.40,-36.15,-39.15,18.16
17220,6.45,-4.68,-35.10,38.086,-596.680,1999.939,12.75,-35.55,-39.00,18.01
17232,4.88,-1.77,-36.66,38.574,-575.684,1131.348,12.75,-35.55,-39.00,18.16
17242,8.89,-4.94,-37.11,93.262,-933.594,1710.938,12.00,-36.45,-38.55,17.87
17252,10.16,1.92,-29.18,-246.582,-390.137,1150.391,11.70,-36.75,-39.75,18.40
17262,9.33,2.19,-36.66,-80.078,-852.539,1204.590,11.85,-36.15,-37.65,18.35
17272,2.48,-4.23,-35.03,168.457,-579.590,865.723,11.85,-35.40,-39.90,18.21
17282,-10.14,-4.02,-36.68,-399.902,-749.023,1473.145,11.25,-36.45,-39.00,18.21
17294,7.37,-3.83,-33.83,-145.020,-461.914,1207.031,12.30,-35.85,-38.40,18.21
17304,14.24,-7.27,-38.11,201.660,-726.074,366.211,12.00,-36.75,-38.25,18.49
17314,-4.63,0.45,-37.53,-4.395,-465.820,444.824,12.00,-36.75,-38.25,18.30
17324,5.16,-2.46,-29.69,-160.645,-593.750,355.957,10.95,-36.45,-39.00,17.77
17334,4.66,-0.76,-39.66,0.000,-275.391,1434.570,11.40,-36.15,-38.85,18.16
17344,10.16,3.24,-51.08,29.297,-225.586,491.699,11.40,-36.60,-38.40,18.30
17353,8.98,1.89,-45.36,-135.254,-625.488,1085.449,11.70,-36.45,-39.00,18.16
17365,0.92,0.50,-50.30,4.395,-702.637,1359.375,11.70,-36.45,-39.00,18.35
17375,-1.22,3.79,-29.30,-574.219,-95.703,1519.531,11.40,-36.60,-38.10,18.30
17385,7.90,6.68,-45.12,-12.207,-706.055,76.660,11.10,-37.05,-38.10,17.97
17395,6.82,9.53,-16.86,-284.668,-370.117,1883.789,10.95,-36.75,-38.25,17.68
17405,14.62,7.52,-36.76,-139.160,-582.031,1041.504,10.95,-36.75,-38.55,18.35
17415,4.67,5.02,-34.21,34.668,-404.297,1275.879,11.70,-37.65,-38.55,18.06
17432,2.38,5.68,-36.97,-40.039,-419.434,1106.934,10.35,-36.15,-39.15,18.21
17441,2.25,-0.24,-36.79,-225.098,-664.062,1029.785,10.35,-36.15,-39.15,18.21
17451,1.89,0.74,-35.85,39.551,-721.191,773.926,9.30,-37.65,-38.55,18.21
17460,4.32,1.09,-40.84,-88.379,-374.512,783.203,10.95,-37.65,-37.80,18.16
17470,6.08,5.82,-52.59,-87.891,-787.109,1380.859,9.90,-37.80,-38.40,18.30
17480,-2.60,-3.49,-38.24,-330.566,-542.480,1012.207,11.10,-37.05,-38.10,18.21
17490,-5.38,1.45,-42.83,-79.590,-760.742,544.434,11.10,-37.05,-38.10,18.16
17502,-3.19,-5.42,-39.91,-338.379,-633.789,1114.746,10.65,-37.35,-38.40,18.21
17512,-3.72,4.92,-39.12,-289.062,-489.746,784.180,11.10,-37.05,-38.85,18.01
17522,-0.88,-0.25,-40.75,24.902,-596.191,714.844,10.65,-37.35,-37.65,18.35
17532,-2.77,0.79,-36.31,-330.078,-259.766,972.168,9.90,-37.35,-37.35,18.16
17542,-0.98,-2.11,-36.44,-48.828,-101.563,598.145,10.65,-37.35,-37.35,18.21
17552,5.22,0.02,-40.02,-335.937,-218.262,811.035,9.75,-37.20,-37.05,18.30
17562,7.96,8.01,-34.11,-383.301,-455.078,242.676,9.90,-38.25,-38.40,18.16
17574,16.73,5.49,-37.63,-153.320,-860.352,734.375,9.90,-38.25,-38.40,18.01
17584,8.10,1.99,-36.58,-114.258,-1024.414,1397.461,9.60,-37.80,-37.65,18.30
17594,2.78,3.16,-38.79,-107.422,-591.309,532.715,10.35,-39.00,-37.35,18.16
17604,0.25,0.28,-42.66,-125.488,-836.426,1314.941,9.60,-39.30,-38.10,18.01
17614,2.44,2.85,-34.98,-171.387,-239.258,1119.141,9.30,-37.20,-38.25,18.16
17624,-4.15,2.50,-44.69,3.906,-372.070,1243.164,9.30,-37.20,-38.25,18.30
17634,-5.53,3.59,-43.14,-234.375,-506.836,782.715,9.30,-37.20,-36.30,18.21
17646,-3.72,-5.18,-47.29,-97.168,-321.777,1111.816,9.00,-37.65,-37.05,17.97
17656,-1.24,-5.69,-39.89,-171.387,-590.820,1020.020,9.75,-37.20,-37.80,18.16
17666,-7.27,-3.73,-46.20,-258.789,-208.984,937.012,8.70,-39.30,-36.90,17.97
17676,4.06,-4.60,-35.53,-178.711,-826.660,321.777,10.05,-37.95,-37.80,18.30
17686,-4.04,-2.49,-41.15,-172.852,-342.773,923.340,8.25,-37.65,-37.50,18.16
17696,2.54,-2.80,-38.21,-42.969,-792.480,917.480,7.65,-37.80,-37.35,17.87
17708,0.47,-2.26,-40.80,73.730,-666.016,908.691,7.65,-37.80,-37.35,18.16
17718,0.39,4.85,-34.02,-252.441,-468.262,1661.133,8.25,-38.40,-37.05,18.01
17728,5.35,-7.66,-18.47,-239.746,-517.090,1523.438,9.00,-37.20,-36.75,18.21
17738,-1.49,2.10,-59.70,-327.148,-437.012,1472.656,8.70,-39.00,-36.90,18.30
17748,5.67,4.21,-50.62,-196.777,-570.801,456.055,7.80,-39.15,-36.30,18.16
17758,4.21,9.74,-43.59,-387.207,-536.133,911.621,7.80,-39.15,-36.30,18.35
17768,9.89,2.68,-50.33,-51.270,-502.930,1949.707,7.95,-38.55,-36.15,17.82
