Time_ms,GyroX_degps,GyroY_degps,GyroZ_degps,AccelX_g,AccelY_g,AccelZ_g,MagX_uT,MagY_uT,MagZ_uT,Temp_C
1426,-0.02,2.52,-1.35,48.340,129.883,1068.848,-19.20,-6.30,-32.40,18.88
1444,-2.24,-1.18,-5.38,146.484,113.281,787.598,-20.85,-6.15,-31.80,18.92
1453,-1.95,-3.94,0.01,81.055,1.465,1430.176,-19.95,-5.85,-29.70,18.83
1463,1.11,-0.95,-3.62,177.734,53.711,740.234,-17.85,-6.15,-28.35,19.07
1473,-5.40,-2.41,-2.73,179.687,147.461,1203.613,-17.85,-6.15,-28.35,19.12
1483,2.52,2.67,-1.74,228.027,-65.918,882.324,-14.85,-6.30,-26.40,19.07
1493,-0.85,0.54,1.38,141.602,160.156,1086.914,-14.85,-6.30,-26.40,19.12
1502,-1.69,-0.51,-0.28,163.086,-44.434,1263.184,-14.85,-6.30,-26.40,18.88
1514,0.54,-1.98,0.08,57.617,106.934,596.680,-16.80,-6.75,-30.45,18.83
1524,1.06,-1.85,4.91,232.910,-64.453,874.512,-16.80,-6.75,-30.45,19.12
1534,-0.79,1.50,0.48,210.937,33.203,1094.238,-19.65,-6.45,-33.00,19.21
1544,-2.27,-3.18,2.27,62.500,9.766,1012.695,-21.45,-8.70,-31.95,19.12
1554,1.08,-0.78,-3.10,243.652,-41.016,1120.117,-18.75,-7.50,-28.95,19.12
1564,0.95,1.24,-0.93,185.059,-32.227,942.383,-16.50,-7.95,-26.70,18.92
1574,-4.16,-1.60,-1.09,161.133,69.824,1041.016,-16.50,-7.95,-26.70,18.92
1586,-0.78,-1.92,1.18,105.957,8.301,1289.551,-13.80,-6.75,-26.40,19.36
1596,-2.60,-0.08,-1.99,349.609,10.742,976.562,-15.15,-6.15,-26.85,18.92
1606,-2.08,0.18,-0.06,131.348,79.102,1060.547,-17.40,-6.45,-31.05,19.07
1616,1.52,-0.27,-0.79,152.344,22.949,1123.535,-21.45,-7.05,-31.20,19.26
1626,-0.91,2.02,-3.23,29.297,17.090,761.719,-21.45,-7.05,-31.20,19.21
1636,-1.31,-0.60,-0.40,336.914,36.621,1251.953,-20.10,-8.85,-30.75,18.92
1646,-1.28,2.76,-0.47,113.770,104.004,793.945,-17.40,-6.90,-28.05,18.92
1658,-1.27,-1.70,-2.92,280.273,-0.488,729.004,-16.65,-8.55,-23.85,19.12
1668,2.04,2.11,0.64,-33.203,26.367,1170.410,-13.05,-7.50,-24.45,19.02
1678,1.40,0.39,-0.21,247.559,117.676,1002.441,-13.05,-7.50,-24.45,18.83
1688,1.00,0.99,-0.55,100.098,54.199,1036.621,-18.60,-7.35,-29.55,19.07
1697,0.02,-3.72,-1.04,238.281,103.516,951.172,-21.30,-8.85,-30.75,19.12
1707,1.76,2.34,-3.38,94.727,83.496,1152.344,-21.30,-8.85,-30.75,19.12
1716,-2.79,-2.64,-0.21,204.102,6.348,1184.082,-18.60,-9.30,-27.30,18.83
1728,-1.64,-1.66,-1.50,271.973,30.273,1176.270,-16.50,-9.90,-24.15,19.07
1738,-4.89,0.85,-0.43,182.617,15.625,646.973,-14.55,-7.50,-25.95,19.07
1748,-3.61,-4.02,-2.08,311.523,6.348,1229.492,-15.15,-8.55,-26.55,18.92
1758,-3.16,-1.01,2.94,177.734,126.953,835.937,-15.15,-8.55,-26.55,19.36
1768,-1.45,-2.02,-2.63,115.723,-16.602,900.391,-23.55,-8.85,-31.05,19.02
1778,0.12,-0.40,-1.72,243.164,142.578,884.766,-21.60,-9.30,-29.10,19.02
1788,-0.68,1.31,-1.31,256.836,40.527,739.258,-17.85,-9.75,-26.55,19.07
1800,-0.97,1.69,0.95,140.625,97.656,861.328,-14.40,-8.85,-25.05,19.21
1810,-1.34,1.63,0.76,285.645,-53.223,1023.437,-14.40,-8.85,-25.05,19.21
1820,-2.39,1.24,-0.12,150.391,59.570,357.910,-18.75,-7.50,-29.70,18.83
1830,-1.79,5.24,2.81,195.801,36.621,976.562,-22.80,-7.65,-31.05,19.36
1840,1.46,-0.10,-0.96,260.742,20.508,983.887,-22.80,-9.30,-30.30,19.12
1850,5.31,1.16,-0.25,307.129,-46.875,1152.344,-17.85,-11.25,-27.60,19.21
1860,1.92,3.14,-0.49,46.387,-174.805,1120.117,-17.85,-11.25,-27.60,19.36
1872,-1.20,3.46,0.30,257.324,-214.844,1104.492,-17.10,-8.55,-27.30,19.26
1882,-0.98,1.31,-3.46,106.934,-235.352,1154.785,-19.35,-8.10,-31.50,19.26
1892,-4.11,-1.27,-2.31,-11.230,18.555,1249.512,-19.35,-8.10,-31.50,19.07
1902,-3.63,-0.29,-1.44,99.609,185.547,1202.148,-20.70,-10.35,-31.65,19.07
1912,-2.49,-2.86,-2.97,107.422,146.973,1195.313,-17.10,-9.75,-28.05,19.40
1922,3.65,-5.70,-1.36,174.805,151.367,1140.625,-15.75,-9.15,-26.70,19.12
1932,0.63,-2.47,-4.74,181.641,45.898,1162.598,-17.25,-8.25,-30.45,19.26
1957,-0.77,-1.43,-0.97,209.473,75.684,775.391,-18.15,-10.95,-28.80,19.26
1966,-3.98,-3.53,-2.22,151.855,157.227,1203.125,-16.20,-8.85,-25.80,19.21
1976,-5.56,-2.08,-0.95,111.816,39.063,927.246,-14.70,-8.55,-28.05,19.26
1986,-1.40,-3.67,-1.23,245.605,126.953,703.613,-14.70,-8.55,-28.05,19.12
1996,-0.75,-3.33,-1.98,83.008,104.980,922.363,-21.30,-8.85,-31.80,19.40
2006,-1.78,0.99,1.45,144.531,-4.395,1057.129,-19.65,-10.05,-29.10,19.02
2018,-0.21,-0.98,-2.13,181.152,36.621,980.469,-16.20,-8.85,-27.30,19.26
2028,2.05,-2.27,-1.58,125.488,52.734,854.980,-15.75,-7.95,-28.95,19.21
2038,1.94,0.70,0.66,137.207,51.270,1073.730,-15.75,-7.95,-28.95,19.36
2048,0.44,-3.20,-0.82,54.688,-32.715,1059.082,-22.05,-8.85,-31.05,19.26
2058,0.09,-3.29,2.30,183.594,58.594,1075.684,-18.75,-9.45,-28.95,19.21
2068,0.89,-1.08,-1.00,333.496,-57.617,961.914,-18.75,-9.45,-28.95,19.26
2078,-4.12,1.49,-0.85,85.938,55.176,867.187,-17.25,-7.50,-29.70,18.92
2090,-0.79,-1.42,-1.99,284.180,-44.922,837.402,-20.70,-7.50,-32.70,19.12
2100,0.78,-0.77,-4.18,63.965,98.145,1103.516,-21.90,-9.45,-31.65,19.26
2110,1.57,-0.33,0.71,315.918,19.043,797.852,-16.80,-8.70,-28.20,19.12
2120,0.98,4.16,-2.46,105.957,0.977,1003.418,-16.80,-8.70,-28.20,19.21
2129,1.47,1.67,-2.64,176.758,-56.641,787.109,-19.50,-7.95,-32.40,19.26
2139,-0.77,0.31,-0.18,146.484,-89.844,1079.590,-21.60,-7.65,-33.00,19.36
2149,-3.89,-0.27,-6.09,287.598,97.656,1482.422,-17.25,-9.45,-27.45,19.07
2161,1.20,-1.18,-1.79,129.395,-101.563,994.141,-13.50,-8.55,-25.05,19.36
2171,-3.24,0.21,-2.60,309.082,104.980,1179.199,-13.50,-8.55,-25.05,19.12
2181,2.40,-0.54,-4.95,243.164,-93.262,1005.371,-21.30,-7.65,-31.50,19.12
2191,-0.45,0.98,0.41,248.047,-62.500,1189.941,-19.50,-8.25,-28.95,19.26
2201,-3.78,1.45,-3.75,-87.402,97.168,837.891,-16.20,-8.85,-25.35,19.21
2211,1.70,-0.14,-0.72,260.742,-46.875,1117.676,-17.10,-6.90,-28.80,19.40
2221,-1.47,4.46,-3.72,210.449,-26.367,353.027,-17.10,-6.90,-28.80,19.26
2233,1.98,-0.85,-6.00,274.414,-59.082,821.289,-19.50,-9.15,-29.70,19.07
2243,-2.36,0.72,-5.37,27.344,71.777,428.223,-16.20,-9.75,-26.10,19.21
2253,-3.39,0.86,-0.47,338.379,-44.434,1389.648,-16.20,-9.75,-26.10,19.12
2263,-2.37,-1.20,-3.44,198.242,-165.039,852.051,-22.65,-7.95,-30.90,18.92
2273,0.11,-1.88,-2.59,261.719,117.188,1513.184,-20.55,-8.10,-29.10,19.36
2283,-0.07,-1.23,0.40,230.957,55.176,1034.668,-15.90,-8.85,-25.35,19.40
2293,3.55,-0.97,-2.84,341.309,-222.656,1527.344,-16.80,-7.05,-28.20,19.40
2305,6.23,-2.40,-2.40,-51.270,0.488,1685.547,-16.80,-7.05,-28.20,19.26
2315,2.02,-2.57,-5.48,149.414,-115.723,1570.313,-14.40,-8.10,-23.55,19.07
2325,-6.34,0.16,-5.98,155.273,-114.258,1525.391,-14.40,-8.10,-23.55,19.45
2335,-11.15,-2.50,1.82,226.074,-385.254,1280.762,-18.00,-7.05,-28.65,19.40
2345,-13.16,1.06,-2.87,36.133,60.059,997.559,-21.30,-8.85,-30.30,19.07
2355,-10.64,-0.53,-3.84,397.461,158.203,1164.063,-21.30,-8.85,-30.30,19.26
2365,-10.13,-1.79,-3.15,216.309,141.602,765.137,-21.60,-7.65,-25.80,19.45
2377,-4.06,-3.86,-6.34,118.164,134.277,751.465,-20.85,-10.05,-30.30,19.12
2387,2.46,-3.87,-3.10,183.105,335.937,1521.973,-16.50,-10.35,-24.45,19.21
2397,8.78,-7.21,-2.68,604.004,101.074,557.129,-17.25,-6.75,-28.65,19.40
2407,7.84,-9.22,-11.92,477.539,-202.148,1286.621,-20.10,-7.65,-31.50,19.40
2417,8.44,-14.97,-3.53,43.945,-348.145,780.762,-18.15,-10.50,-26.10,19.26
2427,-7.16,-8.71,-17.53,365.723,-217.773,1566.406,-18.15,-10.50,-26.10,18.92
2440,-12.95,-4.83,-15.37,-109.375,-163.086,1596.191,-18.90,-8.85,-29.55,19.07
2449,-5.74,-1.40,-6.65,145.508,40.527,730.469,-21.30,-8.85,-28.80,19.12
2459,-6.14,4.85,-13.21,203.125,266.113,794.922,-14.85,-9.15,-24.45,19.36
2475,-1.11,7.50,-9.19,167.969,-249.023,1180.176,-16.80,-6.75,-28.65,19.12
2484,-1.63,5.35,-7.05,-5.859,83.984,1073.730,-16.80,-6.75,-28.65,19.36
2494,5.04,6.10,-9.76,237.305,-274.902,881.836,-18.45,-9.90,-25.20,19.26
2504,3.00,4.08,-12.37,391.602,-337.891,508.301,-17.40,-7.65,-25.80,18.92
2518,0.15,1.89,-13.01,327.148,-60.059,940.430,-20.10,-9.75,-28.05,19.12
2528,-1.56,1.59,-12.56,348.145,-231.445,780.762,-20.10,-9.75,-28.05,19.36
2538,0.97,-4.31,-16.79,346.680,-129.883,883.789,-20.25,-5.55,-28.95,19.21
2548,3.41,-7.44,-13.91,156.250,-425.293,1206.055,-19.95,-7.50,-30.15,19.12
2558,1.47,-4.37,-17.11,11.230,-189.941,1667.969,-16.80,-9.15,-26.70,19.55
2568,0.07,-0.56,-12.73,-53.223,104.004,1038.574,-18.00,-5.55,-29.40,19.36
2578,0.12,0.50,-17.24,-0.977,-245.605,830.078,-20.85,-7.65,-29.85,19.26
2590,-1.44,-1.06,-17.34,-22.949,4.883,1694.336,-16.65,-8.85,-26.55,19.45
2600,-5.82,2.31,-16.94,-24.414,-32.715,1381.836,-17.10,-7.65,-28.05,19.40
2610,-3.46,1.79,-20.09,-83.008,191.895,1016.602,-17.10,-7.65,-28.05,19.21
2620,1.22,5.94,-17.71,424.316,-106.934,903.320,-17.55,-9.15,-26.40,19.12
2630,5.24,3.07,-16.62,13.672,-43.945,891.602,-17.55,-7.50,-27.90,19.12
2640,4.96,-4.42,-16.31,144.531,-154.785,909.668,-20.70,-6.30,-31.65,19.40
2650,-0.61,-1.43,-20.86,26.367,-24.902,757.324,-18.90,-9.30,-26.85,19.55
2662,-4.27,-3.67,-15.46,225.098,-396.973,1167.480,-18.90,-9.30,-26.85,19.55
2672,-3.66,-13.27,-19.65,-181.641,-128.906,1367.676,-21.00,-5.55,-31.20,19.40
2682,0.05,-6.56,-17.53,99.121,255.371,1447.266,-17.55,-9.90,-28.95,19.26
2692,1.81,-6.15,-16.32,24.414,-12.207,1683.105,-17.10,-6.15,-29.55,19.36
2702,1.26,-5.80,-19.35,130.371,27.832,1513.672,-19.50,-7.05,-32.40,19.55
2712,6.39,-2.40,-16.56,37.598,144.043,1238.281,-19.50,-7.05,-32.40,19.07
2722,-1.95,-0.10,-16.50,-304.687,-28.320,699.219,-15.90,-6.90,-28.35,19.40
2734,-5.79,4.25,-17.19,296.387,155.762,998.535,-20.10,-6.45,-32.55,19.21
2744,-12.26,2.68,-19.27,118.164,-200.195,726.562,-16.50,-8.25,-28.65,19.45
2754,-13.18,1.69,-23.08,65.430,126.465,247.070,-16.05,-4.35,-28.20,19.45
2764,-7.26,-4.62,-20.37,344.727,-119.629,626.465,-16.05,-4.35,-28.20,19.40
2774,1.60,6.35,-20.26,43.945,-301.270,472.656,-14.85,-7.95,-27.15,19.55
2784,1.97,5.50,-22.17,140.625,-220.215,400.879,-14.85,-5.55,-28.65,19.36
2796,3.36,3.35,-25.01,391.602,-419.922,842.773,-14.85,-5.55,-28.65,19.40
2806,3.65,0.56,-24.68,280.273,-737.305,1013.184,-15.45,-6.15,-27.60,19.12
2816,-5.52,-0.47,-26.95,-108.887,-434.082,726.074,-16.05,-4.35,-30.45,19.07
2826,-6.48,1.89,13.53,320.801,-622.070,647.949,-17.55,-7.50,-30.45,19.45
2836,-7.15,-3.55,-52.76,-164.551,-328.125,586.914,-13.20,-8.10,-26.85,19.40
2846,-11.11,-1.34,-33.41,-266.113,-14.648,974.121,-13.20,-8.10,-26.85,19.36
2856,5.02,-7.39,-27.24,606.445,-440.918,384.277,-17.55,-7.05,-29.40,19.36
2868,8.69,-2.69,-30.10,437.500,-241.211,695.312,-18.00,-5.10,-29.70,19.45
2878,6.11,-5.45,-28.85,230.469,-383.789,1173.828,-17.10,-8.10,-28.05,19.40
2888,0.70,-4.00,-35.14,-88.867,-267.090,1551.758,-17.10,-8.10,-28.05,19.45
2898,1.51,0.07,-33.04,-97.656,3.906,1359.375,-18.90,-5.70,-31.80,18.92
2908,4.24,-2.40,-30.70,472.168,-590.332,753.418,-16.20,-8.85,-27.60,19.40
2918,0.56,-2.97,-31.06,145.020,-380.371,827.637,-14.85,-5.10,-28.20,19.40
2928,-3.87,-0.59,-28.48,-182.129,201.172,1460.938,-18.15,-6.45,-30.30,19.40
2940,4.68,-2.08,-29.82,314.941,-425.293,1113.281,-18.15,-6.45,-30.30,19.26
2950,-0.57,2.68,-31.29,-110.352,154.297,1409.180,-16.05,-3.90,-30.15,19.26
2960,-2.26,-0.36,-31.57,-82.031,5.371,995.117,-17.10,-7.35,-29.85,19.45
2970,4.02,4.45,-30.01,287.109,-60.547,668.945,-17.10,-7.35,-29.85,19.26
2980,8.29,1.28,-25.47,312.012,-261.719,1177.246,-17.10,-3.75,-30.75,19.07
2995,6.13,-1.51,-28.79,276.855,-506.836,998.047,-15.15,-6.90,-29.55,19.36
3004,7.14,-2.80,-27.08,168.457,-378.418,1255.859,-15.90,-4.50,-27.60,19.40
3016,3.87,4.56,-27.78,202.637,33.691,622.559,-17.25,-5.55,-31.65,19.12
3026,7.10,1.04,-28.53,316.895,-226.562,867.187,-17.25,-5.55,-31.65,19.36
3036,1.57,1.15,-25.68,306.641,-605.469,1526.855,-14.85,-1.95,-30.90,19.36
3046,-7.07,0.40,-26.26,371.582,-510.254,1088.867,-15.15,-6.90,-28.80,19.21
3056,-14.82,-7.12,-27.30,-53.711,-183.105,1613.281,-13.05,-4.35,-27.45,19.12
3066,-16.85,-2.70,-31.89,178.223,-183.594,643.555,-16.20,-5.25,-30.30,19.36
3076,-14.40,-4.76,-26.67,50.781,-53.223,467.285,-16.20,-5.25,-30.30,19.12
3088,3.92,-6.67,-31.37,70.313,35.645,865.723,-15.75,-6.75,-28.20,19.26
3098,2.40,-5.62,-35.32,-166.992,26.855,1145.508,-11.40,-4.35,-27.15,19.40
3108,1.09,0.53,-33.23,-112.305,-67.383,1105.469,-17.10,-4.05,-31.05,19.36
3118,-1.60,2.63,-37.05,-193.359,-95.215,1015.137,-17.10,-4.05,-31.05,19.55
3128,4.27,3.08,-39.60,-89.844,-163.086,684.082,-13.50,-2.55,-30.30,19.26
3138,5.69,1.12,-32.51,365.723,-114.746,1068.359,-15.75,-6.75,-30.45,19.40
3148,3.41,1.19,-30.47,86.914,-344.727,1225.098,-15.75,-6.75,-30.45,19.40
3159,-7.06,1.18,-35.66,-48.340,-82.031,849.121,-16.50,-4.65,-30.90,19.60
3169,-10.40,-3.22,-29.17,-194.336,-30.762,1541.992,-13.80,-5.10,-27.45,19.21
3179,-11.86,1.09,-33.90,-331.055,325.684,1679.688,-14.40,-1.65,-29.85,19.45
3189,-6.77,0.26,-31.47,96.680,6.348,1122.559,-14.55,-6.30,-28.95,19.26
3199,-2.98,-5.06,-31.83,19.043,23.437,1427.246,-14.55,-6.30,-28.95,19.36
3209,-3.01,-0.02,-33.37,-109.863,134.766,1089.355,-14.40,-3.75,-29.55,19.40
3219,-0.34,-1.08,-33.61,231.934,-552.246,929.199,-11.25,-6.45,-28.05,19.26
3231,-0.41,1.88,-26.10,76.172,-228.027,1292.480,-14.55,-3.15,-30.90,19.45
3241,4.15,1.21,-35.25,345.703,-314.453,478.516,-13.50,-5.70,-28.35,19.12
3251,-1.02,-5.29,-34.63,420.898,-362.305,924.805,-13.50,-5.70,-28.35,19.40
3261,0.95,-3.63,-31.43,145.996,-476.074,840.332,-14.40,-4.50,-30.75,19.55
3271,-0.44,2.43,-35.62,166.016,-373.047,1949.707,-10.95,-4.95,-27.60,19.40
3281,2.51,1.48,-34.73,206.055,-224.121,562.988,-13.95,-4.50,-31.05,19.45
3293,3.12,0.92,-32.31,71.777,-49.316,942.383,-13.05,-5.10,-27.45,19.40
3303,2.44,-2.87,-26.37,83.008,-276.855,1292.480,-13.05,-5.10,-27.45,19.12
3313,5.41,4.66,-37.24,-134.277,-113.770,1093.262,-13.80,-5.10,-29.70,19.36
3323,0.79,1.02,-34.82,126.953,-200.195,1348.633,-11.85,-1.95,-29.70,19.21
3333,-2.95,4.67,-31.20,-139.160,259.766,904.785,-11.85,-1.95,-29.70,19.36
3343,4.35,-2.96,-29.34,365.234,-297.363,1736.328,-10.35,-4.35,-28.65,19.36
3353,-0.82,2.90,-35.95,56.152,-67.383,809.082,-13.05,-1.50,-31.20,19.36
3365,0.11,-0.53,-28.79,266.602,-400.391,458.984,-12.75,-3.75,-26.55,19.55
3375,-13.56,4.86,-34.10,-185.059,16.602,577.148,-12.60,-1.05,-31.20,19.36
3385,-6.83,1.85,-30.63,499.512,-296.387,352.051,-12.60,-1.05,-31.20,19.07
3395,-6.66,-0.02,-31.10,-274.902,-145.996,1350.586,-10.35,-2.25,-29.40,19.64
3405,-3.05,2.05,-39.26,63.965,-110.352,689.453,-11.85,-3.45,-30.45,19.40
3415,-0.93,-0.42,-34.21,124.023,-264.648,993.652,-9.60,-2.70,-29.40,19.55
3425,7.27,-1.85,-31.19,22.949,-303.711,1264.648,-11.85,-3.15,-31.65,19.26
3437,5.74,-1.29,-37.12,295.410,-624.023,1097.656,-11.85,-3.15,-31.65,19.45
3447,-3.87,-1.80,-30.43,-316.895,-389.648,1458.008,-11.85,-1.50,-30.15,19.55
3457,-2.58,-4.17,-37.37,217.285,-685.059,890.625,-9.00,-5.25,-27.60,19.26
3467,-2.70,-9.13,-35.47,129.395,-432.129,1579.590,-10.65,-0.30,-30.15,19.26
3477,-9.15,-6.41,-36.95,63.477,28.320,1525.879,-11.85,-3.45,-27.90,19.40
3487,-0.98,-2.72,-41.12,-56.152,-81.543,823.730,-11.85,-3.45,-27.90,19.45
3497,10.76,-0.16,-36.64,533.691,-260.742,692.383,-11.25,-4.50,-30.30,19.55
3514,3.28,1.15,-39.46,-96.191,-273.926,685.547,-9.00,-1.35,-27.60,19.40
3523,6.88,3.47,-40.58,60.059,-179.687,1131.348,-7.80,-2.85,-27.60,19.40
3533,7.36,3.49,-39.70,511.719,-791.992,696.777,-11.85,-0.30,-31.95,19.36
3543,-1.63,3.36,-38.19,-86.426,-528.809,1199.219,-9.00,-4.05,-29.85,19.36
3553,-5.82,3.55,-43.10,-342.285,-29.785,971.191,-11.10,0.00,-31.65,19.40
3563,1.64,6.07,-35.20,391.113,-464.355,575.195,-11.10,0.00,-31.65,19.55
3573,1.44,-0.69,-34.51,340.332,-500.000,587.402,-9.90,-1.05,-31.65,19.40
3585,3.87,1.44,-39.11,23.926,-276.855,1152.832,-7.80,-3.75,-29.10,19.36
3595,15.98,2.73,-37.02,500.000,-468.750,298.828,-9.75,-1.35,-29.85,19.45
3605,13.14,-1.84,-31.39,452.637,-140.625,1703.613,-8.40,-5.10,-30.15,19.40
3615,4.52,1.79,-42.18,-42.969,-464.355,680.176,-8.40,-5.10,-30.15,19.40
3625,-8.51,0.58,-37.07,62.012,-545.898,892.090,-8.40,-3.45,-30.45,19.36
3635,-14.13,-3.70,-36.28,-146.973,-182.617,1131.348,-7.95,-0.30,-28.65,19.79
3645,-10.24,-6.99,-41.89,22.461,62.500,971.680,-9.30,-2.55,-30.75,19.64
3657,-0.76,-8.19,-31.70,77.637,-473.633,1535.156,-7.95,-1.95,-28.95,19.64
3667,4.79,-4.29,-33.49,35.156,-361.816,1811.523,-7.95,-1.95,-28.95,19.36
3677,-8.56,-0.07,-34.77,-624.023,-284.180,463.379,-5.55,-1.65,-30.30,19.64
3687,-2.22,1.98,-41.29,-365.234,-462.891,375.977,-8.55,-3.30,-31.50,19.36
3697,-0.26,-1.47,-33.77,34.668,-481.445,550.293,-8.55,-3.30,-31.50,19.26
3707,-5.51,-1.24,-43.44,33.203,-345.215,1210.449,-9.00,-0.90,-31.80,19.12
3717,2.95,1.63,-38.64,419.434,-111.328,1038.086,-7.05,-1.35,-27.60,19.60
3728,-7.15,1.58,-37.69,-418.945,91.309,1941.406,-9.60,-0.30,-31.20,19.64
3738,-1.06,4.99,-38.46,104.004,-93.262,1208.008,-7.35,-1.65,-30.75,19.40
3748,1.41,5.51,-37.98,349.121,-191.406,637.695,-7.35,-1.65,-30.75,19.26
3758,-0.27,7.76,-37.73,61.035,-377.441,1016.113,-6.15,-0.75,-29.70,19.60
3768,7.98,7.57,-47.74,497.559,-740.234,958.984,-7.80,-0.45,-32.55,19.26
3778,0.53,-5.60,-34.21,33.691,-286.621,1743.652,-5.25,-1.05,-31.65,19.40
3788,0.72,2.31,-36.85,-36.621,-475.098,1590.332,-6.45,0.75,-32.70,19.40
3800,-7.79,-9.11,-25.86,24.414,-169.434,1676.270,-6.30,0.45,-33.75,19.40
3810,0.08,-2.50,-42.02,201.660,-141.602,1467.285,-3.45,-3.15,-31.20,19.40
3820,0.08,-3.52,-37.67,17.578,-225.586,975.586,-5.85,-0.45,-33.75,19.40
3830,-3.72,-7.57,-43.49,-53.223,-771.973,949.707,-3.90,-1.65,-31.50,19.55
3840,-7.11,-8.89,-39.54,-47.852,-395.508,1187.500,-3.90,-1.65,-31.50,19.40
3850,-2.93,-9.19,-39.56,-62.500,-345.703,1518.555,-2.85,-0.90,-31.05,19.12
3860,-2.91,-6.78,-37.95,-130.371,-250.488,1064.941,-4.20,-0.30,-33.45,19.26
3872,-2.61,-10.02,-37.89,-190.430,-265.137,1494.629,-4.20,-0.30,-33.45,19.12
3882,-9.34,-4.88,-39.66,-141.113,-250.000,668.457,-3.90,-0.90,-33.30,19.07
3892,-17.52,-1.35,-39.02,-324.707,30.762,720.215,-2.85,0.15,-31.05,19.74
3902,-4.81,-5.23,-33.49,-238.770,-192.871,1102.051,-4.50,0.30,-34.20,19.40
3912,-7.36,1.98,-38.57,-614.746,-92.285,1499.512,-2.40,1.65,-34.05,19.55
3922,-2.89,-0.63,-41.16,-342.285,-261.230,862.793,-2.40,1.65,-34.05,19.40
3932,11.98,2.43,-40.15,-38.574,-758.789,513.672,0.00,1.50,-34.20,19.26
3944,2.84,3.30,-43.95,199.219,-53.711,733.887,-0.30,1.05,-33.45,19.45
3954,-0.11,7.12,-40.02,-58.594,-798.828,1223.145,0.15,2.10,-32.55,19.21
3964,8.82,-0.49,-42.86,42.969,-859.375,1055.664,-0.30,0.00,-31.95,19.40
3974,-2.97,3.98,-39.23,-96.680,-581.543,910.645,-0.30,0.00,-31.95,19.55
3984,6.68,-2.00,-39.19,9.277,-751.465,624.512,0.45,0.45,-32.25,19.45
3994,-0.09,-10.95,-44.82,197.754,-728.516,1430.176,-0.15,0.90,-33.30,19.40
4004,2.79,-8.10,-46.30,-331.543,-673.340,1760.254,0.75,-0.30,-32.70,19.40
4016,7.26,-8.15,-46.14,-114.746,-639.160,1253.906,0.15,0.15,-31.05,19.60
4030,0.31,-2.56,-49.71,-281.250,-260.742,791.504,0.75,0.30,-32.70,19.45
4040,9.95,4.07,-43.36,-411.621,-593.262,670.410,-0.45,2.10,-32.25,19.55
4050,1.77,0.24,-49.38,-395.020,-576.172,627.441,-0.45,2.10,-32.25,19.21
4060,2.34,3.07,-40.24,-216.309,-760.742,1493.652,-0.45,1.35,-33.30,19.45
4070,-4.98,8.11,-46.26,-605.469,-257.812,1238.281,-0.30,-0.75,-31.20,19.40
4080,0.38,15.55,-44.92,80.566,-844.238,1370.117,-0.30,-0.75,-31.20,19.40
4092,-26.82,6.92,-44.66,-291.504,-126.465,1215.820,0.15,-0.45,-33.00,19.60
4102,-22.55,0.11,-40.28,-330.566,137.207,1279.297,0.15,-0.45,-33.00,19.36
4112,-12.74,8.16,-41.79,37.598,-213.379,966.309,1.80,0.30,-33.15,19.07
4122,-16.33,3.67,-41.37,-392.578,-190.918,904.297,1.05,0.00,-31.65,19.40
4132,-4.59,4.37,-35.39,-103.027,-216.797,529.785,1.05,-1.05,-31.65,19.45
4142,6.24,-1.69,-42.85,-283.691,-91.797,1625.000,1.05,-0.30,-31.95,19.55
4152,3.85,-2.19,-38.62,-393.066,-350.586,1200.195,1.05,-0.30,-31.95,19.55
4164,-5.65,-3.34,-39.07,-390.137,-389.648,1773.926,1.65,0.15,-31.50,19.55
4174,-10.09,0.94,-41.01,-57.129,-368.652,1130.371,3.00,0.00,-31.95,19.40
4184,-21.20,2.81,-39.87,-678.711,245.117,375.977,3.15,1.35,-33.30,19.64
4194,-16.76,4.83,-39.07,309.082,-171.387,188.965,1.50,0.00,-32.70,19.26
4203,-21.18,-6.89,-37.93,-408.203,307.129,1566.406,1.50,0.00,-32.70,19.40
4213,-7.00,-13.83,-32.94,-441.895,588.867,1622.070,3.00,0.00,-31.95,19.55
4225,12.55,-16.75,-40.02,-561.035,-623.047,1854.004,2.85,0.45,-33.30,19.55
4235,16.40,-15.82,-37.65,-491.699,-472.168,1989.258,2.85,0.45,-33.30,19.45
4245,15.76,-1.70,-35.08,-354.492,-195.312,1565.430,2.55,0.30,-31.65,19.64
4255,6.01,-10.00,-34.93,-459.473,36.621,1289.063,2.10,-0.90,-33.75,19.36
4265,9.15,-13.03,-36.97,-185.547,-283.691,881.348,2.40,-0.15,-33.30,19.21
4275,5.86,-7.37,-34.90,-0.488,-516.113,1100.098,3.45,-0.30,-33.45,19.36
4285,-8.49,-18.29,-34.05,21.484,-668.945,1180.664,3.45,-0.30,-33.45,19.40
4297,-13.59,-23.02,-18.71,236.328,-60.547,534.668,3.00,0.00,-33.45,19.36
4307,-17.57,-32.60,-43.85,-205.078,-13.672,1487.305,2.85,1.35,-32.55,19.64
4317,-10.99,-21.86,-36.15,-75.195,145.508,713.379,3.60,-1.65,-32.25,19.45
4327,9.92,-23.41,-34.56,482.422,145.996,268.066,2.55,-0.30,-32.40,19.36
4337,15.72,-27.85,-37.56,515.137,-823.730,940.918,2.55,-0.30,-32.40,19.36
4347,0.90,-23.07,-31.90,14.648,-512.695,381.836,3.00,1.05,-33.15,19.45
4356,1.47,-26.86,-37.56,-366.699,-919.434,1105.469,3.60,-0.90,-31.50,19.45
4368,8.37,-16.14,-33.92,-318.359,-159.180,1352.539,3.75,0.75,-33.15,19.40
4378,-1.61,-9.82,-34.53,-204.590,-823.242,634.277,2.85,-1.65,-32.25,19.55
4388,-0.50,-1.39,-29.01,8.789,-659.668,1339.844,2.85,-1.65,-32.25,19.45
4398,-6.90,-10.62,-39.98,181.152,-790.527,331.055,3.75,-1.05,-33.15,19.55
4408,-15.59,-5.90,-29.50,-14.648,-292.480,1336.426,3.15,-0.90,-32.55,19.36
4418,-23.78,-3.69,-35.47,-156.738,-579.102,1049.805,3.15,-0.90,-32.55,19.64
4428,-28.08,-6.05,-36.44,-16.602,-110.840,632.324,3.45,-1.50,-32.70,19.55
4440,-4.52,3.26,-28.61,-277.832,739.746,1029.297,2.10,-1.35,-32.25,19.55
4450,13.44,4.63,-28.42,-535.156,593.750,1219.727,3.90,0.15,-33.00,19.36
4460,6.35,12.69,-34.34,88.867,-344.238,1456.543,1.50,-0.30,-33.15,19.45
4469,6.56,22.91,-28.31,-626.465,-457.520,1833.496,1.50,-0.30,-33.15,19.45
4479,8.57,23.16,-33.86,24.902,-759.277,948.242,2.40,-0.90,-33.75,19.21
4489,-0.34,15.87,-29.98,-222.168,-418.945,1483.887,4.20,-0.30,-32.70,19.40
4499,-15.98,17.72,-51.68,-14.648,-152.832,1029.297,3.45,0.00,-34.65,19.60
4511,-10.44,5.62,-34.95,-125.488,-367.676,1090.332,4.20,-1.50,-33.15,19.74
4521,-9.71,0.47,-28.17,-40.527,-59.082,1456.055,4.20,-1.50,-33.15,19.64
4531,6.15,0.03,-39.34,210.449,-124.512,1139.648,2.55,-1.05,-32.70,19.55
4546,32.40,-0.34,-28.48,-5.371,-842.773,922.852,4.35,-1.35,-32.55,19.36
4555,1.72,0.38,-25.55,-25.391,-244.629,172.852,5.10,-0.45,-34.80,19.40
4565,15.45,-2.54,-32.22,484.863,-864.258,-162.109,5.10,-0.45,-34.80,19.45
4575,-1.07,2.24,-32.60,75.684,-349.609,714.355,5.55,-0.15,-34.50,19.55
4587,-4.98,1.79,-25.99,-100.586,-145.996,749.023,4.50,-1.05,-33.90,19.45
4597,-16.31,0.62,-29.63,-362.793,-236.816,593.262,6.30,0.15,-34.05,19.64
4607,1.79,-3.70,-31.24,-522.461,-225.098,944.336,6.45,-1.95,-32.40,19.64
4617,-1.18,7.82,-22.06,-444.824,-293.945,429.687,6.45,-1.95,-32.40,19.45
4627,2.18,3.71,-35.82,67.383,-23.437,451.172,6.45,-1.05,-32.40,19.55
4637,9.30,4.74,-31.20,236.816,-233.398,346.680,6.30,-0.15,-34.50,19.26
4646,8.55,-2.26,-29.97,-401.367,-151.855,1744.629,6.30,-0.15,-34.50,19.40
4658,6.02,-0.79,-38.13,-69.824,-388.672,1488.281,6.60,1.35,-33.00,19.45
4668,3.11,-3.89,-28.35,88.379,-403.320,1270.020,7.20,-1.50,-32.70,19.45
4678,-0.44,8.60,-36.17,403.809,-326.660,649.414,7.65,0.30,-33.45,19.40
4687,1.48,2.37,-35.62,-246.094,-339.844,786.133,7.05,0.15,-33.75,19.40
4697,1.07,1.70,-30.66,47.363,-830.078,908.691,7.05,0.15,-33.75,19.55
4707,-6.34,-1.38,-31.92,51.270,-544.922,1420.410,7.20,-1.95,-33.90,19.36
4717,-10.54,1.95,-36.79,-557.129,134.277,1718.262,6.30,0.90,-32.55,19.40
4729,8.18,-2.45,-19.55,370.117,-291.992,1999.939,6.30,-0.15,-34.50,19.64
4739,3.78,-0.02,-33.76,-219.727,-301.270,1955.078,7.80,-0.45,-33.00,19.55
4749,4.87,5.57,-36.27,-220.703,-364.258,989.746,7.80,-0.45,-33.00,19.45
4759,-3.88,0.69,-35.72,128.418,-647.461,517.090,9.60,-0.30,-34.20,19.40
4769,-6.43,-5.53,-32.20,302.246,-509.766,977.539,6.60,-2.85,-34.05,19.26
4779,-8.85,-4.98,-35.24,-252.441,-43.945,1541.016,9.15,-1.50,-33.45,19.55
4789,-9.98,-0.68,-31.92,-423.340,63.477,1421.387,8.40,-0.75,-33.90,19.64
4801,1.78,-2.79,-29.54,210.449,-388.672,1562.988,8.40,-0.75,-33.90,19.36
4811,10.37,5.15,-35.33,-89.844,-39.551,1246.094,7.80,-0.15,-34.05,19.36
4821,10.47,5.52,-34.74,260.254,-370.605,611.816,9.90,-0.75,-32.40,19.60
4831,-1.82,2.07,-29.90,-215.820,-689.453,530.762,9.90,-0.75,-32.40,19.45
4841,-6.73,1.85,-30.21,64.941,-493.164,632.324,9.90,-0.30,-33.45,19.45
4851,-9.40,0.90,-31.31,-56.641,-506.836,1283.691,9.15,-1.95,-34.65,19.40
4861,-10.91,-1.25,-28.52,-281.250,-69.336,1698.730,10.65,-0.75,-32.70,19.36
4873,4.89,-7.75,-29.82,-4.883,-147.949,1170.410,9.30,-1.35,-34.50,19.55
4883,16.91,1.95,-26.37,-68.359,-535.156,1391.602,9.30,-1.35,-34.05,19.45
4893,18.46,-2.46,-35.48,479.004,-463.867,427.734,10.95,-2.10,-33.00,19.55
4903,16.50,-0.27,-26.70,234.863,-839.844,929.687,9.90,-1.05,-35.40,19.55
4913,2.35,2.84,-39.95,-16.113,-320.312,636.230,11.10,-1.50,-32.40,19.64
4923,5.68,2.31,-28.63,158.691,-202.637,882.812,11.10,-1.50,-32.40,19.45
4932,-4.96,3.59,-21.16,147.461,-513.672,1257.813,11.10,-1.50,-32.40,19.40
4944,3.44,3.63,-33.82,7.812,-126.465,554.687,8.70,-1.95,-34.95,19.12
4954,-1.02,0.01,-32.95,137.695,-142.090,1013.672,11.25,-1.65,-33.00,19.60
4964,-2.98,-4.05,-32.18,257.324,-281.738,1045.410,11.70,-0.45,-36.30,19.45
4974,-2.29,-3.24,-31.24,-178.711,-80.566,1693.359,11.70,-0.45,-36.30,19.55
4984,2.11,-2.20,-35.37,128.906,133.301,1829.102,10.65,-2.25,-35.70,19.55
4994,11.11,5.77,-30.30,339.844,-409.668,737.305,13.05,-1.95,-33.45,19.40
5003,1.53,-0.44,-33.32,-105.469,-493.164,306.641,13.05,-1.95,-33.45,19.74
5015,-5.85,0.27,-36.84,-122.559,-154.785,666.016,12.45,-2.10,-33.75,19.55
5025,-0.77,-3.77,-35.94,34.668,-227.539,370.605,9.75,-2.10,-36.00,19.40
5035,3.24,-11.27,-37.09,115.234,-453.125,388.184,11.85,-1.50,-33.90,19.55
5045,-7.77,-6.43,-37.42,-104.980,-174.805,788.086,11.10,-1.95,-35.70,19.55
5059,8.20,-0.68,-36.37,274.902,-329.590,294.434,11.10,-1.95,-35.70,19.26
5069,2.34,-4.40,-29.83,270.508,362.305,1928.711,10.65,-3.15,-34.95,19.64
5081,1.75,-18.25,-30.27,-80.078,-268.555,1999.939,13.20,-2.85,-34.05,19.21
5091,-1.40,-9.85,-38.53,174.805,101.074,1833.008,12.00,-2.85,-35.25,19.12
5101,4.62,-0.67,-32.39,-118.164,-96.191,974.121,12.60,-2.70,-33.45,19.79
5111,-0.76,-0.18,-34.38,308.105,-626.953,169.922,12.60,-2.70,-33.45,19.64
5121,0.70,0.85,-28.08,223.145,-543.945,444.824,13.35,-0.30,-33.15,19.26
5131,-2.76,1.62,-32.00,545.898,-901.855,1105.957,12.45,-2.10,-33.00,19.12
5141,-5.80,-0.59,-28.98,558.105,-867.187,774.414,13.05,-2.25,-33.45,19.26
5153,-7.35,-2.18,-31.87,12.207,-452.637,1238.770,12.45,-2.55,-34.80,19.55
5163,-10.05,-1.91,-36.82,56.152,-6.348,844.727,12.45,-2.55,-34.80,19.36
5173,-1.56,-2.40,-33.71,304.687,-615.234,964.844,13.20,-2.55,-34.05,19.60
5183,8.15,0.08,-31.54,233.887,-278.809,1132.813,13.20,-2.55,-34.05,19.40
5193,5.16,0.67,-36.14,519.531,-547.852,671.387,13.20,-2.55,-34.05,19.45
5203,6.21,2.44,-34.62,-92.285,-67.383,1261.230,13.80,-4.65,-34.20,19.55
5213,4.69,2.88,-37.64,-11.719,-506.348,972.656,13.80,-4.65,-34.20,19.40
5225,3.24,1.37,-32.34,473.633,-639.648,1153.809,15.30,-4.65,-34.65,19.64
5235,2.80,11.79,-34.88,280.273,-473.145,1005.371,15.30,-4.65,-34.65,19.55
5245,-0.87,6.60,-37.80,59.570,-569.824,1076.172,14.40,-4.50,-34.50,19.12
5255,0.77,8.87,-33.19,171.387,-187.988,676.270,14.10,-4.35,-34.95,19.55
5264,1.66,5.81,-30.36,240.723,-633.301,602.051,14.85,-4.65,-33.90,19.45
5274,3.31,1.86,-38.22,279.785,-655.273,1090.332,14.70,-2.55,-35.55,19.40
5283,-1.55,1.08,-39.83,247.559,-368.652,1051.270,14.70,-2.55,-35.55,19.45
5295,2.98,-1.89,-37.55,-138.672,-565.430,758.301,14.55,-3.90,-36.90,19.40
5305,16.57,0.02,-33.56,140.137,-514.648,1258.789,14.85,-5.10,-33.15,19.21
5315,18.71,0.69,-40.24,-100.586,-564.453,662.109,13.80,-2.70,-35.40,19.55
5325,7.09,1.73,-38.06,-64.453,-927.246,1600.586,16.65,-5.25,-33.75,19.45
5335,-14.27,4.24,-40.82,213.379,-600.586,544.434,16.65,-5.25,-33.75,19.36
5345,-17.25,6.21,-47.83,-418.457,-384.277,851.074,15.75,-3.90,-32.40,19.64
5355,1.44,-0.36,-41.68,-291.992,246.094,1147.461,14.85,-5.55,-34.65,19.64
5367,-3.89,2.34,-37.32,471.191,-41.016,1028.320,14.85,-5.55,-34.65,19.64
5377,-2.72,-5.37,-38.62,71.289,-395.996,671.875,16.50,-6.75,-33.90,19.40
5387,10.59,-1.90,-34.75,140.625,-699.219,515.625,17.10,-2.85,-34.80,19.64
5397,2.31,-7.51,-35.89,-420.410,-309.570,1999.939,15.45,-6.15,-33.75,19.60
5407,-1.27,3.37,-36.55,-87.402,-495.117,704.590,15.45,-4.50,-35.25,19.55
5417,6.82,0.31,-38.30,265.137,-319.824,769.531,15.45,-4.50,-35.25,19.40
5426,5.70,2.19,-36.77,33.691,-351.074,649.414,15.15,-4.95,-35.55,19.40
5437,0.53,8.37,-35.04,-27.344,-299.316,576.660,16.50,-4.65,-33.15,19.45
5447,-11.34,3.76,-40.34,-82.520,-413.574,826.660,15.45,-5.70,-36.00,19.36
5457,0.50,-2.18,-38.91,237.793,-693.359,871.582,17.10,-6.45,-33.00,19.55
5467,-5.23,2.53,-26.03,-41.504,0.000,1764.160,17.10,-6.45,-33.00,19.55
5477,6.29,3.56,-38.73,-180.176,-172.363,1094.238,18.00,-5.55,-34.20,19.40
5487,4.82,2.29,-32.91,79.102,-449.707,1011.230,15.90,-6.90,-34.80,19.55
5496,7.82,4.73,-35.43,1.953,-324.219,1329.590,17.10,-4.95,-34.80,19.64
5507,7.92,0.66,-41.16,122.559,-636.230,1217.285,17.40,-7.65,-34.05,19.40
5517,7.74,5.05,-39.96,76.172,-518.066,886.230,17.40,-7.65,-34.05,19.55
5526,2.28,6.37,-41.18,-168.457,-422.852,1364.746,17.40,-7.65,-35.25,19.40
5536,0.02,1.26,-46.34,-203.613,-422.363,1963.867,17.25,-4.65,-35.70,19.64
5546,-4.10,1.11,-42.91,-122.559,-505.859,1793.457,17.25,-4.65,-35.70,19.12
5556,-1.88,-0.34,-40.53,160.156,-663.086,1770.508,17.40,-6.45,-36.75,19.21
5573,-2.80,-4.47,-46.51,-18.066,-411.133,1352.051,19.20,-7.05,-34.20,19.55
5582,-1.68,-5.28,-42.37,-170.410,-250.977,1369.629,17.85,-6.90,-36.75,19.40
5592,-5.85,-13.11,-47.47,-137.207,73.242,1193.359,19.20,-6.75,-34.20,19.64
5602,8.92,-10.34,-38.95,39.063,-925.293,1340.820,19.20,-6.75,-34.20,19.45
5612,0.41,-5.63,-42.44,72.754,113.770,749.512,19.35,-6.90,-34.50,19.45
5621,12.37,-3.53,-42.20,-87.891,-272.461,1058.594,18.75,-9.45,-34.20,19.55
5631,6.72,-4.41,-44.66,265.137,-660.156,181.641,17.55,-6.75,-35.40,19.74
5643,2.50,-5.19,-34.54,205.078,-583.496,664.551,18.60,-8.10,-33.75,19.64
5653,-1.07,-7.05,-34.17,245.117,-619.141,1078.125,18.60,-8.10,-33.75,19.60
5663,1.26,-7.29,-38.83,124.023,-243.164,809.570,19.20,-9.90,-33.90,19.55
5673,-4.53,-6.82,-34.32,-423.828,-437.012,1032.715,20.10,-8.85,-35.55,19.55
5683,2.74,1.77,-36.44,339.844,-290.039,753.418,20.55,-7.65,-34.50,19.74
5693,-1.88,-0.77,-38.66,-204.590,-414.551,202.637,20.10,-8.85,-36.00,19.40
5703,6.66,-1.30,-38.79,134.766,-688.965,191.895,20.10,-8.85,-36.00,19.64
5715,3.33,-3.19,-37.03,183.105,-192.383,457.031,20.10,-8.10,-36.00,19.36
5725,4.82,-3.74,-37.51,-381.836,-660.156,1458.008,19.65,-9.75,-35.25,19.64
5735,-4.16,-5.12,-36.92,-589.355,-556.152,1426.270,19.50,-9.15,-35.70,19.45
5745,-8.51,1.98,-46.05,28.320,-442.871,999.512,19.50,-9.15,-35.70,19.64
5755,-2.98,3.66,-47.91,-48.828,-432.129,698.730,20.10,-9.30,-36.30,19.45
5765,4.68,7.67,-34.78,-139.648,-622.070,786.621,22.05,-8.85,-36.00,19.21
5775,-4.29,3.51,-38.37,132.324,-204.590,1020.996,22.05,-8.85,-36.00,19.40
5787,10.50,-0.15,-41.38,21.484,-284.668,1803.223,20.85,-8.85,-36.30,19.36
5797,15.98,3.86,-40.56,-18.066,-575.195,1999.939,20.55,-11.25,-35.55,19.40
5807,2.37,1.94,-41.08,-49.805,-704.102,923.340,19.50,-8.70,-36.15,19.64
5817,0.76,1.17,-38.28,167.969,-547.363,817.383,20.25,-12.30,-36.60,19.55
5826,-11.76,-4.05,-53.02,116.699,-537.598,889.648,20.25,-12.30,-36.60,19.60
5836,-10.37,1.83,-38.56,107.422,-448.242,356.445,21.30,-10.50,-35.25,19.36
5846,-7.18,4.39,-41.11,35.645,-251.465,592.773,20.85,-12.45,-36.30,19.36
5858,-14.89,3.31,-46.95,-277.344,175.781,1133.301,20.10,-9.75,-36.00,19.07
5868,-0.82,4.77,-43.63,254.883,104.004,587.891,21.45,-12.75,-34.65,19.40
5878,0.76,4.60,-39.24,157.227,-230.469,762.695,21.45,-12.75,-34.65,19.64
5888,15.73,4.35,-36.89,450.684,-628.418,1657.227,21.30,-11.70,-36.00,19.45
5897,0.92,2.65,-37.51,461.426,-255.859,760.742,21.60,-12.45,-36.75,19.55
5907,1.18,3.25,-44.85,235.840,-378.418,1365.723,21.60,-10.50,-36.75,19.45
5916,-0.99,-2.71,-39.24,257.324,-1010.742,1162.598,20.10,-13.20,-36.30,19.64
5928,-6.51,0.46,-51.65,-5.859,-502.930,610.352,20.10,-13.20,-36.30,19.74
5938,-6.19,-2.63,-43.24,214.844,-320.801,964.844,21.90,-13.50,-36.15,19.55
5948,-9.18,5.09,-40.79,280.762,-83.496,345.215,21.60,-10.95,-37.05,19.64
5958,-9.56,0.27,-45.47,-601.074,-187.988,1236.816,21.60,-10.95,-37.05,19.55
5968,10.15,-7.28,-43.83,173.828,-381.836,862.793,21.45,-15.45,-36.60,19.60
5978,-0.07,-0.05,-45.67,576.172,-93.750,1008.789,22.65,-13.50,-36.60,19.60
5991,11.18,10.48,-39.39,-25.391,-900.391,595.215,22.65,-14.25,-36.90,19.40
6001,4.14,10.27,-33.56,-29.297,-206.543,588.867,22.05,-12.90,-37.05,19.64
6011,11.27,8.80,-40.20,513.184,-904.785,1006.348,22.05,-12.90,-37.05,19.26
6020,-8.33,9.39,-43.60,302.734,-655.273,459.473,21.30,-14.10,-37.80,19.74
6030,-15.79,5.02,-39.80,-170.898,-934.082,839.844,24.30,-12.45,-37.80,19.55
6040,-16.57,-0.47,-46.37,94.238,-507.812,823.242,22.35,-15.60,-36.30,19.64
6050,-12.53,1.38,-45.72,351.074,-316.406,1220.703,22.35,-14.10,-39.75,19.64
6062,-2.44,-6.07,-47.22,439.453,-748.535,83.984,22.35,-14.10,-39.75,19.60
6072,-4.04,-5.11,-53.62,-624.512,359.863,1421.387,22.80,-15.60,-37.50,19.60
6095,19.56,-9.34,-45.45,-43.457,-943.359,468.262,23.70,-14.70,-35.70,19.55
6104,15.54,5.98,-40.42,-573.242,-1133.301,767.090,22.35,-15.60,-38.25,19.40
6114,0.58,11.56,-49.97,215.332,-811.035,1024.414,22.35,-15.60,-38.25,19.36
6123,-0.02,9.05,-42.17,219.238,-1168.457,860.352,22.95,-16.20,-37.65,19.64
6133,-9.96,5.25,-43.66,-540.527,-482.910,916.504,23.25,-14.10,-37.50,19.55
6143,-8.16,2.13,-49.14,-30.273,-558.105,1463.379,23.25,-14.10,-37.50,19.64
6155,-11.05,-1.74,-43.85,116.699,-169.922,1945.313,21.30,-16.05,-38.55,19.55
6165,-6.16,0.47,-41.40,36.133,-319.824,1527.344,23.55,-14.85,-37.50,19.36
6175,-2.90,-3.72,-45.35,450.684,-796.387,787.109,24.75,-17.25,-36.30,19.26
6185,-11.11,3.29,-76.34,229.980,-616.211,765.625,22.95,-16.20,-38.10,19.64
6195,-8.69,-1.44,-50.57,-93.262,-297.852,722.168,22.95,-16.20,-38.10,19.45
6205,4.73,-12.83,-41.02,16.602,-628.906,999.512,23.70,-19.05,-38.40,19.40
6217,-1.28,-9.40,-43.89,-634.766,-175.293,1841.309,24.30,-18.45,-37.50,19.88
6227,10.65,1.76,-53.32,-3.418,-144.043,1270.996,22.95,-17.40,-38.10,19.64
6237,14.40,4.46,-48.62,284.180,-518.555,351.562,22.95,-17.40,-38.10,19.74
6246,8.34,5.26,-42.14,383.301,-405.273,359.863,22.95,-17.40,-38.10,19.26
6256,3.40,5.41,-44.37,-164.062,-985.840,1283.203,23.70,-17.85,-38.85,19.55
6266,-0.12,-1.89,-44.54,-365.234,-500.000,1316.406,23.70,-17.85,-38.85,19.74
6276,-1.49,-0.45,-43.06,222.656,-547.852,625.000,24.75,-20.10,-37.05,19.64
6288,2.79,-2.96,-49.69,-245.605,-541.504,1350.586,24.15,-17.85,-39.90,19.64
6298,-7.01,0.37,-40.66,55.176,-562.500,836.426,24.75,-20.40,-37.80,19.64
6308,-2.56,9.85,-37.67,-93.750,-237.793,694.824,22.95,-16.65,-39.15,19.64
6318,2.78,-2.59,-44.03,-443.848,-488.281,1999.939,22.95,-16.65,-39.15,19.45
6328,8.27,-0.26,-40.47,457.031,-744.629,631.348,24.15,-19.50,-38.85,19.40
6338,-3.12,4.09,-45.53,59.570,-715.820,646.973,24.60,-17.85,-38.85,19.74
6348,-8.12,-9.47,-48.20,-301.758,-770.508,1985.352,25.65,-22.20,-38.40,19.40
6360,-8.66,-4.70,-48.01,-38.086,-640.625,1735.840,23.25,-18.00,-38.55,19.45
6370,-9.16,-3.49,-53.09,-134.277,-610.352,1217.773,23.25,-18.00,-38.55,19.60
6380,-2.75,-5.05,-48.15,-47.363,-410.156,475.098,24.15,-21.90,-38.10,19.64
6390,-12.73,-3.89,-49.51,-780.273,442.383,1545.898,25.80,-19.65,-39.30,19.40
6400,11.24,-1.02,-47.08,277.832,-453.125,667.969,24.30,-21.30,-36.75,19.64
6410,2.82,2.50,-43.85,263.184,-446.777,525.879,23.70,-21.90,-38.85,19.40
6422,3.44,8.00,-46.93,30.762,-468.750,748.535,23.70,-21.90,-38.85,19.45
6432,2.67,6.89,-43.82,272.949,-893.555,954.102,24.15,-21.45,-36.90,19.36
6442,-2.05,-1.31,-44.67,-63.965,-738.281,1398.926,23.55,-22.50,-39.00,19.55
6452,9.39,5.31,-43.56,483.887,-787.598,421.875,24.15,-19.80,-38.85,19.45
6462,-19.71,10.39,-41.11,-368.652,-257.324,150.879,24.90,-23.10,-37.65,19.55
6472,3.36,0.69,-41.22,402.344,-1207.520,66.406,24.90,-23.10,-37.65,19.60
6482,-1.26,5.31,-43.46,284.668,-241.699,625.488,25.05,-22.05,-37.50,19.36
6494,-3.04,-2.10,-46.28,-593.750,-200.684,529.785,25.50,-24.45,-39.00,19.40
6504,13.37,-8.30,-51.05,1252.441,-746.094,-104.492,22.35,-22.50,-39.30,19.55
6514,-3.02,-2.82,-53.15,-145.996,-700.684,1363.770,24.30,-22.80,-38.25,19.40
6524,4.40,-4.44,-46.56,162.598,-872.070,831.055,24.60,-25.50,-37.35,19.64
6534,-15.13,2.50,-46.91,-533.691,-266.602,1179.199,23.70,-23.85,-39.60,19.45
6544,-0.42,-6.56,-42.47,534.668,-1395.996,84.473,24.75,-22.50,-39.30,19.45
6554,-16.79,12.11,-48.84,132.324,111.328,485.352,24.75,-22.50,-39.30,19.45
6566,-9.67,15.19,-37.82,-466.309,-435.059,538.574,23.25,-24.45,-39.75,19.64
6576,-4.34,5.27,-42.56,700.195,-512.207,1004.395,24.90,-23.10,-37.65,19.55
6586,-21.21,10.73,-43.05,-489.258,-243.652,1427.246,23.70,-26.25,-38.85,19.40
6596,5.79,2.88,-52.56,290.527,-1061.523,128.906,24.30,-25.65,-40.05,19.26
6611,0.78,2.83,-46.60,603.516,-878.418,700.684,23.70,-24.60,-37.65,19.40
6621,-3.37,-0.23,-47.10,-161.133,-692.871,1699.219,24.00,-25.95,-39.00,19.64
6633,-8.92,-4.69,-52.87,-281.738,-341.309,1575.684,22.80,-23.25,-39.00,19.40
6643,8.04,-2.79,-60.82,227.051,-493.164,1104.004,24.15,-25.80,-37.35,19.64
6653,-5.75,-6.87,-47.31,183.594,-686.523,1647.461,24.15,-25.80,-37.35,19.64
6663,-2.00,-2.16,-53.27,-396.484,-123.535,47.852,21.90,-26.25,-39.60,19.64
6673,-2.72,-1.40,-45.81,638.672,-490.234,400.391,24.30,-24.90,-36.30,19.64
6683,4.63,-8.51,-38.35,291.016,-521.484,624.512,23.55,-28.05,-37.50,19.55
6693,-1.66,-1.74,-41.43,119.141,-354.004,1222.168,21.90,-26.55,-39.60,19.64
6705,3.18,4.95,-45.70,-487.305,-896.973,-148.926,21.90,-26.55,-39.60,19.26
6715,-6.15,1.66,-37.11,492.676,-1143.555,748.535,24.60,-28.20,-39.15,19.74
6725,-6.40,3.05,-42.51,-350.098,226.562,825.684,23.25,-26.40,-39.00,19.64
6735,-2.08,-5.15,-41.28,541.504,-840.332,461.914,23.25,-26.40,-39.00,19.55
6745,-17.01,-5.05,-46.47,-651.367,379.395,1505.371,23.40,-27.45,-38.10,19.40
6755,12.50,-3.63,-43.08,144.531,-574.707,1376.953,24.60,-28.65,-39.90,19.26
6765,-0.38,-6.92,-35.01,520.508,-625.000,769.043,23.40,-27.45,-39.90,19.26
6777,-5.18,-6.34,-37.16,485.352,-740.234,836.426,24.15,-28.20,-38.40,19.40
6787,-10.30,-0.39,-48.60,-557.617,140.625,1294.922,24.15,-28.20,-38.40,19.40
6797,2.78,-4.76,-40.60,415.039,-1311.523,160.645,21.90,-25.80,-40.65,19.74
6807,-20.01,3.94,-48.66,-896.973,104.492,1737.793,22.20,-27.75,-38.85,19.64
6817,-2.24,-1.55,-39.79,577.148,-647.461,947.266,22.20,-29.85,-39.15,19.60
6827,-11.60,5.32,-44.02,-879.883,390.137,1242.676,21.90,-26.25,-39.15,19.64
6839,-18.84,-2.40,-39.95,-914.062,156.250,1212.891,23.25,-30.45,-40.50,19.64
6849,6.17,-1.37,-36.53,916.992,-1034.180,151.367,22.20,-27.45,-40.35,19.79
6859,-19.22,5.53,-39.43,-915.039,-105.469,543.945,22.65,-29.40,-38.85,19.79
6869,7.63,-3.51,-39.25,552.734,-1229.004,-45.898,23.40,-30.60,-38.85,19.40
6879,-19.62,1.15,-52.94,-1269.531,335.937,-110.352,23.40,-30.60,-38.85,19.64
6889,21.21,-8.49,-53.13,766.113,-1097.168,82.520,22.80,-28.05,-40.05,19.45
6899,2.05,0.54,-44.88,334.473,-428.223,858.398,21.90,-30.15,-38.85,19.79
6911,-7.53,-3.02,-52.64,42.969,298.828,1402.832,21.90,-30.15,-38.85,19.74
6921,5.73,-6.50,-44.08,154.297,-925.781,1151.855,22.65,-29.85,-39.15,19.45
6931,-2.54,-3.40,-45.27,129.395,-336.914,396.973,21.90,-30.15,-38.40,19.45
6941,-11.59,-10.28,-47.05,199.219,-875.488,1709.961,21.45,-31.05,-40.65,19.36
6951,1.60,-4.11,-42.56,-862.793,-51.758,1074.707,21.60,-29.55,-39.75,19.12
6961,4.98,-7.89,-40.73,479.492,-800.293,123.535,21.60,-29.55,-39.75,19.40
6971,-1.92,-6.96,-40.01,-992.676,-366.211,1264.160,21.45,-31.80,-40.35,19.64
6983,-9.96,-3.02,-30.19,-241.699,-199.707,1367.188,20.85,-29.55,-39.00,19.60
6993,12.38,1.48,-52.58,-200.195,-659.180,303.711,21.60,-30.75,-40.05,19.79
7003,-1.31,1.82,-34.56,211.914,-821.289,741.211,21.60,-30.75,-39.75,19.45
7013,-1.46,0.57,-50.36,-53.711,-106.445,647.949,21.60,-30.75,-39.75,19.55
7023,-3.63,-1.02,-35.27,279.785,-1077.637,815.430,21.30,-29.55,-39.75,19.74
7033,-4.40,13.46,-34.16,-746.094,-123.535,645.508,21.60,-31.65,-40.80,19.40
7045,-15.45,-0.08,-34.32,-671.875,-28.320,1839.355,21.30,-30.75,-41.55,19.40
7055,5.31,-1.79,-43.31,422.852,-675.293,880.859,21.60,-31.20,-41.25,19.36
7065,3.18,-2.20,-33.37,-457.031,-508.789,1999.939,21.60,-31.20,-41.25,19.64
7075,19.66,3.00,-34.25,428.223,-637.207,575.195,21.45,-31.35,-41.40,19.64
7085,5.77,3.08,-40.66,-293.945,-1128.906,1999.939,21.45,-30.60,-40.35,19.55
7095,19.75,-4.89,-33.05,-99.121,-849.121,204.590,21.45,-30.60,-40.35,19.74
7105,-9.00,-6.10,-35.16,473.145,-830.078,1372.070,19.65,-33.15,-41.55,19.64
7117,-2.77,-7.89,-33.21,645.020,-783.203,852.051,20.85,-31.20,-39.75,19.45
7131,-17.70,2.37,-30.02,-836.426,84.961,1698.730,20.55,-33.15,-39.30,19.40
7141,6.43,-0.96,-34.02,538.086,-847.656,285.645,20.55,-33.15,-39.30,19.74
7151,6.31,3.83,-41.95,172.363,-409.180,1146.973,20.25,-31.80,-38.10,19.64
7160,11.53,-1.30,-30.85,241.211,-730.469,1498.047,19.35,-33.15,-41.25,19.45
7170,2.85,3.77,-32.77,-144.531,-818.848,1506.836,20.55,-32.40,-41.25,19.45
7180,10.30,-2.49,-37.47,-277.344,-950.195,253.418,18.75,-32.25,-41.85,19.64
7192,12.88,-5.63,-41.34,-222.168,-872.559,456.055,18.75,-32.25,-41.85,19.36
7202,-2.89,7.50,-42.33,-125.000,-341.309,728.516,19.20,-30.60,-41.10,19.55
7212,4.79,-4.02,-44.74,95.215,-969.238,470.215,20.55,-32.40,-42.45,19.64
7222,-4.08,-4.53,-40.63,-249.512,-325.195,596.191,19.65,-31.65,-41.55,19.55
7232,-8.82,1.73,-42.76,67.871,-613.281,1175.293,19.50,-33.00,-41.10,19.55
7242,-12.70,7.31,-37.00,-372.559,5.371,1542.480,19.50,-33.00,-41.10,19.64
7254,2.74,4.36,-40.63,-282.227,-454.102,1720.215,19.50,-30.60,-40.65,19.64
7264,7.96,3.60,-34.11,-14.648,-709.961,734.863,21.30,-32.40,-41.25,19.45
7274,-6.46,1.23,-40.98,-385.742,-529.785,967.773,21.30,-32.40,-41.25,19.64
7284,2.49,-2.44,-45.53,0.488,-494.629,517.578,19.35,-32.40,-40.50,19.64
7294,-0.60,-3.04,-41.98,-165.039,-695.801,1485.352,20.25,-34.95,-42.15,19.64
7304,-3.94,-4.34,-34.40,147.461,-497.559,330.078,19.50,-33.45,-42.60,19.40
7314,-12.93,-5.35,-19.03,-301.270,-207.520,710.449,19.65,-31.95,-41.25,19.55
7326,3.70,-4.62,-33.98,-369.629,-634.277,1227.539,19.65,-31.95,-41.25,19.40
7336,1.31,-4.80,-39.15,-286.133,-365.234,1023.926,18.45,-33.00,-40.65,19.64
7346,2.63,1.49,-39.19,-183.594,-612.793,1093.750,19.65,-34.35,-42.00,19.60
7356,7.81,0.96,-34.81,97.656,-791.504,906.738,18.60,-33.60,-41.25,19.26
7365,-4.34,-0.35,-36.90,-595.215,-281.250,1580.078,17.85,-34.35,-40.80,19.55
7375,9.60,-3.85,-36.72,15.625,-821.777,1012.695,17.85,-34.35,-40.80,19.74
7385,-2.16,2.67,-39.40,-151.367,-236.328,1208.008,18.75,-33.00,-41.10,19.74
7397,9.22,-1.11,-29.16,-321.289,-666.992,1064.453,17.40,-34.35,-40.80,19.79
7407,1.54,-4.12,-37.98,34.668,-527.832,1500.000,17.55,-32.55,-40.35,19.55
7417,-0.16,1.95,-37.10,213.867,-381.348,332.520,18.15,-35.55,-41.55,19.64
7427,1.32,-0.80,-35.32,-218.750,-551.758,1733.398,18.15,-35.55,-41.55,19.26
7437,5.37,4.10,-34.50,-35.645,-514.160,557.129,18.15,-34.05,-41.25,19.64
7447,-0.89,2.09,-36.35,79.590,-604.004,699.219,17.55,-34.95,-40.35,19.60
7457,-1.81,-5.38,-31.77,256.348,-873.535,1161.621,17.40,-35.25,-40.80,19.64
7469,-1.11,-2.00,-35.11,-305.664,-496.094,777.832,17.85,-34.35,-39.30,19.64
7479,6.24,-5.26,-40.03,632.812,-1079.102,606.445,17.40,-34.80,-40.80,19.55
7489,-1.85,1.11,-28.58,-263.184,-286.133,1136.230,17.40,-35.55,-40.05,19.64
7499,6.53,1.27,-47.49,-419.434,-889.160,1738.281,15.75,-34.65,-40.65,19.74
7509,11.56,-4.85,-37.13,-35.156,-696.289,1838.867,15.75,-34.65,-40.65,19.45
7519,5.52,-0.56,-37.90,92.773,-916.016,939.941,16.20,-33.60,-39.30,19.79
7531,4.90,-6.73,-38.75,174.316,-887.695,682.129,15.90,-34.80,-40.50,19.40
7541,-3.92,-9.58,-38.63,-305.176,-389.648,1805.664,16.20,-33.60,-40.50,19.64
7551,6.79,-5.68,-40.31,183.105,-879.883,283.691,16.20,-33.60,-40.50,19.79
7561,-8.60,-5.99,-37.73,-285.156,35.645,1248.535,14.70,-35.55,-40.05,19.45
7571,2.84,-6.78,-42.96,54.688,-334.473,459.961,15.90,-34.35,-39.75,19.36
7581,-0.42,-1.12,-29.95,-754.395,35.156,1347.168,16.05,-34.20,-39.15,19.45
7591,12.86,-0.37,-38.62,156.250,-922.363,876.465,15.75,-34.65,-39.90,19.45
7603,1.57,-1.86,-37.50,145.020,-1269.043,316.406,15.75,-34.65,-39.90,19.40
7613,-14.91,7.73,-36.90,38.086,53.711,424.805,14.55,-35.85,-39.60,19.26
7623,8.69,-8.24,-23.08,-62.012,-531.738,660.645,15.15,-35.25,-39.30,19.74
7633,6.08,3.44,-33.88,55.176,-375.977,561.035,15.45,-34.35,-40.50,19.74
7647,5.09,-7.02,-46.16,114.258,-485.352,1075.195,15.15,-36.00,-39.75,19.45
7657,-1.36,-2.76,-37.76,106.934,-514.160,1118.652,15.15,-36.00,-39.75,19.45
7667,-10.55,-1.02,-37.16,-674.316,-118.652,1523.438,16.05,-36.60,-38.85,19.64
7677,5.00,3.78,-33.94,346.191,-650.391,350.586,15.30,-36.60,-39.15,19.74
7688,-0.54,-2.44,-43.94,-278.320,-527.344,1402.344,15.30,-36.60,-39.15,19.55
7698,14.95,6.24,-34.33,153.320,-476.074,469.238,15.30,-35.85,-38.85,19.74
7707,-1.79,6.17,-28.70,-91.309,-316.406,900.879,14.55,-36.15,-39.15,19.88
7717,6.63,1.94,-34.63,-29.297,-827.148,1342.285,14.55,-35.40,-40.35,19.36
7727,0.86,11.24,-38.80,-149.902,-659.180,421.387,13.95,-35.55,-37.80,19.74
7737,-0.55,1.63,-33.66,-362.793,-777.344,1999.939,13.95,-35.55,-37.80,19.60
7747,5.08,0.08,-36.39,126.953,-745.117,1026.855,13.80,-35.85,-38.40,19.79
7758,0.36,-1.21,-39.31,-170.898,-829.102,1765.137,15.15,-37.20,-39.30,19.64
7768,-0.74,7.48,-33.51,-74.219,-507.324,451.660,14.10,-36.60,-39.60,19.55
7778,-8.82,1.47,-31.28,-559.082,-497.559,1299.805,13.50,-36.45,-39.30,19.79
7788,-0.47,-6.47,-43.05,123.535,-190.430,508.301,13.50,-36.45,-39.30,19.40
7798,-6.59,-2.15,-34.85,-230.469,222.168,1253.906,13.20,-37.20,-38.25,19.74
7808,4.02,-1.11,-35.19,-213.379,-658.691,716.797,14.85,-36.15,-39.60,19.79
7820,5.69,-0.08,-37.81,-339.844,-755.859,1507.813,13.05,-38.25,-38.40,19.74
7830,7.18,6.62,-34.71,83.496,-622.559,585.449,14.40,-35.55,-40.05,19.79
7840,-0.83,2.21,-41.53,-185.059,-519.043,909.668,14.40,-35.55,-40.05,19.55
7850,3.08,0.70,-34.95,-88.867,-455.078,753.418,12.45,-36.45,-38.25,19.55
7860,-4.61,6.63,-39.53,-224.121,-332.520,591.797,13.80,-37.35,-39.90,19.60
7870,1.08,-0.99,-39.68,142.090,-666.504,1032.227,13.95,-36.45,-39.30,19.45
7880,-2.49,-0.64,-39.15,-66.406,-386.719,663.086,14.40,-37.20,-39.30,19.64
7892,2.57,-3.61,-42.00,-9.277,-391.602,1287.598,13.35,-36.60,-39.15,19.74
7902,5.14,-2.70,-37.56,-134.277,-570.312,1022.461,13.20,-36.00,-40.05,19.74
7912,7.85,-7.07,-37.20,-86.426,-1017.090,1432.617,13.20,-36.00,-40.05,19.74
7922,5.46,-1.83,-40.02,-255.859,-626.953,723.145,12.60,-37.05,-39.60,19.79
7932,8.74,2.31,-37.57,-248.047,-190.918,1308.594,12.60,-37.35,-38.85,19.60
7942,9.20,0.44,-35.37,11.230,-444.336,1111.328,12.45,-37.20,-38.25,19.45
7951,1.93,-2.70,-36.95,235.840,-934.082,745.117,13.50,-37.20,-39.75,19.74
7963,-5.08,-0.98,-37.71,-42.969,-526.367,670.898,13.50,-37.20,-39.75,19.74
7973,2.45,-5.80,-36.13,-288.086,-219.238,1328.613,11.85,-37.35,-38.10,19.64
7983,8.34,-0.24,-31.95,132.324,-548.340,390.625,12.00,-38.40,-39.30,19.64
7993,6.42,-0.17,-39.02,-286.133,-713.867,1454.102,11.85,-36.60,-38.10,19.55
8003,15.27,0.73,-43.30,-91.309,-917.480,709.961,11.85,-36.60,-38.85,19.74
8013,2.52,3.65,-36.75,-110.840,-594.238,705.566,11.85,-36.60,-38.85,19.40
8023,5.28,-3.81,-40.44,-45.410,-418.457,845.215,11.70,-37.65,-39.00,19.45
8035,0.45,-1.38,-35.49,-136.719,-351.074,804.199,11.40,-37.80,-38.85,19.45
8045,4.38,-2.01,-40.41,68.848,-457.031,478.027,11.40,-36.15,-38.10,19.74
8055,-3.28,-0.08,-39.08,-441.406,-390.625,1042.969,11.10,-36.60,-38.10,19.55
8065,7.77,-0.54,-36.34,-197.754,-849.121,783.203,11.10,-36.60,-38.10,19.60
8075,6.30,-0.27,-31.25,-131.836,-490.723,989.258,11.40,-36.60,-38.40,19.93
8085,0.69,3.69,-36.52,-542.480,-388.672,1506.836,11.85,-37.80,-36.90,19.60
8097,5.05,3.69,-42.45,-330.566,-420.410,1285.156,11.85,-37.80,-36.90,19.79
8107,1.57,0.82,-33.92,-66.406,-975.098,1999.939,11.10,-37.35,-37.65,19.64
8117,2.47,3.42,-37.54,-332.520,-170.898,1241.699,10.95,-38.70,-36.30,19.88
8127,7.46,2.18,-30.54,-431.152,-520.020,1983.398,9.30,-38.40,-37.05,19.55
8137,11.42,1.90,-35.85,171.875,-646.973,1018.066,10.50,-37.65,-37.80,19.64
8147,1.14,4.47,-40.62,-420.410,-639.160,1203.613,10.50,-37.65,-37.80,19.74
8164,-6.89,2.57,-43.14,-244.141,-270.508,704.102,10.95,-38.40,-37.80,19.64
8173,2.66,4.18,-40.11,58.105,-433.105,1140.625,10.50,-37.95,-37.80,19.64
8183,6.09,-4.70,-32.23,122.559,-591.309,1387.695,11.25,-37.95,-37.50,19.93
8193,8.44,-3.62,-43.19,288.574,-340.332,835.937,11.25,-37.95,-37.50,19.64
8203,-1.11,1.88,-36.35,-76.660,-638.672,1375.977,10.05,-37.20,-37.50,19.45
8213,-1.32,2.24,-39.87,-112.793,-878.418,959.961,10.35,-39.30,-38.10,19.93
8223,-4.80,-2.09,-36.45,-104.004,-500.977,487.793,10.65,-38.25,-36.60,19.64
8235,-11.89,-3.55,-44.52,-203.125,-175.293,1093.750,9.90,-38.55,-36.15,19.64
8245,-2.79,-2.25,-39.72,-59.570,-116.699,736.816,9.90,-38.55,-36.15,19.93
8255,0.63,-3.15,-35.40,-351.074,18.066,1227.051,12.30,-39.30,-38.10,19.64
8265,6.92,0.50,-36.25,-411.133,-549.316,1439.941,9.15,-37.80,-37.35,19.64
8275,11.18,1.94,-44.95,-117.676,-604.492,651.367,9.30,-39.15,-35.25,19.40
8285,7.05,-1.12,-36.48,-46.387,-584.473,1078.125,9.30,-39.60,-37.50,19.79
8295,0.76,4.02,-37.91,-333.496,-339.844,1640.137,9.60,-39.00,-36.90,19.60
8307,-2.40,6.52,-44.18,-4.883,-715.332,1246.582,9.60,-38.25,-37.65,19.40
8317,5.29,-3.45,-41.37,-189.941,-529.297,1189.941,10.50,-39.15,-36.30,19.79
8327,11.46,-3.95,-35.85,67.871,-826.172,1017.578,10.50,-39.15,-36.30,19.74
8337,0.74,-0.46,-39.83,-313.965,-335.449,1162.109,8.70,-38.55,-37.35,19.60
8347,-2.86,-4.77,-41.27,-166.016,-667.480,1201.172,9.15,-38.55,-37.35,19.64
8357,-1.98,-6.14,-44.91,35.156,-665.527,614.258,9.15,-39.75,-36.90,19.45
8367,-1.04,-6.39,-46.44,-34.668,-180.664,1314.453,8.55,-38.70,-36.30,19.64
8379,0.61,1.03,-49.05,-85.449,-675.293,806.152,8.55,-38.70,-36.30,19.36
8389,4.95,-3.49,-42.75,-125.977,-790.527,622.559,7.35,-39.60,-36.75,19.64
8399,-5.11,-4.63,-38.19,-312.988,-331.055,1007.812,8.40,-38.25,-37.35,19.74
8409,-2.27,-8.17,-44.72,62.500,-695.801,1026.855,9.00,-39.60,-36.75,19.64
8419,-8.52,3.51,-45.79,-357.422,-37.598,498.047,9.15,-37.80,-36.90,19.64
8429,-6.11,1.24,-42.73,-471.191,-221.680,1163.086,9.15,-37.80,-36.90,19.64
8439,4.05,3.75,-38.51,-134.766,-578.125,372.070,8.55,-39.15,-37.05,19.45
8451,3.54,3.72,-42.15,-491.211,-404.785,1430.176,7.20,-39.75,-35.70,19.40
8461,4.15,1.36,-37.89,-182.129,-480.469,1248.047,7.95,-40.95,-35.40,19.55
8471,3.98,12.49,-46.01,-198.730,-626.953,725.586,7.95,-40.50,-36.60,19.74
8481,3.56,9.34,-29.76,-178.223,-508.789,941.406,7.95,-40.50,-36.60,19.64
8491,5.08,5.24,-45.22,179.199,-737.305,1381.836,7.80,-39.90,-36.30,19.88
8501,-0.63,-4.37,-40.81,11.230,-973.145,855.469,7.35,-40.35,-36.00,19.79
8511,-7.08,1.91,-33.97,-249.023,-473.145,855.957,7.35,-40.35,-36.00,19.64
8523,-0.91,1.60,-46.34,-301.270,-517.578,792.969,6.60,-40.80,-36.30,19.64
8533,7.69,-1.31,-51.64,214.844,-664.551,992.187,6.90,-40.50,-36.15,19.64
8543,3.70,-6.65,-46.80,-264.160,-612.305,1582.520,7.20,-40.50,-35.70,19.55
8553,4.27,-3.60,-44.61,-152.344,-459.473,1408.691,7.20,-40.50,-35.70,19.79
8563,-0.79,-0.95,-50.05,-84.473,-462.891,888.184,7.20,-41.40,-36.15,19.79
8573,-7.08,2.19,-49.81,-264.160,-519.531,486.328,6.15,-40.20,-36.15,19.74
8585,-5.14,1.89,-45.11,-204.102,-334.473,1366.699,5.85,-40.80,-35.25,19.64
8595,-3.27,8.77,-47.66,62.988,-527.832,488.281,6.60,-40.80,-37.05,19.88
8605,-2.24,1.85,-38.93,-2.441,-310.059,916.992,6.60,-40.80,-37.05,19.60
8615,-5.72,0.17,-44.89,47.363,-268.555,332.520,5.10,-40.35,-36.00,19.74
8625,0.84,-3.83,-44.49,81.543,-329.590,488.770,6.30,-40.35,-36.30,19.64
8635,9.74,-1.47,-41.55,-27.832,-443.848,1783.203,5.70,-40.95,-36.90,19.88
8645,7.69,-5.21,-42.69,-254.883,-311.523,1549.805,5.55,-42.00,-36.30,19.64
8657,0.70,-0.99,-45.61,-82.031,-352.051,659.180,5.55,-42.00,-36.30,19.64
8667,-2.79,2.11,-43.65,-158.691,-513.184,1534.180,4.80,-41.10,-34.80,19.64
8682,-1.43,3.11,-32.15,-166.504,-354.492,1624.023,5.10,-39.60,-35.55,19.45
8691,-1.81,-4.01,-35.65,-101.563,-844.727,1097.656,5.55,-41.55,-37.50,19.36
8701,-1.24,-3.02,-43.24,-2.441,-216.797,937.012,3.45,-42.15,-36.15,19.74
8711,5.69,2.26,-39.47,38.086,-507.812,864.746,3.45,-42.15,-36.15,19.74
8721,8.81,-0.03,-49.06,84.473,-684.082,1251.953,4.95,-42.60,-35.40,19.74
8731,10.52,3.67,-34.68,-435.059,-170.410,1248.535,3.90,-42.00,-35.55,19.64
8743,8.79,-3.83,-42.23,12.695,-660.156,1196.289,3.90,-42.00,-35.55,19.79
8753,1.76,-3.60,-45.50,-438.965,-447.266,1557.129,3.45,-41.70,-34.95,19.88
8763,2.31,-4.70,-44.63,212.402,-657.715,1077.148,3.45,-41.70,-34.95,19.60
8773,1.89,-3.55,-40.92,240.234,-499.512,978.516,2.85,-43.20,-34.80,19.36
8783,-8.92,-5.44,-47.15,-97.168,-662.109,1754.883,3.45,-41.40,-34.95,19.74
8793,-3.33,-10.11,-41.75,84.473,-490.234,661.621,3.45,-41.40,-34.95,19.88
8805,15.93,-7.86,-43.84,-255.859,-537.598,869.141,2.10,-41.55,-36.00,19.74
8815,6.42,0.09,-43.15,-125.000,-324.707,1519.531,3.00,-42.15,-34.20,19.45
8825,-2.35,-0.38,-46.97,368.652,-875.000,763.672,2.55,-40.95,-35.70,19.79
8835,-18.26,0.12,-42.40,32.227,195.801,1370.117,2.55,-40.95,-35.70,19.60
8845,-10.24,-4.29,-48.51,-268.555,-594.238,1863.281,1.65,-41.55,-35.25,19.55
8855,-6.41,-3.51,-42.24,34.668,-366.211,382.324,1.65,-43.95,-35.55,19.45
8865,-1.31,-2.94,-46.01,-105.469,-547.363,760.742,0.00,-43.35,-35.40,19.55
8877,-0.69,-4.82,-41.47,-244.629,-391.113,1215.820,0.45,-42.30,-34.05,19.55
8887,2.49,-0.58,-43.98,227.539,-573.730,534.668,0.45,-42.30,-34.05,19.74
8897,5.14,1.06,-42.79,98.633,-214.355,1472.168,1.05,-42.60,-35.70,19.79
8906,-4.89,-0.75,-36.73,71.289,-279.297,1328.125,0.90,-43.20,-34.80,19.64
8916,6.47,-3.74,-40.39,-252.441,-824.219,1087.891,0.45,-43.20,-34.05,19.79
8926,6.08,-0.36,-45.52,-54.688,-49.805,719.727,0.45,-42.75,-34.80,19.40
8936,6.73,3.62,-35.53,171.387,-604.492,243.164,0.75,-43.35,-34.65,19.64
8948,0.01,-4.60,-42.83,-287.598,-863.770,1546.875,0.30,-42.90,-35.40,19.64
8958,-9.24,4.72,-54.14,43.457,-420.410,661.621,0.00,-43.35,-34.65,19.93
8968,-3.77,-2.51,-49.02,121.582,-607.422,1138.184,0.00,-43.35,-34.65,19.64
8978,0.02,2.08,-37.90,-214.355,-530.273,1578.613,-1.05,-40.95,-36.15,19.55
8988,9.65,-8.74,-48.48,-312.500,-410.156,1423.828,-1.50,-43.35,-33.45,19.88
8998,7.81,5.21,-43.76,-196.777,-454.102,111.328,-1.05,-42.90,-35.70,19.98
9008,1.92,-1.98,-42.66,392.578,-839.355,163.086,0.15,-42.75,-34.05,19.36
9020,5.92,-2.59,-49.87,16.113,-540.527,364.258,0.15,-42.75,-34.05,19.74
9030,2.21,2.09,-37.44,-9.766,-81.543,1029.297,-0.15,-41.10,-35.55,19.45
9040,-7.02,-2.54,-36.79,-337.891,-197.266,1721.191,-1.80,-43.35,-33.90,19.64
9050,-6.85,-1.97,-39.20,-126.465,-724.609,1365.234,-1.50,-41.70,-36.15,19.88
9060,-13.17,-1.35,-56.82,-28.320,-457.031,500.977,-2.25,-40.95,-34.65,19.64
9070,-19.03,-2.91,-36.60,139.648,-750.000,1415.039,-2.25,-40.95,-34.65,19.64
9080,-4.89,1.27,-48.02,-202.637,275.391,1065.918,-2.85,-41.55,-34.50,19.64
9092,7.30,4.04,-46.57,-163.086,-161.133,1237.305,-2.40,-43.95,-35.25,19.74
9102,16.15,10.08,-36.20,-45.410,-723.633,1097.656,-2.85,-43.20,-34.50,19.79
9112,9.50,2.31,-45.88,114.258,-1254.395,1643.066,-1.80,-43.35,-34.95,19.45
9122,-4.33,0.82,-49.36,-182.617,-608.887,555.176,-1.80,-43.35,-34.95,19.64
9132,-1.15,6.84,-45.94,5.371,-79.102,474.609,-3.45,-42.60,-34.95,19.64
9142,-5.76,0.74,-45.08,263.184,-479.980,976.562,-3.00,-42.60,-33.15,19.55
9154,-4.47,-8.44,-52.18,245.605,-632.324,423.340,-3.00,-42.60,-33.15,19.88
9164,-1.20,2.19,-44.97,228.027,-448.242,1949.707,-2.40,-42.00,-34.05,19.74
9174,5.81,-3.05,-40.90,72.266,-675.781,1415.527,-4.35,-43.20,-34.50,19.79
9184,-4.37,-2.55,-52.52,-96.680,-424.805,479.004,-4.35,-42.00,-35.25,19.55
9199,0.36,1.13,-51.13,-395.996,-587.402,1195.313,-4.35,-41.55,-33.30,19.93
9208,-1.15,5.44,-55.34,64.453,-440.918,506.836,-4.35,-41.10,-34.05,19.64
9220,3.24,-5.52,-33.57,79.590,-465.820,986.328,-5.85,-42.00,-36.30,19.64
9230,-5.36,7.31,-41.31,-37.109,-520.020,457.031,-5.10,-41.55,-36.00,19.64
9240,-10.72,2.85,-45.21,33.691,-283.203,1254.883,-6.30,-43.20,-34.50,19.79
9250,1.30,-5.70,-44.70,-60.059,-545.898,843.262,-6.30,-43.20,-34.50,19.55
9260,-3.97,-1.58,-40.50,-212.402,-433.105,722.168,-4.80,-42.00,-35.25,19.55
9270,5.95,4.19,-46.94,-312.012,-371.094,935.547,-4.80,-42.30,-35.25,19.45
9280,8.92,10.92,-44.82,-35.156,-231.445,1044.434,-6.45,-41.70,-33.45,19.74
9292,3.48,7.36,-43.66,-82.520,-562.500,96.680,-5.55,-42.00,-34.50,19.79
9302,1.72,12.92,-42.75,140.625,-434.082,42.969,-5.55,-42.00,-34.50,19.93
9312,11.04,-0.34,-43.79,-312.012,-1169.922,1981.934,-6.45,-41.70,-33.90,19.60
9322,-0.87,11.76,-44.54,172.852,-792.480,953.125,-6.90,-41.40,-33.90,19.79
9332,-11.53,2.90,-51.67,-259.766,-421.387,1167.969,-6.15,-40.50,-35.70,19.74
9342,-6.10,0.56,-45.63,-88.867,-695.801,944.336,-7.05,-42.30,-34.05,19.36
9352,-9.85,3.94,-47.69,-305.176,23.437,1999.939,-7.05,-42.30,-34.05,19.74
9364,1.40,3.82,-48.40,-238.281,-298.340,1093.262,-6.45,-41.70,-33.90,19.64
9374,1.34,2.95,-48.15,-48.340,-663.086,1134.766,-6.90,-43.80,-34.20,19.74
9384,2.50,5.79,-48.76,-646.484,-554.687,1274.902,-6.90,-43.80,-34.20,19.64
9394,1.53,0.69,-49.44,-312.500,-1085.449,1999.939,-7.95,-41.40,-34.95,19.64
9404,-6.89,1.36,-54.98,-235.352,-442.871,928.711,-7.95,-40.50,-34.65,19.98
9414,3.81,6.09,-48.31,320.312,-543.457,619.141,-6.90,-42.15,-33.45,19.45
9424,3.66,1.29,-52.34,3.418,-932.129,1339.844,-8.55,-41.10,-35.25,19.55
9436,8.47,-1.07,-51.06,340.332,-830.566,330.078,-9.30,-41.10,-32.25,19.88
9446,-7.20,3.49,-46.26,-279.297,-1121.582,1987.305,-9.60,-39.00,-34.65,19.45
9456,2.95,-0.29,-43.85,-272.949,-134.277,1208.496,-8.55,-40.80,-33.75,19.74
9466,2.50,6.63,-48.44,-153.809,-119.629,333.008,-9.00,-41.55,-33.75,19.74
9476,4.60,-1.53,-51.28,119.141,-721.191,621.582,-9.00,-41.55,-33.75,19.79
9486,-17.76,-0.15,-46.04,-461.914,-159.180,1459.961,-9.90,-40.50,-31.95,19.64
9499,-4.89,-7.37,-45.79,-48.340,-15.137,-22.461,-9.30,-39.15,-33.00,19.64
9508,-10.98,-4.82,-45.42,-645.508,-349.121,1708.008,-10.35,-40.20,-31.65,19.74
9518,1.95,-9.47,-47.15,-111.816,-748.535,857.422,-10.50,-41.10,-33.00,19.74
9528,-3.99,-6.64,-47.37,-225.586,-325.195,669.434,-10.50,-41.10,-33.00,19.55
9538,-2.79,-3.37,-50.50,-57.617,-644.531,1466.309,-10.35,-40.20,-31.95,19.64
9548,5.23,3.47,-44.54,-186.523,-248.047,1666.504,-12.30,-39.00,-33.90,19.79
9558,8.33,-2.52,-48.74,-145.508,-492.676,1190.918,-12.30,-39.00,-33.90,19.55
9570,9.76,0.26,-50.11,-394.043,-781.250,1229.004,-12.30,-40.50,-32.40,19.93
9580,9.92,-1.05,-49.42,22.461,-841.309,562.988,-11.40,-38.25,-33.45,19.74
9590,4.67,2.77,-51.25,-90.820,-841.797,585.449,-11.40,-38.55,-31.65,19.74
9600,-4.15,3.43,-47.35,166.992,-210.449,1268.555,-13.35,-38.55,-33.15,19.88
9610,0.31,3.60,-47.99,-101.563,-437.012,1625.977,-13.35,-38.55,-33.15,19.12
9620,-1.14,3.35,-49.81,-260.742,-588.867,801.758,-12.00,-38.70,-32.55,19.88
9630,-5.60,1.41,-53.15,-206.055,-446.777,401.855,-13.05,-36.60,-33.15,19.79
9642,-0.58,-0.27,-44.11,-277.832,-555.664,1735.840,-13.80,-38.25,-31.65,19.64
9652,2.07,1.37,-45.37,229.004,-155.273,456.055,-13.35,-37.35,-32.40,19.74
9662,4.79,4.50,-43.86,193.848,-415.527,986.816,-13.35,-37.35,-32.40,19.64
9672,3.89,0.05,-50.49,-89.355,-462.891,1378.906,-11.70,-38.70,-33.00,19.79
9682,7.63,-4.21,-42.60,-147.461,-570.312,1111.328,-13.35,-35.40,-31.95,19.64
9692,-0.69,-5.38,-52.66,62.500,-1050.781,375.488,-13.50,-37.20,-32.25,19.55
9704,-5.11,-8.11,-52.02,-391.113,-362.305,1301.758,-13.50,-37.65,-32.55,19.64
9719,2.08,-3.51,-53.18,56.641,-587.891,486.816,-14.85,-36.15,-32.70,19.74
9728,-0.07,2.47,-46.21,-209.961,-332.520,1577.148,-14.10,-35.85,-33.45,19.74
9738,13.11,7.61,-43.73,-845.703,-169.434,1202.148,-14.10,-35.85,-33.45,19.64
9748,3.98,-3.38,-49.44,-329.102,-597.168,994.629,-15.30,-37.80,-31.95,19.74
9758,-2.10,8.63,-38.63,231.445,-488.281,238.770,-13.35,-34.65,-32.40,19.45
9770,2.97,6.70,-46.05,654.297,-732.910,258.789,-14.40,-37.95,-31.80,19.79
9780,0.92,6.37,-53.72,372.070,-534.668,425.781,-14.40,-35.55,-33.30,19.64
9790,-3.66,-4.24,-41.98,-376.465,-1588.867,1999.939,-14.40,-35.55,-33.30,19.55
9800,-2.73,-2.37,-51.95,-521.484,-635.254,961.914,-16.05,-37.05,-32.70,19.79
9810,-2.66,-1.80,-38.41,643.555,-342.285,981.445,-16.50,-34.20,-32.70,19.93
9820,-5.41,3.41,-50.12,-271.973,-101.563,1879.395,-14.55,-35.40,-32.40,19.64
9830,5.76,5.95,-47.21,-132.324,-916.504,1513.184,-14.70,-36.75,-33.75,19.45
9842,-4.05,6.39,-43.66,-754.395,-634.766,416.992,-14.70,-36.75,-33.75,19.93
9852,22.39,3.20,-49.08,234.863,-830.078,275.391,-15.15,-35.25,-31.50,19.74
9862,6.95,3.59,-52.60,-41.016,-244.629,921.387,-14.85,-34.65,-33.45,19.40
9872,8.97,-1.31,-52.30,-500.488,-660.645,1944.824,-13.35,-34.95,-31.65,19.36
9882,10.80,5.46,-41.03,206.055,-1152.344,807.129,-13.20,-36.75,-32.25,19.64
9892,-15.33,12.10,-46.02,-163.574,-173.340,901.367,-13.20,-36.75,-32.25,19.74
9902,-6.29,3.92,-49.62,-531.738,93.750,1661.133,-13.95,-34.80,-30.75,19.79
9914,1.91,13.16,-43.02,-90.820,315.918,438.965,-15.15,-35.25,-32.25,19.64
9924,-5.28,12.96,-46.27,77.637,-819.824,205.078,-15.15,-35.25,-32.25,19.88
9934,-2.55,-1.18,-42.86,177.734,-742.187,976.562,-14.55,-33.00,-32.70,19.55
9944,-5.05,10.16,-47.53,-325.684,-541.504,1225.098,-13.95,-31.65,-31.05,19.64
9954,-3.56,7.00,-42.30,-97.656,-659.180,1405.273,-11.85,-32.55,-32.40,19.55
9964,1.20,0.89,-38.82,-665.039,-485.840,1886.230,-13.50,-31.20,-31.05,20.12
9976,12.61,10.33,-44.26,-262.207,-765.625,1086.914,-13.50,-31.20,-31.05,19.79
9986,1.03,9.02,-50.48,-231.934,-684.082,499.023,-14.40,-31.95,-31.05,19.64
9996,8.02,12.56,-45.48,-43.945,-457.520,473.633,-13.80,-30.60,-31.20,19.93
10006,2.48,9.35,-47.44,-600.098,-489.746,1765.137,-14.40,-31.65,-32.55,19.79
10016,12.05,2.29,-37.98,-173.828,-57.617,1999.939,-13.35,-31.80,-32.40,19.79
10026,24.89,-3.16,-50.70,386.230,-631.836,1729.004,-13.35,-31.80,-32.40,19.55
10036,30.59,-11.02,-42.76,197.754,-1199.219,1146.484,-14.40,-31.95,-31.50,19.55
10048,18.34,-16.50,-42.02,-181.641,-1315.918,1290.039,-14.10,-31.05,-29.40,19.55
10058,17.91,-22.76,-51.08,160.645,-1236.816,1035.645,-12.75,-28.80,-29.55,19.45
10068,9.22,-23.09,-49.47,-225.098,-1104.004,1202.148,-12.75,-28.80,-29.55,19.88
10078,5.40,-30.37,-53.69,-369.141,-263.184,1673.340,-14.40,-30.00,-29.85,19.74
10088,2.62,-26.11,-54.03,-137.695,-1127.930,1025.391,-16.65,-29.25,-28.35,19.45
10098,-5.02,-26.21,-55.94,33.691,-1158.203,1635.254,-17.25,-29.40,-28.20,19.74
10110,-17.32,-30.17,-48.85,50.781,-261.719,527.344,-16.20,-27.15,-28.05,19.64
10120,-26.60,-35.44,-49.65,-108.398,-929.199,919.922,-16.20,-27.15,-28.05,19.79
10130,-20.73,-22.79,-62.40,-282.715,-136.719,1251.953,-16.80,-27.75,-29.40,19.40
10140,-15.95,-12.60,-61.08,-646.484,192.871,962.891,-18.15,-28.05,-29.10,19.45
10150,-5.21,-17.59,-54.44,-128.418,-150.391,944.824,-18.15,-28.05,-29.10,19.64
10160,-5.27,-5.02,-48.89,-288.086,-379.883,1052.734,-17.40,-27.60,-30.30,19.45
10170,-1.72,-9.02,-46.45,21.484,-1128.418,1057.129,-17.55,-28.65,-28.95,19.64
10182,-6.63,-12.18,-54.19,229.004,-580.566,496.582,-17.40,-27.15,-29.10,19.74
10192,-13.40,-10.50,-51.96,-275.391,-463.379,886.719,-17.55,-28.95,-29.40,19.79
10202,5.79,-4.30,-46.54,-206.055,-122.559,104.004,-17.55,-28.95,-29.40,19.64
10212,21.15,-15.18,-55.16,-112.305,509.277,982.422,-19.65,-28.80,-29.55,19.40
10222,39.18,-0.60,-50.78,-553.223,-279.785,1250.000,-19.35,-28.35,-30.30,19.40
10237,24.70,9.39,-51.01,-746.094,-666.016,-167.480,-19.65,-28.35,-29.10,19.79
10246,48.91,5.25,-5.70,-291.504,-808.105,133.301,-22.05,-27.60,-30.30,19.74
10258,34.42,21.72,-43.58,-263.672,-805.664,1494.141,-19.20,-25.80,-30.15,19.55
10268,7.81,20.85,-49.76,-128.418,-1166.504,853.027,-19.20,-25.05,-30.15,19.60
10278,10.52,8.31,4.15,-54.688,-576.660,1682.617,-18.90,-25.95,-29.10,19.74
10288,-5.17,6.08,-53.96,-435.059,-1041.992,1999.939,-20.70,-25.50,-30.15,19.40
10298,-4.17,8.02,-43.33,166.992,-610.352,1763.184,-20.70,-25.50,-30.15,19.64
10308,1.32,2.76,-58.26,169.922,-595.703,710.449,-20.70,-25.50,-29.70,19.74
10318,-17.15,-0.03,-55.91,-185.547,-432.617,1324.219,-19.65,-25.65,-29.85,19.74
10330,-7.18,-9.24,-52.37,-620.605,-58.594,1999.939,-19.65,-25.65,-29.85,19.55
10340,17.44,-9.30,-50.03,74.219,-400.879,492.187,-21.45,-25.05,-30.45,19.74
10350,12.72,-10.69,-44.67,-329.102,-671.875,1130.371,-20.55,-24.90,-29.10,19.60
10360,11.66,-6.05,-48.17,-93.750,-532.227,1554.199,-22.35,-26.40,-29.85,19.88
10370,7.79,-10.18,-45.19,-540.039,-1013.184,1500.000,-21.60,-24.00,-31.05,19.12
10380,-4.22,-8.18,-44.47,48.828,-475.098,858.887,-21.60,-24.00,-31.05,19.64
10392,-15.22,-9.37,-43.37,-408.691,-596.191,1368.164,-21.00,-25.05,-31.20,19.40
10402,-10.28,-7.11,-52.58,-132.324,-613.281,279.785,-22.35,-24.45,-29.55,19.64
10412,-9.98,-6.91,-50.15,-124.512,-279.785,342.285,-21.45,-25.50,-28.65,19.60
10422,-5.88,-7.10,-48.61,178.223,-357.422,877.441,-20.85,-24.90,-28.80,19.79
10432,-7.91,-2.63,-40.37,-220.703,51.758,1128.906,-20.85,-24.90,-28.80,19.79
10442,-0.74,-1.13,-47.15,-226.562,-507.324,1249.512,-22.20,-24.30,-30.90,19.55
10452,1.62,1.80,-46.75,-184.570,-330.566,516.602,-22.65,-24.30,-29.70,19.40
10465,0.65,-0.41,-48.36,12.695,-522.461,854.492,-22.05,-25.95,-28.05,19.79
10475,-7.61,-3.35,-46.63,-114.746,-220.703,418.457,-21.30,-25.65,-29.55,19.74
10485,-5.58,3.02,-45.02,46.387,-370.117,519.043,-21.30,-25.65,-29.55,19.55
10495,-0.63,3.32,-44.05,-198.242,-111.328,900.391,-23.70,-25.50,-30.90,19.40
10505,8.34,-1.47,-42.34,-236.328,-138.672,904.297,-22.65,-23.85,-29.40,19.64
10515,12.46,7.47,-42.98,-88.867,-559.082,385.742,-21.90,-26.25,-29.40,19.60
10527,19.25,10.44,-42.55,-147.461,-875.977,963.867,-22.20,-24.60,-30.45,19.64
10537,22.10,5.68,-44.34,-63.477,-513.672,635.254,-22.20,-24.60,-30.45,19.93
10547,16.63,7.31,-40.90,103.516,-766.602,684.570,-22.65,-24.60,-29.40,19.88
10557,2.26,-0.05,-39.91,-54.199,-344.727,1616.211,-21.90,-22.65,-28.65,19.74
10567,4.16,-3.44,-45.37,-37.109,-380.859,1548.340,-21.90,-22.65,-28.65,19.45
10577,12.85,-6.61,-45.09,-89.355,-626.465,1282.227,-23.40,-22.65,-29.70,19.64
10587,10.92,-8.16,-41.81,17.578,-391.113,997.559,-22.20,-23.40,-29.40,19.79
10599,10.34,-8.73,-37.14,-136.230,-440.430,1641.602,-23.25,-21.60,-28.35,19.64
10609,7.14,-11.68,-35.92,36.133,-558.594,1051.758,-23.25,-21.60,-28.35,19.64
10619,1.94,-12.82,-41.08,113.770,-290.527,739.258,-24.15,-19.80,-29.70,19.74
10629,-1.48,-16.64,-38.05,79.590,-227.051,998.047,-22.95,-22.20,-28.65,19.64
10639,-4.77,-10.98,-37.07,-406.738,-138.672,1831.055,-24.00,-21.30,-29.55,19.45
10649,-7.25,-9.61,-32.39,-92.285,-113.770,573.730,-22.95,-21.45,-29.70,19.45
10661,-15.39,-0.67,-33.85,55.664,-292.480,643.555,-22.95,-21.45,-29.70,19.64
10671,-9.55,2.24,-37.18,-202.148,-272.461,1089.355,-22.35,-20.40,-29.10,19.55
10681,-14.10,1.39,-36.08,-47.363,-539.551,941.895,-23.40,-21.90,-28.20,19.64
10691,-15.32,5.80,-34.52,504.395,-188.477,839.844,-23.40,-21.00,-29.40,19.74
10701,-10.92,16.46,-36.82,-266.602,-83.008,522.461,-23.25,-20.40,-28.80,19.45
10711,-6.01,10.36,-36.76,26.855,-330.078,550.781,-23.25,-20.40,-28.80,19.55
10721,8.21,3.92,-38.20,556.641,-461.914,446.777,-22.80,-20.40,-29.55,19.74
10733,14.44,-3.49,-31.69,606.445,-523.437,496.582,-22.35,-22.05,-28.80,19.88
10743,21.75,3.84,-36.66,356.934,-521.484,514.648,-22.35,-22.05,-28.80,19.79
10766,-6.14,-4.25,-31.96,134.277,53.711,1422.852,-22.95,-20.70,-28.95,19.45
10775,3.65,-6.37,-36.88,-48.340,-618.652,1737.305,-22.80,-19.20,-29.55,19.40
10785,-0.09,-10.69,-36.34,43.457,-509.766,1048.828,-22.95,-19.50,-28.95,19.55
10795,1.47,-3.21,-34.87,61.035,-11.719,621.094,-22.95,-19.50,-28.95,19.93
10807,16.57,-4.19,-35.83,199.219,-575.684,565.430,-21.45,-19.80,-30.45,19.74
10817,13.72,5.81,-27.95,476.074,-125.000,1025.391,-22.95,-20.25,-28.65,19.74
10827,-4.06,4.01,-26.15,14.160,-343.262,1146.973,-23.55,-18.00,-30.30,19.64
10837,-9.91,-2.92,-33.63,-141.602,-757.812,1569.336,-21.30,-18.90,-29.85,19.79
10847,-12.50,2.34,-34.97,258.301,-295.898,521.484,-21.30,-18.90,-29.85,19.64
10857,-13.34,-2.17,-27.85,119.141,-475.586,1269.043,-23.55,-17.70,-30.30,19.55
10869,-9.89,3.00,-29.63,287.109,-409.668,571.777,-23.55,-19.65,-29.55,19.74
10879,-6.32,2.53,-33.91,28.809,-112.793,963.379,-24.75,-19.20,-29.85,19.36
10889,-1.46,-3.59,-24.24,-56.152,-250.000,1999.939,-22.65,-19.50,-30.45,19.79
10899,2.27,-4.94,-30.27,331.543,-714.355,387.695,-22.65,-19.50,-30.45,19.79
10909,-7.20,3.54,-32.05,319.336,-441.406,197.266,-23.70,-19.50,-30.90,19.60
10919,-16.64,1.04,-34.44,-459.961,204.102,1328.613,-22.95,-18.30,-29.40,19.64
10929,-4.05,-2.43,-34.26,-73.242,-278.320,1001.465,-22.95,-19.50,-29.70,19.64
10941,-4.37,4.22,-32.64,-370.117,-155.762,1756.836,-23.40,-20.25,-28.95,19.79
10951,-2.69,0.62,-29.79,-45.898,-376.465,1270.996,-22.80,-19.20,-30.75,19.64
10961,-1.86,2.48,-32.59,5.371,-195.801,423.828,-22.05,-20.10,-28.80,19.40
10971,-4.44,5.31,-33.39,-389.160,145.020,1163.574,-22.05,-20.10,-28.80,19.74
10981,-6.67,-6.23,-29.99,-34.180,-200.684,1466.797,-23.55,-18.45,-30.75,19.88
10991,1.17,0.34,-32.21,154.297,-431.641,355.469,-21.45,-19.50,-29.70,19.55
11001,3.98,4.21,-31.66,369.629,-379.395,582.031,-23.40,-19.50,-30.15,19.60
11012,4.34,3.13,-36.81,346.680,-664.551,-145.996,-22.20,-18.30,-30.45,19.64
11022,16.31,2.35,-33.29,797.363,-747.070,-220.215,-22.20,-18.30,-30.45,19.64
11032,2.40,-7.61,-37.07,-449.219,-587.402,1999.939,-22.95,-17.85,-29.70,19.40
11042,18.73,-8.36,-43.53,434.570,-678.711,1109.863,-22.20,-17.40,-28.65,19.88
11052,-2.02,-6.33,-29.16,-50.781,122.070,1270.508,-23.55,-19.20,-29.55,19.74
11062,1.34,-10.63,-30.59,-350.586,-171.387,1331.055,-22.95,-17.40,-29.40,19.88
11074,5.63,3.88,19.15,-140.137,-122.559,630.859,-22.95,-17.40,-29.40,19.88
11084,-4.42,-0.39,-17.79,-484.375,-998.535,1609.375,-24.15,-16.65,-29.70,19.64
11094,-2.76,3.89,-22.46,485.352,-284.180,589.844,-22.05,-16.50,-28.35,19.88
11104,-16.16,4.81,-27.76,-237.793,-160.156,971.680,-25.05,-18.45,-28.35,19.88
11114,-8.84,3.41,-30.40,-217.773,-431.641,1196.289,-22.95,-15.90,-29.70,19.45
11124,-3.73,6.38,-28.33,162.598,-328.125,236.816,-22.95,-15.90,-29.70,19.88
11134,-3.08,11.56,-25.95,2.441,-210.937,909.668,-23.40,-18.30,-28.95,19.64
11146,-2.67,13.16,-26.39,-110.840,-177.246,582.520,-21.60,-16.05,-31.05,19.74
11156,-2.57,8.29,-30.14,-30.762,-209.961,1171.875,-21.60,-16.05,-31.05,19.64
11166,-1.95,0.00,-32.70,231.934,-846.680,1068.848,-19.95,-14.70,-30.90,19.74
11176,-7.20,8.82,-31.21,147.949,-321.777,536.621,-22.35,-14.85,-29.85,19.55
11186,-11.21,4.95,-34.03,-479.004,-99.609,1907.227,-23.40,-15.90,-29.70,19.64
11196,3.52,-8.47,-42.16,316.895,-319.824,1204.102,-22.65,-15.90,-30.90,19.40
11208,7.15,-8.50,-33.98,-46.387,-481.445,1501.465,-22.65,-15.90,-30.90,19.64
11218,20.07,-10.47,-34.78,676.758,-796.875,-232.910,-23.25,-14.85,-30.30,19.64
11228,-2.03,-8.64,-36.04,-757.324,125.000,1051.270,-22.80,-14.40,-30.75,19.55
11238,21.23,-11.76,-32.46,236.816,-805.176,465.820,-22.65,-15.90,-30.15,19.60
11248,12.40,-1.64,-32.96,563.965,-169.922,392.090,-21.45,-14.70,-30.45,19.88
11258,-19.95,-7.75,-33.28,-700.684,-706.055,1694.336,-21.45,-14.70,-30.45,19.64
11268,-6.48,-3.48,-34.23,-120.605,-550.781,363.770,-22.35,-16.05,-27.30,19.74
11286,-2.32,-7.92,-29.24,590.820,-447.754,757.812,-23.70,-14.70,-28.95,19.64
11295,-6.43,5.25,-32.93,-163.086,37.598,349.609,-23.25,-15.60,-29.10,19.45
11305,-6.47,-5.97,-35.12,-412.598,-564.453,1999.939,-23.25,-15.60,-29.10,19.64
11315,4.29,-1.34,-34.60,156.738,-409.180,755.859,-23.25,-14.40,-28.05,19.60
11325,-2.42,-3.56,-28.97,335.449,-473.633,1414.551,-24.15,-14.70,-30.90,19.64
11335,-11.14,7.14,-29.97,-329.590,-201.660,957.031,-24.15,-14.70,-30.90,19.74
11345,-1.43,-0.75,-37.11,303.223,-526.367,166.992,-22.65,-14.70,-30.45,19.64
11357,1.03,-0.15,-22.47,129.883,-392.090,1249.512,-24.00,-13.65,-30.75,19.93
11367,3.78,1.64,-24.97,398.926,-6.836,848.633,-22.20,-12.30,-30.90,19.64
11377,-2.68,-4.04,-25.38,-632.324,-100.586,1504.395,-22.95,-13.50,-30.90,19.26
11387,4.62,-10.01,-38.20,226.562,-602.539,178.223,-22.95,-13.50,-30.90,19.64
11397,-6.46,-4.65,-33.54,-59.570,-376.953,1394.043,-22.80,-12.45,-29.10,19.74
11407,-10.21,-7.33,-32.16,-507.324,91.797,1999.939,-22.65,-13.50,-31.95,19.74
11417,6.02,-5.80,-27.91,390.137,-616.699,261.719,-21.60,-12.45,-30.30,19.55
11429,12.95,-6.89,-34.66,610.352,-256.348,113.770,-21.60,-12.45,-30.75,19.55
11439,18.67,0.18,-29.40,274.414,-622.070,655.762,-21.60,-12.45,-30.75,19.79
11449,14.35,-6.34,-23.36,-648.926,-739.258,1999.939,-21.45,-11.55,-31.65,19.74
11459,22.47,2.12,-29.60,868.164,-616.699,-165.527,-21.45,-13.05,-30.15,19.60
11469,-2.85,5.95,-30.12,128.418,-64.453,301.758,-22.65,-10.65,-30.90,19.88
11479,-17.40,4.77,-28.11,425.781,-996.582,1240.723,-21.90,-12.30,-29.40,19.55
11491,-25.27,-0.92,-37.02,-895.508,-703.125,1999.939,-21.90,-12.30,-29.40,19.64
11501,1.40,3.18,-24.73,915.527,-678.711,-55.664,-19.95,-10.65,-30.90,19.60
11511,-23.40,2.28,-37.40,-807.617,423.828,1061.035,-19.95,-10.65,-30.90,19.74
11521,-2.51,-2.94,-28.53,22.461,-296.875,1082.520,-21.90,-12.75,-30.45,19.74
11531,7.29,-3.76,-37.31,302.246,-259.766,577.148,-21.45,-11.10,-31.65,19.64
11541,0.91,-4.11,-36.26,-1010.254,-269.531,1999.939,-21.45,-11.10,-31.65,19.64
11551,15.48,-3.89,-40.94,491.211,-703.613,458.984,-20.25,-11.85,-30.90,19.74
11563,0.91,-7.37,-34.97,31.250,-869.141,924.805,-20.25,-11.55,-31.20,19.60
11573,-0.18,7.01,-34.99,27.344,-337.891,763.672,-20.25,-11.10,-31.65,19.74
11583,-3.72,0.85,-43.05,-401.855,-390.625,1999.939,-20.70,-10.35,-29.70,19.64
11593,-4.61,-1.08,-43.23,-36.133,-938.965,760.742,-20.25,-12.30,-29.70,19.74
11603,-6.56,9.90,-44.39,-185.547,-408.691,1023.437,-20.25,-10.65,-30.90,19.64
11613,-1.42,8.00,-42.95,-337.891,-307.129,1978.516,-20.25,-10.65,-30.90,19.79
11625,7.50,12.19,-36.70,-604.492,334.961,1555.176,-20.25,-10.65,-30.45,19.79
11635,18.69,10.08,-41.13,1445.801,-748.047,397.461,-20.70,-9.45,-30.90,19.74
11645,-18.24,6.32,-45.95,20.508,-29.297,542.969,-20.85,-10.95,-29.85,19.45
11655,-6.98,-9.78,-44.76,51.270,-1277.832,639.160,-18.75,-9.45,-30.45,19.36
11665,-9.69,2.40,-42.06,-43.457,-369.141,530.273,-18.75,-9.45,-30.45,19.88
11675,-13.02,-14.97,-40.46,-125.977,-383.789,1801.758,-19.50,-11.10,-30.15,19.64
11685,10.37,-3.15,-37.92,581.543,-163.086,886.230,-19.65,-11.25,-31.05,19.64
11697,17.60,-4.93,-36.34,564.453,-775.391,-109.375,-19.65,-9.75,-28.35,19.88
11707,-12.16,-6.43,-43.47,-1756.348,166.992,1999.939,-19.20,-10.35,-29.40,19.74
11717,15.37,-7.07,-41.13,331.055,-1020.508,-440.430,-19.20,-10.35,-29.40,19.88
11727,10.50,8.28,-26.82,-399.902,-169.922,1144.531,-18.90,-7.65,-29.85,19.45
11737,3.45,-1.79,-34.46,-316.406,-911.133,1999.939,-18.45,-8.70,-28.95,19.55
11747,8.16,7.08,-41.22,20.508,-785.645,60.547,-18.45,-8.70,-28.95,19.64
11759,2.40,6.53,-42.89,101.563,-792.969,622.559,-18.60,-8.85,-29.55,19.60
11769,-15.71,6.23,-38.53,-40.039,-268.555,1354.492,-18.90,-8.55,-29.55,19.74
11779,-9.68,2.23,-39.62,-349.121,-512.207,1511.230,-17.40,-8.55,-28.35,19.88
11789,1.22,-2.42,-32.89,279.785,-458.496,776.367,-18.00,-8.70,-28.65,19.64
11804,-1.50,-9.35,-47.19,-188.965,-209.961,1802.734,-18.90,-8.85,-30.75,19.74
11813,0.48,-8.23,-38.26,80.078,-450.684,1485.840,-18.60,-8.55,-29.55,19.74
11825,-5.58,-6.08,-30.89,-395.996,-553.711,1918.945,-20.10,-8.85,-31.80,19.55
11835,7.78,-4.02,-48.53,332.520,-595.703,430.176,-18.15,-7.35,-30.30,19.55
11845,-18.18,-6.09,-46.22,-997.070,-447.266,1737.793,-18.15,-7.35,-30.30,19.74
11855,4.79,-7.24,-49.97,429.199,-1008.301,149.414,-18.90,-8.55,-31.50,19.74
11865,-19.24,0.06,-41.27,-643.066,-91.797,1137.207,-18.45,-6.30,-30.15,19.55
11875,-0.94,-5.37,-46.31,95.215,-747.070,941.895,-18.60,-6.45,-31.05,19.64
11885,4.55,-3.97,-40.94,-10.742,-286.621,883.301,-17.85,-7.35,-31.80,19.45
11897,6.93,1.16,-51.73,151.855,-609.863,56.152,-17.85,-7.35,-31.80,19.40
11907,-8.14,1.86,-44.38,-780.273,-111.816,914.062,-17.85,-7.35,-30.30,19.45
11917,8.67,-0.98,-43.47,12.695,-756.836,574.707,-17.10,-6.15,-30.75,19.93
11927,-2.02,0.56,-43.66,-144.043,-268.555,852.051,-16.65,-6.15,-29.10,19.64
11937,-1.34,1.73,-35.85,-382.324,-563.477,1894.043,-18.00,-5.10,-29.70,19.88
11947,6.88,3.60,-44.59,157.715,-659.180,305.664,-17.10,-4.95,-30.30,19.64
11959,1.59,3.20,-45.92,15.137,-548.828,1985.840,-16.20,-6.15,-28.80,19.64
11969,0.95,4.23,-46.30,204.590,190.430,1357.910,-16.65,-6.15,-30.30,19.60
11979,2.05,3.69,-34.40,-517.578,187.500,1662.598,-16.65,-6.15,-30.30,19.64
11989,11.56,1.20,-40.99,195.801,-999.512,274.414,-16.05,-6.75,-29.40,19.40
11999,-6.93,-1.06,-48.04,-107.910,-385.742,810.059,-15.75,-6.30,-30.15,19.79
12009,-11.02,-15.31,-41.60,-88.867,-1136.230,1010.254,-16.80,-5.55,-30.45,19.79
12019,-13.69,-6.12,-51.47,31.738,540.527,1080.078,-16.65,-7.35,-30.30,19.74
12031,19.45,-13.63,-40.97,1226.074,-475.098,-96.191,-16.65,-7.35,-30.30,19.60
12041,-14.69,-12.21,-47.68,-120.117,-290.039,1999.939,-16.65,-5.70,-28.35,19.88
12051,19.01,-15.00,-45.18,148.437,171.387,1418.945,-16.50,-5.85,-29.40,19.64
12061,10.69,-13.88,-43.98,-488.770,-740.234,1630.371,-16.05,-5.10,-30.45,19.55
12071,16.18,-9.89,-37.75,451.172,-583.008,150.391,-16.20,-5.25,-28.80,19.40
12081,-10.86,1.72,-44.09,-873.047,-500.977,1987.305,-16.20,-5.25,-28.80,19.40
12091,8.43,-3.08,-36.08,300.781,-1072.266,912.109,-15.90,-5.25,-31.05,19.88
12103,3.79,-6.54,-32.96,490.234,-599.609,1347.168,-16.50,-4.65,-28.95,19.64
12113,9.71,5.92,-30.76,-129.883,-419.434,816.895,-15.75,-3.15,-28.65,19.64
12123,-0.69,1.06,-39.35,-596.191,-498.535,1999.939,-15.75,-3.15,-28.65,19.98
12133,16.21,6.78,-40.16,625.977,-616.699,241.699,-15.90,-3.15,-28.65,19.55
12143,-0.21,3.93,-35.01,-510.254,684.082,1566.895,-15.30,-3.90,-29.70,19.60
12153,5.80,-12.26,-37.47,478.516,-1066.406,495.605,-15.30,-3.90,-29.70,19.36
12165,6.91,-9.24,-30.73,-2.441,-731.445,1993.164,-14.55,-3.45,-28.95,19.40
12175,0.28,-6.03,-36.50,319.824,-154.785,766.113,-14.40,-3.30,-29.10,19.74
12185,-11.15,-10.66,-37.60,-357.422,-575.684,1999.939,-15.30,-5.10,-30.15,19.64
12195,-4.73,-7.89,-32.99,56.641,-581.055,150.391,-13.20,-4.50,-30.75,20.07
12205,-13.25,-3.09,-36.37,-435.547,407.715,986.816,-13.20,-4.50,-30.75,19.64
12215,-0.09,-6.80,-28.70,153.320,-250.000,872.559,-14.10,-4.65,-29.40,19.55
12225,12.22,6.17,-35.73,-224.609,-354.980,1094.727,-13.80,-4.35,-30.45,19.40
12237,15.94,2.00,-40.03,68.359,-246.094,591.797,-14.40,-4.05,-27.60,19.93
12247,2.13,1.55,-41.85,-326.172,-108.887,1999.939,-15.45,-4.50,-30.30,19.79
12257,19.88,2.81,-28.23,499.023,-679.199,506.348,-15.45,-4.50,-30.30,19.40
12267,-12.64,-4.24,-31.69,-528.320,-252.441,1857.910,-14.85,-2.70,-30.15,19.64
12277,2.48,7.17,-37.11,247.559,-1113.281,-271.484,-15.30,-4.35,-31.20,19.60
12287,-6.60,1.46,-33.55,-411.621,41.992,32.227,-13.50,-1.35,-31.05,19.74
12297,-9.49,-1.17,-38.50,170.410,-507.812,1160.645,-13.50,-3.75,-32.25,19.60
12309,6.24,-3.42,-27.05,586.426,-692.871,1318.848,-13.50,-3.75,-32.25,19.64
12323,5.02,6.40,-33.32,-710.449,434.082,1890.625,-13.95,-1.35,-31.80,19.60
12333,12.47,-0.72,-33.08,291.504,-273.926,1262.207,-12.75,-2.85,-32.25,19.64
12343,13.11,10.75,-26.29,-102.539,-713.867,741.211,-12.75,-2.85,-32.25,19.55
12353,-10.41,-2.27,-33.27,-933.594,-1093.262,1999.939,-11.70,-1.35,-31.05,19.55
12363,-0.95,8.67,-34.51,1298.340,-1288.086,63.965,-11.70,-1.65,-30.30,19.55
12376,-7.41,-3.58,-37.24,408.691,-444.336,-354.004,-12.60,-1.05,-30.15,19.64
12385,-3.76,7.95,-35.92,-274.414,140.137,1041.016,-12.60,-1.05,-30.15,19.64
12395,4.27,1.41,-31.69,336.914,-761.719,112.793,-13.80,-2.25,-30.15,19.60
12405,4.31,0.81,-34.12,-379.883,-484.863,1164.063,-12.75,-2.10,-30.75,19.45
12415,17.26,2.67,-37.45,-26.855,-496.582,1462.891,-13.50,-3.30,-30.75,19.74
12425,17.65,7.79,-44.92,548.340,-847.656,193.848,-13.05,-2.25,-31.65,19.74
12435,4.75,-12.15,-29.79,7.812,-725.098,1999.939,-13.05,-2.25,-31.65,19.93
12447,-20.43,-8.06,-29.48,-867.676,-494.629,1999.939,-12.00,-1.35,-31.80,19.64
12457,-3.11,-6.95,-42.79,642.578,-1005.859,-491.699,-12.60,-1.50,-32.70,19.93
12467,-26.28,-5.84,-59.35,-1215.332,145.996,1197.266,-11.40,-0.75,-31.20,19.74
12477,4.34,-7.07,-41.20,893.066,-693.848,566.406,-12.30,-1.95,-30.90,19.64
12487,-57.46,-2.85,-105.32,-1092.773,877.441,1456.055,-12.30,-1.95,-30.90,19.26
12497,9.09,-9.96,-32.45,346.191,-712.891,323.242,-10.35,-1.50,-31.20,19.55
12507,3.87,2.20,-41.37,-239.746,-420.410,839.355,-10.65,-2.70,-30.15,19.64
12519,-1.40,2.28,-45.27,487.305,-199.707,541.504,-10.65,-2.70,-30.15,19.55
12529,7.26,-6.24,-47.31,-451.660,-1196.777,1999.939,-11.25,-1.35,-31.80,19.55
12539,9.66,-0.41,-34.96,88.379,-498.047,961.914,-11.10,-2.70,-30.45,19.60
12549,-16.33,-6.17,-37.66,-1084.473,-15.625,1162.598,-10.35,0.30,-31.95,19.79
12559,2.00,-6.41,-42.76,411.621,-1296.875,241.699,-10.95,-0.45,-31.05,19.64
12569,-23.84,3.08,-41.75,-448.242,507.812,687.012,-10.95,-0.45,-31.05,19.40
12581,6.19,4.47,-34.60,-415.039,-341.309,252.441,-10.35,0.00,-31.20,19.74
12591,-4.14,-0.47,-49.47,-61.035,-560.059,1947.754,-9.75,-0.90,-31.50,19.40
12601,1.52,6.30,-40.31,-24.902,-976.562,766.602,-9.75,0.45,-30.75,19.60
12611,3.31,3.01,-43.10,-290.039,-553.223,1999.939,-9.60,0.30,-31.20,19.74
12621,7.15,0.07,-42.83,265.625,-671.387,563.477,-9.60,0.30,-31.20,19.64
12631,2.92,2.05,-50.48,-139.648,-449.219,1823.242,-9.75,-1.35,-31.80,19.79
12641,11.78,1.32,-46.34,-169.922,-964.844,1124.512,-9.30,0.15,-31.50,19.64
12652,0.64,-0.20,-51.08,-442.871,-859.863,1509.277,-9.15,0.30,-33.45,19.26
12662,10.34,-4.92,-41.96,-20.996,-725.098,721.680,-9.00,0.15,-33.75,19.55
12672,-3.01,0.21,-51.06,-403.809,-367.676,998.047,-9.00,0.15,-33.75,19.93
12682,8.56,-4.60,-49.08,-120.117,-825.195,994.629,-8.55,0.15,-33.30,19.64
12692,-1.76,3.31,-44.60,21.484,-424.316,958.008,-7.95,-0.30,-34.20,19.74
12702,-8.17,0.03,-44.27,-496.582,-225.098,1364.258,-7.95,-0.30,-34.20,19.74
12712,-1.62,3.76,-43.86,105.469,-351.074,511.719,-6.90,0.00,-32.70,19.64
12724,10.80,6.47,-36.02,194.824,-877.930,870.605,-7.05,0.15,-33.75,19.74
12734,-5.22,0.80,-49.10,1.953,-204.590,929.199,-8.25,0.45,-30.30,19.74
12744,-10.42,-0.02,-50.78,-87.402,-606.445,872.559,-6.45,0.00,-32.70,19.45
12754,-7.57,-2.73,-49.53,35.645,-399.414,153.320,-6.45,0.00,-32.70,19.64
12764,-7.34,-3.76,-47.47,-246.094,-418.945,1764.160,-6.30,0.45,-32.55,19.55
12774,6.90,-4.37,-49.17,125.000,-794.922,966.309,-5.85,0.45,-32.25,19.64
12784,1.21,-9.20,-52.03,-238.281,-381.836,866.699,-6.30,0.45,-33.30,19.74
12796,-1.95,-6.37,-39.92,-388.672,-632.324,907.715,-6.15,2.25,-32.70,19.79
12806,5.38,-2.42,-42.95,-91.797,-933.105,1045.410,-5.85,1.65,-33.30,19.64
12816,-5.49,-6.29,-44.08,-175.781,-401.855,707.520,-5.25,1.95,-33.90,19.45
12826,-0.53,1.95,-47.35,-300.781,-374.512,1095.703,-4.95,1.50,-32.40,19.60
12840,7.74,3.27,-42.36,47.363,-889.648,1001.953,-5.85,2.55,-33.00,19.60
12850,0.79,5.29,-45.07,-387.207,-286.621,1511.230,-5.85,2.55,-33.00,19.74
12862,0.35,1.49,-46.69,53.223,-534.668,929.199,-4.50,2.25,-34.95,19.64
12872,-6.89,-3.85,-44.50,-208.008,-424.316,1285.645,-4.95,2.25,-33.45,19.60
12882,-7.39,-6.48,-56.56,-57.617,-311.523,716.797,-3.75,1.05,-34.20,19.64
12892,-5.37,-5.19,-49.31,-10.742,-290.527,992.676,-3.90,2.10,-32.55,19.64
12902,-4.69,-6.11,-48.49,-259.277,-513.672,1444.824,-4.50,2.25,-32.40,19.74
12912,2.56,-8.15,-47.30,82.520,-789.551,915.527,-2.55,2.70,-32.70,19.74
12922,-2.92,-1.69,-50.77,-350.586,-201.172,810.547,-3.60,2.10,-34.05,19.79
12934,-4.60,0.71,-48.40,-193.848,52.246,791.016,-3.60,2.10,-34.05,19.88
12944,7.19,-2.98,-36.11,-242.676,-687.500,1263.672,-1.80,1.05,-33.15,19.74
12954,6.53,-4.37,-47.31,396.484,-840.332,1825.684,-1.80,1.05,-32.70,19.74
12964,0.19,-2.29,-47.20,-336.914,-932.617,557.617,-0.15,0.90,-32.25,19.60
12974,-6.62,-3.15,-51.41,-394.531,-914.551,1338.867,-1.50,1.50,-33.15,19.55
12984,4.77,-6.81,-50.18,-55.664,-468.750,564.941,-1.50,1.50,-33.15,19.79
12994,2.27,-2.76,-38.70,-245.605,-336.914,1516.602,-0.30,0.30,-32.70,19.79
13006,13.61,-6.97,-45.30,144.043,-518.066,900.391,-0.30,0.00,-31.95,19.55
13016,6.13,-4.44,-55.10,-365.234,-189.453,1503.418,-1.50,0.00,-33.45,19.88
13026,19.57,1.37,-43.84,-69.336,-867.187,558.594,-1.50,0.00,-33.45,19.64
13036,3.05,1.31,-38.24,-38.086,-547.852,884.766,-1.80,0.30,-31.95,19.55
13046,-7.64,8.19,-47.70,-516.602,-933.594,959.473,-0.75,1.50,-33.45,19.60
13056,-24.66,1.08,-50.07,-106.445,-522.949,1078.613,-0.75,0.30,-32.40,19.60
13066,-27.20,6.31,-42.26,-202.148,-409.180,972.656,-1.05,1.95,-31.65,19.60
13078,-23.56,11.10,-48.92,-113.770,-155.273,1187.012,-1.05,1.95,-31.65,19.36
13088,-9.64,15.40,-48.89,-250.000,279.785,1096.680,0.75,-0.30,-32.70,19.64
13098,12.47,8.22,-48.63,113.770,-0.977,1349.609,0.15,0.15,-32.25,19.55
13108,9.18,6.16,-47.30,216.309,-882.324,144.531,0.15,0.15,-32.25,19.79
13117,9.52,2.40,-50.40,-136.719,-757.324,966.797,0.45,0.45,-31.80,19.79
13127,-15.49,-4.50,-46.85,-507.324,-107.910,1999.939,0.45,0.45,-32.55,19.12
13137,-18.69,-2.87,-49.31,239.746,-1215.332,1364.258,1.20,0.45,-31.80,19.64
13149,-25.57,-9.85,-48.15,94.238,-154.785,1254.883,3.15,0.90,-33.30,19.45
13159,-17.64,-5.13,-40.88,-478.516,513.184,1746.094,3.15,0.90,-33.30,19.55
13169,8.75,-17.80,-44.05,-446.777,-424.316,1504.395,1.05,-0.30,-30.90,19.98
13179,14.60,-16.71,-48.05,155.273,-616.211,1430.664,-0.15,-0.45,-31.50,19.64
13189,13.20,-16.72,-53.08,-832.520,-654.785,1625.977,2.10,1.35,-33.30,19.79
13199,15.57,-13.84,-45.60,-35.156,-544.922,1158.203,2.10,0.15,-31.80,19.60
13211,1.02,-20.21,-66.77,12.207,-1065.430,1732.910,2.10,0.15,-31.80,19.79
13221,-3.27,-15.17,-53.86,-349.121,-663.574,900.879,1.80,2.70,-32.70,19.79
13231,2.01,-25.29,-55.18,713.379,-822.266,-61.035,2.85,1.35,-34.05,19.55
13241,-10.22,-31.15,-58.76,-282.715,175.781,594.238,1.80,0.75,-32.70,19.79
13251,-3.92,-24.28,-37.02,421.875,-857.910,-11.230,2.10,-0.15,-33.00,19.74
13261,-19.40,-31.12,-50.76,-834.961,-100.098,1704.102,2.10,-0.15,-33.00,19.74
13271,2.95,-20.82,-34.92,-141.602,-483.887,1095.703,2.10,-0.15,-33.75,19.74
13283,-5.05,-28.61,-33.34,-312.988,-483.887,1667.969,1.65,0.90,-33.30,19.55
13293,0.51,-16.74,-48.78,-6.348,-426.270,1479.492,1.65,0.90,-33.30,19.60
13303,-8.52,-11.76,-39.65,41.992,-958.008,304.199,1.80,0.30,-34.20,19.55
13313,-20.82,-21.60,-52.73,-263.672,-1291.992,1468.262,1.65,0.45,-32.55,19.36
13323,-15.37,-7.31,-48.26,-19.531,-649.902,513.672,1.80,-1.50,-32.70,19.79
13333,-25.04,0.14,-44.53,-1063.965,53.711,664.551,2.10,0.15,-32.55,19.88
13342,-6.72,3.74,-41.71,-848.145,-134.766,1999.939,2.10,0.15,-32.55,19.93
13358,10.56,17.92,-41.05,-507.324,-502.441,493.164,1.05,-0.75,-33.15,19.74
13368,17.71,30.40,-42.77,-384.277,-617.187,371.582,3.15,0.15,-33.00,19.40
13378,8.11,32.98,-22.94,99.121,-873.047,1999.939,3.00,1.05,-34.65,19.79
13387,-2.90,24.02,-41.63,356.445,-1014.160,295.898,3.00,1.05,-34.65,19.79
13397,-12.15,23.18,-37.84,132.812,-405.273,900.879,3.45,0.75,-34.65,19.74
13406,8.41,17.11,-42.44,156.250,-408.203,1577.637,3.45,0.75,-34.65,19.45
13416,18.48,13.36,-34.91,46.387,-187.012,1999.939,4.80,0.90,-34.05,19.88
13428,9.24,11.71,-57.91,221.680,-810.059,430.664,6.60,0.45,-33.30,19.55
13437,6.39,8.96,-52.08,495.117,-775.391,517.090,6.60,0.45,-33.30,19.64
13447,5.42,7.28,-21.29,24.902,-957.520,1355.469,5.55,0.45,-33.30,19.74
13456,6.81,-12.83,-15.57,-494.629,-474.609,1999.939,5.55,0.45,-33.30,19.60
13466,1.21,-8.97,-46.72,140.137,-317.871,1009.277,6.15,0.75,-33.90,19.40
13475,-1.19,-3.24,-61.00,270.996,-569.336,468.262,6.15,0.75,-33.90,19.74
13485,-5.95,-7.47,-44.34,50.781,-112.305,768.555,5.55,0.15,-34.05,19.64
13497,13.31,-8.07,-42.93,233.398,-621.094,316.895,5.55,-0.15,-33.30,19.93
13507,5.18,1.92,-50.15,-350.098,-267.090,847.168,5.70,0.30,-34.20,19.64
13517,-0.14,-5.00,-43.82,-587.402,-271.973,1437.012,5.70,0.30,-34.20,19.93
13527,3.39,4.29,-46.73,-38.086,-532.715,635.742,6.60,-0.15,-34.80,19.64
13537,-2.60,3.26,-41.37,92.285,-683.594,941.895,7.95,0.75,-33.15,19.45
13546,-3.54,3.76,-44.03,193.848,-437.012,898.926,7.95,0.75,-33.15,19.79
13556,-1.67,-0.06,-42.69,17.578,-828.613,1022.461,7.35,-0.90,-33.75,19.79
13568,0.39,4.50,-40.69,43.457,-366.211,1076.172,7.20,0.30,-34.20,19.93
13577,-6.53,11.19,-41.92,-344.238,-289.551,893.066,5.85,0.30,-34.20,19.74
13587,1.11,6.62,-43.97,-515.137,-323.730,1195.313,7.35,1.35,-33.30,19.64
13596,6.11,2.91,-43.00,-493.164,-831.543,1935.059,7.35,1.35,-33.30,19.74
13606,9.84,3.84,-47.08,437.500,-769.043,256.348,8.40,-0.30,-34.65,19.88
13616,-6.10,-3.07,-51.08,22.949,-310.059,1725.098,7.95,1.50,-34.65,19.64
13626,7.47,0.89,-34.37,48.340,-1135.254,1483.398,7.95,1.50,-34.65,19.64
13638,5.67,-0.14,-49.82,221.680,-955.566,1208.008,9.60,0.00,-34.65,19.64
13648,-4.68,9.49,-16.37,-509.277,-735.840,1543.945,9.60,0.00,-34.65,19.74
13658,-0.45,-3.38,-60.73,-32.715,-758.301,953.613,6.90,-0.30,-34.20,19.55
13668,-0.20,-0.12,-43.03,157.715,-175.293,1111.816,9.90,-0.30,-33.15,19.64
13678,-5.71,2.93,-45.92,-607.910,-468.262,1475.586,9.60,-1.05,-33.90,19.64
13688,3.47,-0.28,-45.34,-316.406,-907.715,1255.859,9.90,0.00,-34.20,19.74
13698,8.98,2.67,-52.24,-72.266,-393.555,205.566,9.90,0.00,-34.20,19.79
13710,-0.73,1.12,-43.89,-381.348,-400.391,1381.348,8.55,-1.35,-35.55,19.74
13720,1.22,-0.03,-46.19,-126.465,-370.117,1614.258,11.25,-0.15,-34.50,19.64
13730,-1.56,6.00,-46.15,558.594,-448.242,1003.906,9.60,-0.75,-34.20,19.79
13740,-7.34,-0.47,-48.06,81.055,-520.020,1265.625,9.60,0.00,-34.20,19.64
13750,-1.70,-5.46,-45.24,107.910,-437.988,586.914,9.60,0.00,-34.20,19.64
13760,-6.41,0.38,-44.34,98.145,-359.375,914.062,9.75,-0.90,-34.80,19.64
13770,-2.02,-2.14,-42.95,-80.566,-547.363,1112.305,9.15,0.00,-34.20,19.74
13782,-3.98,-1.67,-44.57,170.898,-310.059,805.176,10.50,-1.35,-33.75,19.64
13792,1.86,-2.61,-37.73,-64.941,-500.488,1800.781,10.95,-0.45,-34.80,19.64
13802,12.40,-5.23,-39.79,637.207,-1277.344,665.039,10.95,-0.45,-34.80,19.79
13812,4.17,-1.26,-46.31,171.875,-757.324,-128.418,11.10,-2.70,-34.20,19.40
13822,3.91,-4.17,-46.41,-494.141,-306.152,1490.723,10.65,-1.50,-34.65,19.45
13832,11.92,-15.38,-42.05,360.840,-824.219,883.789,12.45,-3.30,-34.05,19.93
13842,-5.98,-8.29,-52.24,424.316,-313.477,1057.617,12.00,-1.65,-35.55,19.64
13854,-2.20,-14.29,-40.16,-24.902,-150.879,567.871,12.00,-1.65,-35.55,19.64
13868,8.02,-8.89,-44.04,899.414,-308.105,282.715,13.20,-1.65,-33.75,19.74
13878,1.36,1.50,-40.89,17.090,-38.574,680.176,13.20,-1.65,-33.75,19.64
13888,5.45,-4.30,-43.10,-83.008,-443.848,713.867,12.75,-2.85,-34.80,19.55
13898,11.11,-4.61,-42.41,-46.875,-726.562,1454.102,13.95,-2.55,-34.80,19.45
13908,-4.06,1.27,-43.06,149.414,-872.559,520.996,13.95,-2.55,-34.80,19.64
13918,0.65,-4.31,-43.44,-444.336,-762.695,978.516,12.45,-1.35,-35.55,19.74
13930,-39.76,8.89,-31.92,112.305,51.270,1354.004,12.45,-1.35,-35.55,19.64
13940,-7.67,1.46,-12.98,229.492,-489.746,964.844,12.60,-3.90,-34.95,19.64
13950,-1.44,1.17,-31.88,129.883,-568.359,222.656,13.80,-2.25,-35.70,19.88
13960,-1.85,0.72,-44.39,-192.383,-201.172,1142.090,13.80,-3.45,-33.90,19.79
13970,5.87,0.27,-44.72,-541.504,-424.316,1413.086,13.20,-4.05,-34.80,19.74
13980,11.69,6.93,-48.37,400.391,-410.645,124.023,13.20,-4.05,-34.80,19.55
13992,2.12,2.59,-44.92,-122.070,-898.437,1071.777,14.40,-5.25,-34.80,19.64
14002,-4.50,3.88,-41.69,363.281,-532.715,206.055,13.95,-2.10,-34.80,19.45
14012,-6.47,9.05,-45.77,-559.570,-307.129,1808.105,15.15,-2.85,-34.80,19.74
14022,-1.21,-0.26,-44.07,-165.527,-878.418,907.227,13.95,-4.50,-34.50,19.74
14032,10.29,0.20,-45.33,537.109,-626.953,193.359,13.95,-4.50,-34.50,19.74
14042,-0.30,6.78,-44.75,-628.906,17.090,1999.939,16.20,-4.05,-34.50,19.93
14052,2.98,5.03,-41.59,-98.145,-791.504,1318.848,15.90,-4.50,-35.55,19.60
14064,-16.81,-1.30,-42.96,-567.871,-750.977,1964.844,15.90,-4.50,-35.55,19.64
14074,-7.21,3.48,-50.83,-8.789,-572.754,442.383,16.80,-4.35,-34.65,19.64
14084,1.98,2.11,-44.51,579.590,-313.965,1314.453,14.85,-3.45,-34.95,19.64
14093,-4.37,2.50,-51.56,-680.664,-39.063,1999.939,16.05,-4.35,-34.20,19.64
14103,13.44,-0.33,-48.50,953.613,-1088.379,183.594,15.90,-4.95,-34.05,19.74
14113,4.57,7.36,-39.22,-417.480,-189.453,232.910,15.90,-4.95,-34.05,19.64
14123,-1.27,-6.18,-50.18,-544.434,-944.824,1857.422,16.65,-4.05,-34.05,19.55
14135,-9.28,-2.84,-46.73,-961.914,-621.582,1999.939,16.20,-4.95,-35.55,19.64
14145,15.25,4.94,-44.73,795.410,-956.543,-575.195,16.50,-3.45,-34.65,19.64
14155,1.08,8.32,-41.61,-114.746,-290.039,544.922,16.65,-5.25,-33.75,19.60
14165,-10.69,-3.03,-40.22,-431.641,-702.148,1999.939,16.65,-5.25,-33.75,19.64
14175,1.48,1.26,-45.47,376.953,-433.105,459.961,18.60,-3.75,-35.55,19.60
14185,2.66,12.50,-38.69,-503.906,-177.734,1172.363,17.55,-7.05,-35.70,19.79
14195,16.71,-3.35,-41.25,523.926,-882.324,414.062,16.20,-4.95,-35.55,19.74
14207,2.28,-2.90,-41.93,-676.758,-1144.043,1999.939,18.60,-3.75,-35.25,19.79
14217,9.40,10.23,-41.79,141.113,-500.000,651.855,18.60,-3.75,-35.25,19.79
14226,-2.62,7.32,-40.71,541.016,-494.141,266.113,17.55,-4.65,-36.60,19.60
14236,-1.76,4.83,-44.40,-506.836,-216.797,1999.939,19.50,-6.30,-34.65,19.79
14246,-1.56,3.52,-49.33,308.105,-948.242,806.641,19.50,-6.30,-34.65,19.74
14256,2.43,8.09,-45.79,268.066,-428.711,425.781,18.45,-4.35,-35.70,19.74
14268,12.82,6.68,-43.72,431.641,-520.996,312.012,18.45,-6.30,-35.70,19.74
14278,-8.83,-0.80,-48.74,-295.410,-568.359,1999.939,18.75,-5.10,-35.70,19.55
14288,-0.21,-9.85,-45.21,123.535,-678.223,799.805,17.40,-4.95,-35.25,19.74
14298,-3.66,-2.21,-47.96,614.258,-576.660,790.527,17.40,-4.95,-35.25,19.40
14308,-13.84,-2.13,-47.50,-646.484,-577.148,1768.066,18.75,-5.85,-35.70,19.79
14318,2.77,-12.14,-52.92,583.496,-972.168,339.355,18.75,-6.30,-35.70,19.60
14328,-7.51,1.18,-46.84,-90.820,-258.789,757.324,18.15,-7.35,-36.00,19.64
14340,8.65,-0.36,-44.94,355.469,-417.969,951.660,18.90,-6.90,-37.05,19.55
14350,-12.25,-3.00,-45.40,-768.066,207.520,670.898,20.10,-7.65,-36.30,19.64
14360,19.09,-7.96,-49.63,478.516,-628.418,51.270,20.25,-7.05,-36.90,19.79
14370,-4.48,5.56,-50.66,58.105,-4.395,217.773,21.30,-7.65,-34.80,19.55
14385,-2.15,-12.12,-38.86,-417.969,-959.961,1985.352,19.65,-8.10,-36.75,19.98
14394,15.61,1.97,-41.78,532.227,-347.168,1027.344,19.65,-8.10,-36.75,19.93
14405,9.25,-8.30,-48.56,293.457,-540.527,1845.215,19.35,-9.30,-35.25,19.98
14415,14.31,2.34,-40.89,396.973,-461.426,463.379,20.10,-9.30,-36.75,19.74
14425,-10.88,5.47,-49.09,-1255.371,-713.867,1999.939,20.10,-9.30,-36.75,19.64
14435,19.84,-2.39,-42.78,801.758,-1160.156,169.434,20.85,-8.85,-36.75,19.40
14445,0.80,10.89,-44.88,-345.703,-139.648,851.562,20.70,-8.25,-36.60,19.55
14455,26.81,-1.20,-42.97,500.488,-1136.230,46.875,21.60,-8.10,-34.80,19.64
14465,21.44,9.87,-36.52,19.043,-336.426,293.457,20.55,-9.75,-36.00,19.88
14477,7.76,9.68,-32.82,187.988,-846.191,1166.016,20.55,-9.75,-36.00,19.79
14487,-25.38,7.18,-37.95,-1104.004,-612.305,1999.939,20.70,-8.25,-34.95,19.98
14497,-5.17,1.46,-40.81,564.941,-1277.832,-317.383,19.95,-9.45,-36.15,19.88
14507,-20.53,14.63,-38.89,-292.969,-34.180,273.926,20.25,-9.90,-36.60,19.88
14517,0.77,5.28,-43.06,-82.031,-581.543,1999.939,21.00,-9.90,-37.35,19.88
14527,2.22,7.44,-39.26,388.672,-273.926,488.770,21.00,-9.90,-37.35,19.45
14536,-10.50,2.90,-42.47,-161.133,470.215,1124.023,21.00,-9.15,-36.60,19.88
14548,12.30,9.74,-44.26,457.520,-918.945,322.754,20.85,-10.95,-37.05,19.64
14558,-4.25,3.45,-51.88,-858.398,-895.996,1999.939,20.85,-11.25,-37.50,19.79
14568,19.60,5.85,-47.22,1127.441,-1013.672,24.414,22.35,-9.75,-39.30,19.74
14578,-21.61,-1.21,-42.47,-991.699,-186.523,1427.246,22.35,-9.75,-39.30,19.64
14588,-1.00,-2.37,-42.08,683.594,-1229.980,47.852,21.45,-11.10,-36.90,19.55
14598,-13.52,11.02,-54.66,-53.711,117.188,584.473,22.35,-10.05,-36.30,19.74
14610,2.18,12.24,-50.85,87.891,209.961,1465.820,21.30,-10.05,-36.75,19.26
14619,-22.52,5.60,-62.77,-1506.348,613.770,1577.148,21.30,-10.05,-36.75,19.74
14629,20.58,7.20,-32.22,1417.969,-306.641,-1508.789,23.25,-12.15,-37.80,19.88
14639,12.92,13.93,-35.74,-1262.207,540.039,250.000,23.25,-14.40,-36.75,19.64
14649,21.97,-5.31,-41.53,1425.293,-1917.969,-1768.066,22.35,-11.70,-37.05,19.64
14659,-38.37,3.58,-20.12,-1325.195,31.250,1061.523,22.35,-11.70,-37.05,19.45
14669,-8.70,0.48,-39.49,359.863,-1166.992,245.117,23.40,-14.70,-35.70,19.64
14681,-1.05,-0.66,-44.97,780.273,-382.324,974.609,22.20,-11.55,-36.90,19.60
14691,-22.49,1.05,-53.19,26.367,-1077.148,1999.939,24.90,-14.70,-36.15,19.79
14701,-0.31,9.75,-45.50,-841.797,103.516,666.016,24.90,-14.70,-36.15,19.55
14711,17.68,-2.09,-50.63,1044.922,-957.031,643.066,23.70,-12.30,-38.10,19.79
14721,0.99,-8.14,-50.33,520.020,-848.145,516.602,24.00,-13.65,-37.50,19.64
14731,-19.98,-3.25,-55.53,-816.406,-218.262,1092.773,23.25,-15.60,-36.00,19.64
14743,-7.98,5.95,-62.60,-270.996,-572.754,333.984,23.40,-12.75,-38.85,19.79
14753,-11.02,0.11,-41.04,297.363,-937.012,1698.730,23.40,-12.75,-38.85,19.79
14763,-2.63,7.41,-53.54,-186.523,-44.434,468.262,24.15,-15.90,-37.35,19.55
14773,-2.33,2.79,-42.61,225.098,-1343.750,1999.939,23.70,-14.70,-36.15,19.40
14783,-0.86,2.51,-45.77,-326.172,-332.031,1315.430,23.25,-14.40,-37.05,19.74
14793,-3.64,-0.25,-41.03,248.047,-970.215,1999.939,23.70,-16.20,-36.90,19.74
14803,3.42,6.21,-42.24,160.645,-595.215,1279.297,23.70,-16.20,-36.90,19.74
14815,-8.74,5.92,-43.43,172.852,129.883,1623.535,23.70,-15.45,-36.60,19.88
14825,-5.94,-3.24,-42.28,-289.551,-935.059,1999.939,23.25,-16.05,-36.30,19.45
14835,-0.50,1.04,-48.39,-117.676,-90.820,1546.387,23.25,-16.05,-36.30,19.79
14845,12.82,-2.92,-38.98,-92.773,-1425.293,1999.939,24.00,-16.80,-37.05,19.64
14855,15.79,4.67,-34.54,-173.340,-253.418,1507.324,23.55,-17.70,-36.75,19.74
14865,10.96,-1.98,-38.87,541.504,-1111.328,1062.988,24.90,-15.90,-38.10,19.79
14875,-0.85,5.74,-48.18,-110.352,-382.324,226.074,25.05,-15.30,-37.80,19.74
14888,-14.98,6.61,-39.70,-509.766,-363.281,1795.898,25.05,-15.30,-37.80,19.64
14911,20.33,3.78,-36.36,833.496,-1058.594,-206.543,24.30,-17.70,-36.75,19.79
14920,-25.20,2.60,-52.81,-1172.363,565.918,503.418,24.30,-19.65,-37.05,19.88
14930,17.50,2.44,-35.73,1165.039,-683.594,-854.980,24.90,-17.40,-38.85,19.79
14940,-15.68,4.06,-51.69,-965.820,-991.211,1229.492,24.90,-17.40,-38.85,19.88
14950,23.59,-3.02,-46.20,1091.309,-604.980,594.727,24.60,-19.05,-38.85,19.64
14962,12.62,3.50,-33.69,-154.785,-207.520,459.473,24.00,-18.00,-37.80,19.74
14972,2.53,-10.77,-40.93,1108.398,-803.711,1664.551,24.30,-19.65,-37.80,19.60
14982,-20.50,-0.50,-45.52,-30.273,-104.004,1241.699,24.30,-19.65,-37.80,19.55
14992,-5.73,-3.19,-52.83,88.867,-804.199,1541.992,24.15,-18.30,-38.40,19.55
15002,-13.35,-0.97,-44.86,-471.191,-568.359,1467.285,24.30,-19.65,-38.25,19.60
15012,8.73,1.37,-40.47,241.211,-642.578,189.941,24.30,-19.65,-38.25,19.60
15021,-29.97,3.45,-41.10,-1526.855,689.453,1164.063,24.00,-19.65,-38.25,19.64
15033,-2.90,19.15,-51.38,-797.852,-314.453,666.016,25.65,-21.00,-38.85,19.74
15043,5.61,7.40,-43.75,610.352,-1010.254,433.105,24.75,-20.40,-39.00,19.74
15053,-20.08,13.03,-50.66,-570.801,-518.066,1557.617,24.75,-19.65,-39.30,19.79
15063,3.29,13.66,-46.16,-17.578,-675.781,468.750,24.75,-19.65,-39.30,19.55
15073,-13.18,2.82,-37.83,-198.730,-316.895,1999.939,24.60,-21.45,-39.15,19.74
15083,11.38,14.14,-52.88,365.723,-833.984,578.125,24.90,-19.05,-38.85,19.64
15092,-21.60,6.60,-50.60,-1556.641,673.340,433.105,25.05,-20.85,-38.25,19.79
15104,-32.56,2.61,-38.38,-565.918,321.289,1422.852,24.15,-23.40,-39.60,19.64
15114,-6.53,-3.35,-60.32,-401.855,-249.512,873.535,24.15,-23.40,-39.60,19.55
15124,-9.24,10.83,-45.29,-352.539,-198.242,580.566,24.75,-21.30,-39.30,19.60
15134,25.29,-9.49,-53.71,1150.879,-1316.406,-715.820,24.30,-22.50,-38.55,19.64
15144,-17.30,-6.96,-54.85,230.957,-1094.238,1235.352,25.50,-23.25,-39.30,19.88
15154,-0.42,1.58,-55.98,-593.750,7.812,1184.082,24.90,-21.90,-39.90,19.74
15166,-5.87,-2.92,-51.81,-460.449,-295.898,1999.939,24.90,-21.90,-39.90,19.79
15176,-11.66,-8.40,-111.50,-114.746,-931.152,1183.105,24.60,-24.60,-39.60,19.74
15186,5.60,-7.83,-3.78,238.770,-895.508,1533.203,24.60,-23.10,-40.35,19.93
15196,-16.24,-2.91,-48.44,-894.531,-392.090,1077.148,24.60,-23.10,-40.35,19.64
15206,-3.91,-3.82,-36.05,401.367,-690.918,-56.641,24.00,-23.70,-37.80,19.55
15216,-9.41,2.56,-51.91,-69.336,-437.988,733.398,24.90,-24.30,-40.35,19.74
15226,-11.23,-1.90,-41.64,-86.914,-75.195,1999.939,24.00,-23.25,-40.50,19.64
15238,-6.05,-3.10,-44.34,-692.871,-174.316,896.973,24.15,-24.60,-39.15,19.64
15248,0.89,5.37,-41.79,1100.098,-271.484,426.758,24.15,-24.60,-39.15,19.74
15257,-3.26,-1.58,-53.20,-534.180,-138.184,1482.910,24.00,-24.00,-39.30,19.74
15267,6.04,-2.52,-44.50,645.020,-1172.363,441.895,23.25,-23.25,-39.75,19.93
15277,-16.66,2.53,-53.05,-769.531,-651.367,1457.520,24.15,-26.55,-39.15,19.40
15287,1.31,6.08,-48.52,-17.090,-168.457,1342.773,24.00,-24.90,-39.30,19.64
15299,-3.72,-2.53,-55.50,-768.555,-175.293,749.023,24.00,-24.90,-39.30,19.55
15309,8.65,-6.87,-37.79,950.684,-642.578,1259.277,23.55,-24.90,-38.55,19.64
15319,5.82,-4.40,-44.77,140.137,-1667.480,794.434,24.00,-26.40,-39.75,19.64
15329,-16.85,-7.50,-43.69,-715.332,-263.184,705.078,23.25,-25.65,-40.05,19.88
15339,16.92,-5.97,-44.91,699.219,-936.523,958.008,23.70,-24.60,-39.90,19.79
15349,4.12,-0.22,-48.17,-40.527,-1030.273,1483.887,23.70,-24.60,-39.90,19.64
15359,12.02,-6.25,-44.66,-504.883,-308.594,1085.938,23.55,-26.40,-40.50,19.55
15371,-4.34,-5.89,-38.39,-735.840,-439.453,1327.637,22.95,-25.50,-39.90,19.88
15381,2.68,3.50,-43.77,188.965,-547.363,894.043,24.30,-28.05,-39.00,19.60
15390,-10.65,-0.16,-37.92,-669.434,-402.344,275.391,24.00,-26.85,-40.50,19.74
15400,-6.18,1.34,-40.39,180.664,-1043.945,1543.457,23.70,-26.55,-40.35,19.60
15410,-8.50,3.02,-40.67,163.574,-1041.504,1634.277,23.25,-28.05,-39.75,19.88
15426,-12.26,2.03,-38.45,-142.578,-327.637,1497.559,24.30,-28.05,-40.05,19.64
15435,-5.46,1.22,-41.19,-344.238,-497.070,1138.184,22.80,-27.60,-39.75,19.55
15447,-4.40,1.92,-34.66,-836.914,-743.164,1274.902,24.30,-28.35,-38.25,19.60
15457,-2.19,5.04,-46.87,-117.188,-432.617,1142.578,23.25,-27.60,-40.80,19.45
15467,4.33,-2.88,-40.53,364.258,-842.285,1233.398,23.25,-26.40,-39.75,19.64
15477,-14.65,-4.11,-46.11,-604.980,-217.285,900.879,23.25,-26.40,-39.75,19.93
15487,-2.05,5.16,-34.84,373.535,-843.750,-134.277,22.80,-27.60,-40.05,19.64
15497,-9.49,3.17,-57.36,-505.859,-714.844,1676.758,23.25,-26.40,-40.80,19.93
15507,-1.83,4.66,-32.31,51.758,-633.301,1368.652,22.95,-28.95,-39.90,19.45
15519,2.04,1.34,-44.47,-351.562,-367.187,645.020,22.35,-28.35,-40.50,19.64
15529,13.76,2.35,-41.45,791.504,-781.738,1188.477,22.35,-28.35,-40.50,19.55
15538,0.61,-9.05,-53.88,-723.633,-209.473,1482.910,24.00,-28.05,-40.80,19.98
15548,14.15,5.60,-43.83,543.457,-871.582,308.594,22.20,-29.40,-39.60,19.79
15557,-6.49,7.01,-48.01,-879.395,-513.672,206.543,22.05,-29.25,-40.05,19.79
15567,6.56,-3.53,-42.45,929.199,-974.609,-258.301,22.20,-28.95,-41.10,19.55
15579,1.36,0.82,-42.71,626.465,-1182.129,-135.254,22.20,-28.95,-41.10,19.79
15589,-16.41,-1.53,-52.48,-625.977,179.199,1613.281,21.60,-30.45,-39.75,19.45
15599,-2.91,-0.52,-48.49,-120.605,207.031,1045.898,21.60,-28.80,-40.80,19.79
15609,-0.62,-6.41,-54.64,250.488,-501.953,113.281,21.60,-28.80,-40.80,19.64
15619,2.43,-1.13,-37.21,-223.633,-583.984,660.156,21.60,-30.45,-41.25,19.64
15629,3.78,0.47,-41.89,-30.273,-755.371,1999.939,22.35,-30.45,-42.00,19.74
15639,7.12,-0.01,-39.60,232.422,-557.129,1091.797,22.20,-30.15,-41.10,19.88
15651,-1.34,0.13,-45.79,-137.695,-482.422,1335.938,20.25,-29.40,-41.10,19.79
15661,6.70,6.11,-48.05,-231.934,-475.098,478.027,20.25,-29.40,-41.10,19.88
15671,-2.48,2.74,-46.49,-224.121,-729.004,1623.535,20.85,-30.75,-40.50,19.36
15681,9.13,-4.82,-45.94,-211.914,-875.977,1030.762,20.85,-31.20,-41.55,19.74
15691,-0.31,7.73,-47.93,-227.539,-626.953,680.176,21.60,-31.20,-40.80,19.64
15701,22.69,3.60,-37.12,510.254,-731.934,1367.676,21.00,-30.60,-41.85,19.88
15710,6.18,0.78,-44.24,-288.574,-197.266,668.457,21.00,-30.60,-41.85,19.60
15722,6.24,-0.68,-47.02,-199.219,-708.984,1704.102,20.85,-30.45,-43.20,19.79
15732,0.69,-7.79,-47.79,-183.594,-767.090,1291.016,19.95,-31.35,-40.35,19.79
15742,-5.82,-11.24,-46.64,26.367,-357.910,959.473,22.05,-31.65,-41.55,19.45
15752,-4.05,-6.50,-40.22,-335.937,-464.355,895.996,19.95,-31.80,-40.65,19.64
15762,-3.35,-6.92,-44.26,-74.219,-695.801,1383.301,19.95,-31.80,-40.65,19.93
15772,-2.90,-4.17,-45.56,-35.645,-665.039,683.105,19.95,-32.25,-40.35,19.79
15784,14.37,3.18,-29.38,369.141,-833.008,587.891,20.10,-31.65,-40.80,19.79
15794,8.75,-4.16,-38.13,-42.969,-1101.074,1999.939,20.10,-31.65,-40.50,19.98
15804,-8.15,2.90,-36.81,-460.937,-409.180,340.820,19.50,-33.45,-40.65,19.79
15814,8.77,-1.15,-37.81,21.973,-1008.789,951.172,19.65,-33.15,-40.80,19.64
15824,12.28,0.05,-45.82,39.551,-1006.836,1494.629,18.75,-33.00,-41.10,19.55
15834,-9.79,0.64,-38.34,-20.020,-808.594,1291.504,18.75,-33.00,-41.10,19.93
15844,-6.24,6.02,-44.21,-378.418,-275.391,558.105,18.75,-32.55,-41.85,19.64
15856,1.45,-0.11,-46.03,-279.297,-493.164,1186.035,19.35,-32.85,-41.55,19.88
15866,0.64,-1.77,-40.31,-104.980,-689.453,1007.324,19.50,-33.75,-40.65,19.79
15876,8.29,2.17,-45.45,-577.148,-397.949,756.348,18.90,-34.35,-40.80,19.79
15886,10.24,-0.10,-40.66,614.258,-925.781,1023.437,18.90,-34.35,-40.80,19.93
15896,-7.67,8.19,-41.15,-277.344,-273.926,681.641,18.45,-33.00,-40.65,19.79
15906,-4.91,-0.20,-41.89,61.523,-555.176,875.977,18.00,-34.65,-41.85,19.55
15916,-4.48,-5.31,-43.42,46.387,-418.457,1999.939,18.45,-33.00,-41.10,19.88
15928,-4.91,-3.98,-37.90,-62.012,-723.633,362.305,17.85,-34.05,-40.50,19.40
15943,-3.23,0.11,-43.86,-555.664,-43.457,1375.977,17.85,-34.05,-40.50,19.79
15952,-0.60,-4.42,-38.88,133.789,-579.590,749.512,17.10,-33.60,-39.30,19.55
15962,-2.85,-3.38,-31.29,-727.539,-305.176,1999.939,17.85,-34.35,-39.75,19.45
15972,5.92,0.38,-39.34,6.348,-768.555,1485.840,17.85,-34.35,-39.75,19.74
15983,-2.72,-0.27,-35.40,260.254,-848.145,698.242,17.85,-33.60,-41.25,19.45
15993,2.42,-0.88,-20.72,-767.090,-54.688,1255.371,18.00,-34.65,-39.15,19.40
16003,4.79,5.09,-41.06,207.520,-970.215,1026.855,17.55,-34.95,-40.35,19.88
16013,-5.92,3.15,-36.49,-456.055,-149.414,1667.969,16.65,-34.35,-39.30,19.79
16023,4.71,0.40,-37.57,250.488,-916.992,827.637,16.65,-34.35,-39.30,19.88
16033,2.50,-4.34,-41.77,-278.809,-95.703,1773.438,16.20,-35.25,-39.30,19.93
16043,2.25,-8.27,-35.99,106.934,-630.371,1061.035,16.20,-35.25,-39.75,19.55
16055,-0.24,-5.31,-31.88,-176.758,-798.340,597.656,16.50,-35.85,-39.60,19.64
16065,-6.15,-1.93,-43.79,-90.820,-71.777,1330.566,16.50,-35.85,-39.60,19.55
16075,1.48,-1.26,-39.83,-403.809,-152.832,910.645,15.30,-34.65,-39.60,19.64
16085,-1.00,1.22,-34.35,90.820,-764.648,1217.285,14.85,-35.40,-38.85,19.79
16095,-1.39,4.06,-40.11,-161.621,-433.105,728.027,16.80,-35.40,-38.85,19.79
16105,-6.36,-4.89,-35.99,264.160,-920.898,1401.367,15.15,-34.80,-39.00,19.79
16117,-0.98,-6.56,-38.51,53.223,-735.840,1050.781,15.15,-34.80,-39.00,19.93
16127,-0.62,-4.03,-36.40,-671.387,-89.355,1434.082,15.75,-36.15,-39.60,19.88
16137,12.88,0.01,-40.98,538.574,-817.383,793.457,15.30,-35.40,-38.40,19.98
16147,-9.21,1.34,-43.64,-803.711,-127.441,1999.939,15.30,-35.40,-38.40,19.40
16157,12.36,-8.88,-34.33,282.715,-1038.086,893.066,15.30,-36.15,-38.40,19.64
16167,-9.78,-0.07,-43.18,-344.727,53.223,1463.379,15.45,-36.75,-38.25,19.74
16177,16.06,-1.02,-37.54,470.215,-1011.230,-135.254,14.85,-36.15,-38.10,19.88
16189,7.04,-2.04,-41.92,-120.117,-378.906,183.105,16.20,-37.20,-39.30,19.79
16199,-0.13,-3.01,-45.27,-256.348,-1034.668,1999.939,16.20,-37.20,-39.30,19.79
16209,4.92,13.05,-44.35,-266.113,-157.715,829.590,14.70,-36.00,-39.00,19.93
16219,-15.94,-0.71,-37.50,-223.633,-1014.648,1999.939,14.55,-35.40,-39.60,19.98
16229,-3.27,6.73,-37.09,-209.961,-380.371,742.676,15.15,-34.80,-39.00,19.55
16239,-2.52,-1.31,-30.07,-353.027,-633.789,1999.939,14.10,-37.05,-38.10,19.64
16251,0.47,-1.40,-40.34,479.492,-925.781,1003.418,14.10,-37.05,-38.10,19.40
16261,10.47,8.70,-39.30,-525.391,-223.633,1039.063,14.70,-36.00,-39.30,19.45
16271,22.87,-5.95,-43.36,575.684,-1201.172,949.219,14.10,-36.60,-38.40,19.79
16281,-7.31,-1.69,-46.58,-749.023,-425.293,1558.105,14.55,-37.80,-38.85,19.88
16291,18.31,0.37,-35.79,361.816,-1040.039,87.891,13.95,-36.00,-38.55,19.79
16301,-18.54,1.44,-38.34,-727.051,42.480,1254.395,13.95,-36.00,-38.55,19.74
16311,16.58,-3.97,-35.33,577.637,-979.980,288.574,13.80,-36.15,-37.65,19.64
16323,12.57,-0.60,-41.03,438.477,-753.906,150.391,13.80,-35.85,-39.60,19.74
16333,-19.06,0.38,-39.73,-1040.039,279.785,1260.254,13.80,-35.85,-39.60,19.64
16343,18.29,3.67,-40.63,132.812,-680.664,879.395,13.50,-38.40,-37.80,19.55
16353,-11.98,7.48,-43.02,-728.027,-133.301,1974.609,13.20,-37.20,-38.55,19.64
16363,15.61,-0.36,-30.33,572.754,-933.105,-220.703,13.05,-37.05,-38.85,19.93
16373,-11.51,-1.39,-36.17,-582.520,-431.641,1580.566,13.80,-38.55,-38.10,19.64
16385,-9.49,-1.71,-39.54,-271.484,-129.395,1999.939,13.50,-36.75,-38.55,19.93
16395,3.45,1.64,-34.30,210.449,-612.305,294.434,13.95,-37.65,-36.75,19.79
16405,-14.62,-0.26,-36.62,-232.910,-560.547,1999.939,13.95,-37.65,-36.75,19.64
16415,5.08,-3.07,-32.47,287.109,-459.473,600.586,14.55,-37.35,-38.10,19.64
16425,-10.05,-3.80,-39.89,-446.777,-353.027,1999.939,14.55,-37.35,-38.10,19.55
16435,16.02,2.60,-39.06,23.926,-353.516,603.027,14.55,-37.35,-38.10,19.64
16444,5.63,1.15,-36.21,-399.902,208.008,541.992,12.60,-36.60,-37.65,19.88
16461,-5.99,4.89,-40.28,-461.914,-107.910,640.625,12.45,-37.20,-38.55,19.79
16470,10.37,-0.63,-36.48,497.070,-1182.129,525.879,12.00,-36.00,-38.55,19.74
16480,-25.05,6.38,-39.69,-685.059,147.461,895.020,12.00,-36.00,-38.55,19.36
16490,4.42,-5.34,-39.82,93.262,-1170.410,502.441,12.00,-37.65,-37.80,19.88
16500,-19.03,4.23,-53.86,-647.461,207.520,448.730,11.40,-37.80,-38.10,19.74
16510,13.51,-3.60,-32.17,187.500,-835.937,694.336,11.85,-36.60,-37.65,19.79
16520,-9.73,-3.31,-42.62,-625.488,-381.836,1978.516,11.70,-37.65,-38.25,19.74
16532,-12.43,-2.03,-35.27,-1122.559,-277.344,1938.965,12.00,-37.95,-37.50,19.93
16542,16.43,0.98,-41.02,482.422,-1024.902,970.703,11.10,-37.80,-38.85,19.79
16552,-9.05,-2.08,-43.85,-633.301,352.539,1922.852,11.10,-37.35,-37.65,19.60
16562,6.83,-4.40,-39.66,381.348,-870.605,412.598,11.10,-37.35,-37.65,19.40
16572,-24.71,-3.35,-40.37,-811.035,52.734,290.039,12.00,-37.95,-37.50,19.74
16582,11.17,-4.95,-40.43,535.645,-1012.207,527.832,12.45,-38.40,-36.75,19.64
16592,-30.98,-3.78,-38.45,-882.812,587.891,1416.504,11.25,-39.15,-39.00,19.64
16604,-11.63,-4.21,-32.79,-1312.012,362.305,1020.020,10.50,-37.65,-38.55,19.74
16614,28.85,-1.66,-39.47,933.105,-824.219,138.672,10.50,-37.65,-38.55,19.74
16624,-19.99,-5.11,-40.27,-1396.973,607.422,1067.383,9.90,-38.55,-38.10,19.64
16634,15.87,-0.97,-41.65,538.086,-684.570,-453.613,11.40,-37.35,-36.90,19.79
16644,-1.08,0.54,-34.78,-497.070,-41.016,864.746,10.05,-39.90,-37.80,19.64
16654,8.80,-1.99,-36.56,372.070,-820.801,81.543,10.50,-37.65,-37.80,19.88
16666,4.64,-2.46,-38.69,394.043,-249.512,-24.414,11.10,-38.25,-36.15,19.40
16676,-14.88,-1.75,-41.86,-899.902,186.035,706.543,11.70,-39.60,-37.80,19.74
16686,8.19,-0.31,-47.57,663.086,-652.832,-302.246,10.50,-39.60,-37.80,19.64
16696,-8.06,0.60,-28.31,-755.859,-59.082,871.582,9.75,-38.40,-36.75,19.64
16706,15.84,3.15,-44.45,92.285,-869.629,-8.301,9.75,-38.40,-36.75,19.64
16716,-0.91,3.98,-41.11,-529.297,-126.465,1221.191,8.40,-37.80,-37.35,19.64
16726,12.35,-3.56,-29.27,391.602,-1088.379,791.504,10.05,-39.60,-35.25,19.55
16738,15.45,3.63,-32.77,479.980,-678.711,61.523,10.05,-39.60,-35.25,19.45
16748,1.47,4.48,-43.23,-816.895,209.961,1226.074,10.50,-37.95,-37.05,19.45
16758,12.96,-2.61,-38.27,117.188,-597.656,691.406,9.90,-38.55,-36.15,19.88
16768,6.68,8.20,-38.84,205.566,-342.773,552.246,8.40,-38.55,-37.35,19.88
16777,-28.05,7.60,-41.63,-863.770,-281.738,1385.742,10.50,-37.65,-35.55,19.64
16787,11.70,3.09,-36.01,369.141,-470.215,-84.961,10.50,-37.65,-35.55,19.79
16797,-10.53,0.82,-34.97,-902.832,213.379,1415.527,9.30,-39.90,-37.05,19.64
16809,-11.00,3.01,-41.42,-512.695,-310.547,1733.398,10.35,-37.35,-35.70,19.74
16819,12.30,1.15,-33.24,770.020,-841.309,-503.906,9.90,-38.55,-35.70,19.40
16829,-21.37,-1.71,-41.98,-992.187,405.273,969.238,9.90,-38.55,-36.60,19.60
16839,8.69,-7.50,-40.71,210.449,-973.145,586.426,9.90,-38.55,-36.60,19.79
16849,-17.13,0.70,-39.69,-670.898,381.836,730.957,9.15,-38.55,-36.60,19.64
16859,8.00,-1.50,-38.95,284.668,-848.145,-169.434,8.55,-39.15,-37.50,19.88
16871,10.50,1.19,-28.94,248.535,-776.367,112.305,9.00,-39.15,-36.75,19.93
16881,-2.12,3.51,-37.65,-697.754,379.883,796.875,9.15,-39.75,-36.60,19.88
16891,17.10,-1.77,-46.83,280.273,-955.078,154.785,9.15,-39.75,-36.60,19.64
16901,1.35,11.63,-35.97,-322.266,-441.895,1089.355,8.25,-37.65,-36.30,19.45
16911,16.42,-4.45,-38.04,412.598,-1250.977,677.246,8.70,-39.75,-36.60,19.79
16921,-8.17,9.45,-46.18,-166.016,-115.234,1097.656,8.70,-39.75,-36.60,19.79
16931,7.58,-0.04,-39.49,223.633,-991.699,1071.777,7.65,-39.30,-35.70,19.74
16943,0.21,-2.27,-43.27,53.223,-985.840,1426.758,7.65,-40.50,-34.20,19.79
16953,-5.86,2.24,-45.52,205.078,-242.676,919.922,9.60,-39.30,-36.90,19.64
16963,-6.01,-5.05,-38.89,-200.195,-415.527,1178.223,7.35,-39.90,-37.50,19.74
16977,7.02,-0.81,-50.30,128.906,-230.469,1001.465,6.60,-38.70,-37.80,19.88
16987,1.50,-8.37,-47.31,-75.195,-819.336,1999.939,7.65,-39.00,-34.65,19.88
16997,9.46,0.62,-42.60,-179.687,-601.074,382.812,7.05,-41.10,-35.55,19.88
17007,-5.63,-8.04,-37.35,-240.234,-422.852,1561.035,7.35,-39.60,-36.00,19.88
17019,-8.96,-4.09,-32.79,-346.680,-440.918,1819.824,7.35,-39.60,-36.00,19.88
17029,10.56,4.14,-42.53,300.293,-638.184,291.992,6.60,-39.60,-36.30,19.79
17039,-2.73,1.52,-46.06,-344.727,-116.699,1278.320,7.80,-40.35,-36.00,19.79
17049,17.41,0.07,-34.34,326.660,-874.512,845.215,6.90,-40.50,-34.95,19.45
17058,6.98,7.09,-43.20,105.469,-558.594,752.930,6.60,-40.80,-34.80,19.93
17068,-6.12,3.67,-34.43,-1125.000,-152.832,1999.939,6.60,-40.80,-34.80,19.60
17078,11.65,9.63,-42.17,153.809,-408.203,117.676,6.45,-40.20,-36.15,19.79
17090,13.45,-2.98,-42.02,255.859,-1075.684,1462.402,7.20,-40.20,-37.65,19.74
17100,-1.81,6.62,-24.71,-115.723,-175.293,731.445,7.20,-40.20,-37.65,19.64
17110,0.86,1.89,-35.53,17.090,-1232.910,1626.953,7.05,-40.35,-34.05,19.79
17120,-1.38,4.68,-46.61,-118.164,-425.781,783.691,6.30,-39.90,-35.25,19.64
17130,5.83,-1.36,-43.87,-137.207,-544.922,1427.734,6.60,-39.15,-36.30,19.64
17140,1.86,3.12,-43.82,-8.789,-363.281,1532.715,6.30,-39.60,-35.55,19.55
17152,1.54,0.45,-42.42,-35.156,-242.187,666.504,6.30,-39.60,-35.55,19.79
17162,-3.88,-6.85,-43.88,-414.062,-804.687,1571.289,5.70,-40.50,-34.20,19.74
17172,1.67,-3.71,-46.06,139.160,-656.738,635.254,5.85,-42.00,-34.80,19.93
17182,-12.25,2.90,-49.14,-447.266,-134.766,1703.125,4.50,-40.50,-35.70,19.74
17192,1.59,3.31,-45.22,203.613,-629.395,641.113,5.70,-40.50,-35.70,19.88
17202,-4.60,0.29,-43.19,-372.070,-301.270,1438.477,5.70,-40.50,-35.70,19.64
17212,14.43,-2.02,-38.05,-98.633,-730.957,681.152,5.55,-40.80,-35.25,19.64
17224,13.81,-6.29,-48.76,161.621,-743.164,765.137,6.60,-41.10,-34.50,19.55
17234,2.82,2.34,-37.66,-15.137,-240.234,686.035,4.50,-41.70,-34.65,19.88
17244,-4.37,2.37,-45.73,-66.406,-420.898,1459.961,4.50,-39.75,-35.40,19.74
17254,7.92,5.40,-39.34,123.047,-669.922,544.434,4.50,-39.75,-35.40,19.79
17263,-14.37,-2.10,-47.19,168.945,-283.691,766.602,5.55,-42.30,-34.80,19.74
17273,-5.65,-8.22,-37.32,-114.746,-825.684,1339.355,5.55,-41.10,-35.25,19.55
17283,-2.31,0.72,-45.47,52.246,-193.848,761.230,3.90,-41.55,-34.80,19.64
17295,12.15,4.12,-46.67,481.445,-287.598,664.062,4.80,-42.00,-34.05,19.55
17305,-1.76,2.75,-45.01,-783.203,141.602,1704.102,4.80,-42.00,-34.05,19.88
17315,20.77,-2.41,-36.50,412.109,-1119.141,295.410,3.15,-41.55,-33.75,19.88
17325,-2.67,1.33,-54.39,-741.699,-362.305,1085.449,4.20,-42.90,-34.95,19.93
17335,9.54,-7.57,-45.84,380.859,-1321.289,-40.039,4.20,-42.90,-34.95,19.93
17345,-7.98,-0.39,-48.66,-824.707,-357.422,442.383,3.75,-42.60,-32.70,19.64
17355,-1.86,-13.54,-47.55,516.113,-779.785,831.543,2.55,-43.35,-34.20,19.55
17369,1.02,-5.95,-50.87,178.711,-49.805,980.469,1.80,-43.80,-34.95,19.88
17379,17.34,-6.54,-49.46,-47.363,-1052.246,1554.688,1.80,-43.80,-34.95,19.60
17389,11.87,3.25,-41.37,453.613,-913.086,578.613,0.90,-42.30,-33.75,19.64
17399,-16.05,-2.14,-51.52,-768.555,-901.855,1999.939,2.10,-42.75,-34.05,19.74
17409,-0.86,-8.05,-50.43,750.000,-608.887,-116.211,2.25,-42.90,-34.95,19.79
17419,-28.10,-12.08,-47.69,-1678.223,-230.957,1999.939,1.05,-40.95,-34.95,19.79
17431,-19.14,-5.01,-53.46,-1374.512,411.133,496.582,1.05,-40.95,-34.95,19.64
17441,-2.70,1.56,-44.40,1094.238,-1296.387,588.379,0.15,-43.20,-35.25,19.74
17451,-6.59,3.92,-51.76,-404.785,350.586,896.484,1.50,-41.40,-34.65,19.93
17461,2.95,-4.62,-60.50,445.801,-1190.430,1332.031,1.50,-43.80,-33.15,19.98
17471,7.81,1.11,-52.31,-49.316,-288.086,613.281,0.75,-43.80,-34.95,19.88
17481,4.96,7.67,-36.24,-845.703,-1030.762,1999.939,0.15,-42.75,-34.50,19.45
17497,0.80,4.75,-48.85,-645.508,-929.199,1999.939,0.00,-44.10,-34.20,19.64
17507,9.83,0.99,-44.09,586.914,-943.848,77.148,-1.05,-43.35,-34.65,19.74
17517,-15.49,0.40,-43.91,-745.117,-255.371,1999.939,-1.05,-43.35,-34.65,19.88
17527,11.99,-0.67,-46.75,643.555,-1101.074,-154.297,-0.15,-43.20,-33.30,19.74
17537,-5.34,12.14,-42.73,-961.914,-447.754,110.840,-1.05,-43.35,-33.90,19.64
17547,17.47,0.33,-44.15,593.262,-798.340,295.898,-1.05,-42.15,-33.15,19.64
17557,0.31,0.67,-52.43,-630.371,-208.984,1031.738,-1.05,-43.35,-33.45,19.64
17569,2.17,8.57,-55.34,131.836,-480.957,1216.797,-1.80,-43.35,-34.95,19.60
17579,3.50,-0.69,-50.13,-494.629,-646.973,1999.939,-1.65,-43.95,-33.75,19.79
17589,19.05,1.21,-43.26,157.227,-449.219,990.234,-2.85,-42.00,-34.50,19.79
17599,-11.56,-7.56,-53.62,-260.254,-1370.605,1999.939,-2.10,-43.95,-33.30,19.93
17609,-2.15,-0.46,-40.42,264.648,-648.926,395.996,-2.10,-43.95,-33.30,19.93
17619,-26.29,3.95,-52.92,-857.422,-91.309,863.281,-1.80,-42.15,-33.45,19.88
17629,10.92,-7.70,-43.78,996.094,-406.738,-355.469,-3.75,-41.70,-33.90,19.36
17641,22.86,-5.39,-62.63,1098.633,-960.937,-698.242,-4.35,-43.20,-33.75,19.74
17651,16.67,17.52,-36.72,-1036.621,-834.961,-129.395,-3.90,-43.20,-34.05,19.64
17661,8.05,3.04,-49.34,616.699,-1846.191,-593.750,-3.90,-43.20,-34.05,19.74
17671,-12.01,4.51,-51.95,-523.437,354.492,1739.258,-3.75,-43.35,-33.90,19.88
17681,-2.92,1.02,-50.29,296.875,-974.609,1927.734,-4.50,-43.80,-33.45,19.79
17691,-4.75,4.19,-54.56,393.066,-574.219,725.098,-4.50,-43.80,-33.45,19.88
17703,7.85,-0.82,-56.62,242.676,-224.121,1749.023,-4.35,-42.75,-33.75,19.79
17713,15.62,-8.73,-46.82,-933.105,-2000.000,1999.939,-4.20,-41.70,-33.45,19.88
17723,14.60,-0.77,-42.99,603.027,-895.996,437.012,-4.20,-42.90,-32.70,19.79
17733,-6.69,-0.71,-47.60,-1662.109,-168.945,1999.939,-5.55,-43.20,-33.30,19.45
17743,14.04,0.44,-48.02,1232.422,-1118.164,-420.410,-5.55,-43.20,-33.30,19.74
17753,-3.87,4.76,-47.33,-756.836,231.934,1171.387,-4.80,-42.75,-33.00,19.98
17763,17.73,1.80,-49.39,702.148,-1507.813,206.055,-5.70,-43.80,-32.40,19.74
17775,-3.62,-0.42,-43.14,1262.207,-1515.137,288.086,-6.15,-41.40,-33.90,19.74
