Time_ms,GyroX_degps,GyroY_degps,GyroZ_degps,AccelX_g,AccelY_g,AccelZ_g,MagX_uT,MagY_uT,MagZ_uT,Temp_C
1312,-1.37,-0.82,-2.16,61.523,21.484,1047.363,-19.20,-14.70,-31.20,15.71
1328,-0.22,-2.85,-2.68,192.383,34.180,1103.516,-19.95,-15.00,-31.65,15.67
1337,0.29,-0.72,1.24,105.469,24.414,959.473,-21.45,-14.25,-34.20,15.52
1347,-0.38,-1.37,-3.12,41.504,14.648,1057.617,-22.35,-15.30,-34.05,15.76
1357,0.51,-0.43,-1.05,189.941,71.289,979.492,-23.40,-13.80,-34.95,15.52
1367,-1.05,0.54,-4.73,233.398,49.805,979.980,-23.55,-13.65,-34.05,15.76
1377,0.46,-1.66,-1.18,-33.691,29.785,958.496,-24.30,-14.85,-34.50,15.71
1387,-1.21,-2.19,-3.68,177.734,-47.852,1119.141,-22.35,-16.05,-34.05,15.86
1399,-1.03,-1.07,-3.15,183.105,84.473,924.316,-23.40,-15.90,-34.65,15.33
1409,0.23,-0.19,-3.18,-31.738,-41.992,1181.641,-23.40,-15.90,-34.65,15.95
1419,0.40,-1.92,-5.16,255.859,49.316,1044.434,-20.85,-13.65,-31.05,15.76
1429,0.55,0.49,-2.26,148.437,64.941,772.949,-20.70,-14.25,-30.45,15.71
1438,0.62,-0.21,-3.41,-75.684,-62.500,1100.586,-19.50,-15.90,-29.70,15.71
1448,-1.66,-2.56,-1.73,345.215,43.945,1003.906,-18.90,-15.30,-28.80,15.43
1458,-2.05,-0.29,-1.94,51.758,18.066,898.437,-18.00,-16.20,-28.65,15.91
1470,0.06,-3.38,-2.27,129.395,59.082,1148.926,-16.80,-13.50,-28.95,15.38
1480,0.21,-1.08,-0.85,347.656,-99.121,826.172,-17.40,-14.85,-29.85,15.67
1490,0.52,-1.26,-3.38,3.906,5.371,1158.203,-17.40,-14.85,-29.85,15.71
1500,-2.65,-0.12,-2.62,265.625,-28.320,1022.461,-21.45,-15.90,-32.70,15.76
1510,-3.73,3.05,-3.32,16.113,146.484,863.770,-22.35,-14.10,-33.75,15.86
1520,0.16,-2.85,-2.18,158.691,29.297,1024.902,-23.55,-12.90,-35.25,15.76
1530,-1.15,-4.65,-5.45,161.133,70.313,735.352,-23.55,-14.40,-34.05,15.71
1542,1.62,-2.38,-3.02,166.016,-43.457,1246.094,-24.90,-15.90,-34.20,15.76
1552,0.25,-3.31,-4.28,86.426,41.992,943.848,-24.30,-16.80,-32.25,15.43
1562,-0.76,-3.79,-1.86,78.613,-123.535,1256.836,-21.90,-13.50,-31.95,15.76
1572,-0.18,1.13,-0.83,189.453,-66.406,589.844,-21.90,-13.50,-31.95,15.76
1582,-4.32,-0.56,-6.10,127.441,-76.172,1389.648,-19.50,-16.65,-29.70,15.86
1592,-1.33,-0.74,-1.89,211.426,57.617,824.219,-18.90,-15.60,-28.05,15.57
1602,-2.56,0.51,-3.19,80.078,12.207,1476.563,-18.90,-15.60,-28.05,15.43
1614,1.58,0.95,-4.34,157.715,81.543,697.754,-20.10,-15.30,-32.55,15.71
1624,-1.98,2.20,-3.47,219.727,-34.668,1133.789,-22.80,-13.65,-33.30,15.86
1634,0.57,-0.05,-0.08,131.348,5.859,645.996,-24.90,-13.80,-33.45,15.71
1644,-2.43,1.28,-2.80,322.266,-33.203,1149.414,-24.90,-13.80,-33.45,15.91
1654,0.42,0.44,-2.76,188.965,64.941,638.184,-24.90,-15.90,-32.40,15.86
1664,0.81,2.32,-2.27,220.703,-8.789,1060.059,-23.55,-15.60,-31.50,15.76
1674,0.20,0.61,-3.72,224.121,-85.449,1045.898,-23.55,-15.60,-31.50,15.71
1686,-4.18,0.44,-3.59,139.648,126.465,672.852,-19.35,-16.05,-29.10,15.67
1696,-1.05,-2.38,-4.24,244.629,20.020,1059.570,-18.90,-14.85,-27.60,15.71
1706,1.35,2.11,-1.98,200.684,33.203,1014.648,-18.75,-15.90,-29.40,15.95
1716,-0.96,-1.40,-4.27,18.555,69.336,1030.762,-21.30,-14.85,-30.30,15.38
1726,-0.13,-0.92,0.42,221.191,-109.863,1131.348,-21.30,-14.85,-30.30,15.86
1736,-1.54,-0.38,-2.26,235.352,218.262,836.426,-24.15,-14.70,-34.20,15.76
1748,-0.27,-3.53,-2.92,89.844,62.988,984.375,-25.05,-14.40,-33.00,15.71
1758,1.05,-0.26,-2.52,256.836,-147.949,995.605,-25.05,-14.40,-33.00,15.76
1768,-1.55,2.15,-5.53,293.945,177.734,944.336,-21.45,-15.00,-29.40,15.95
1778,0.78,-2.07,-3.33,281.738,-36.621,1109.375,-18.60,-15.60,-27.60,15.71
1788,-1.03,-0.17,-5.43,-52.246,3.906,1158.691,-18.60,-14.40,-29.10,15.57
1798,-3.42,0.34,-3.82,359.375,69.824,689.453,-18.75,-15.00,-29.70,15.57
1808,-1.54,1.64,-3.18,121.094,45.410,1120.605,-18.75,-15.00,-29.70,15.57
1820,-1.31,-1.88,-2.55,307.617,119.141,945.312,-24.75,-13.20,-34.05,15.76
1842,-0.66,-1.48,-3.59,373.535,82.520,809.082,-26.40,-15.45,-35.70,15.76
1851,-1.36,-0.16,-4.19,216.309,-59.570,907.227,-22.35,-16.05,-30.30,15.95
1861,-2.09,0.47,-4.17,318.848,98.633,996.094,-19.20,-16.65,-27.90,15.95
1871,-0.74,2.89,-6.09,16.602,-48.828,1124.512,-18.15,-14.85,-28.05,15.71
1881,0.64,-2.93,-3.50,241.699,34.180,1039.063,-19.65,-13.65,-30.75,15.67
1891,-0.28,-1.03,-2.66,214.844,83.984,985.352,-19.65,-13.65,-30.75,15.38
1903,-0.74,0.74,-1.56,75.195,155.273,806.152,-26.10,-15.00,-33.90,15.67
1913,-1.40,0.05,-4.19,407.227,-171.875,1228.516,-26.10,-15.00,-33.90,15.71
1923,-0.78,-0.78,-2.45,277.344,-44.922,880.371,-20.55,-17.25,-33.90,15.86
1933,-1.92,-2.56,-5.89,55.664,87.402,1312.988,-19.20,-13.80,-28.95,15.86
1943,1.70,-3.03,-5.25,211.914,8.789,1061.035,-19.20,-13.80,-28.95,15.86
1953,-1.19,0.63,-7.16,196.777,77.637,849.121,-25.50,-13.65,-34.80,15.76
1963,-4.32,-0.36,-3.84,253.906,13.184,959.473,-25.50,-13.65,-34.80,15.67
1975,-5.98,-0.15,-9.42,172.363,100.098,1079.102,-25.50,-15.30,-33.30,15.91
1985,-2.13,0.25,-6.40,136.719,101.074,927.734,-21.30,-15.60,-29.85,15.76
1995,2.39,-2.49,-7.17,458.984,-89.844,853.027,-21.30,-15.60,-29.85,15.57
2005,-2.02,1.55,-3.58,271.484,-39.063,1006.348,-20.70,-13.05,-29.70,15.95
2015,-1.23,1.40,-3.62,265.137,-67.383,792.480,-22.65,-14.25,-33.90,15.95
2025,1.40,2.46,-2.23,301.270,-90.820,734.863,-25.80,-14.40,-34.80,15.76
2037,2.23,-0.17,-4.66,336.914,-50.293,869.141,-24.60,-14.25,-33.90,15.95
2047,0.07,-0.43,-2.64,200.684,81.055,1007.812,-24.60,-14.25,-33.90,15.76
2057,1.92,-2.63,-0.53,126.465,-77.637,1117.676,-17.85,-14.40,-29.55,15.86
2067,-0.82,-3.15,-3.23,274.902,-116.699,1282.227,-21.00,-15.45,-33.15,15.57
2077,-0.15,-0.50,-3.32,188.965,93.750,1131.348,-21.00,-15.45,-33.15,15.86
2087,1.47,-4.76,-1.92,97.656,-33.203,962.891,-26.25,-15.60,-35.55,15.76
2097,-1.58,2.76,-4.66,254.883,-105.957,975.586,-21.90,-16.20,-31.65,15.76
2109,-1.29,-1.50,-5.29,375.488,-75.684,892.090,-20.10,-16.05,-29.85,15.86
2119,1.42,0.15,-3.63,306.152,41.504,1380.859,-19.20,-14.25,-30.90,15.95
2129,0.97,-3.92,-5.04,235.352,-77.637,949.219,-19.20,-14.25,-30.90,15.86
2139,-2.16,0.08,-5.82,208.984,-170.410,811.035,-26.40,-15.00,-35.70,16.05
2149,-2.08,-3.50,-5.31,131.348,97.168,926.758,-24.00,-16.05,-34.05,15.57
2159,4.01,-5.73,-5.15,359.863,166.016,1318.848,-24.00,-16.05,-34.05,15.95
2169,-2.19,-2.18,-7.56,194.336,-71.289,916.504,-18.15,-14.10,-31.05,15.95
2181,-2.18,-4.85,-8.43,383.301,154.785,914.062,-22.35,-14.40,-34.05,15.86
2191,1.05,-2.78,-4.27,223.633,63.965,1063.477,-26.70,-13.65,-35.55,15.91
2201,-1.37,-3.69,-6.98,287.598,49.805,1015.625,-24.90,-15.90,-33.15,15.91
2211,1.08,-3.60,-4.48,168.945,-15.137,730.957,-24.90,-15.90,-33.15,15.76
2221,-1.33,0.98,-5.56,32.227,153.320,1186.523,-18.75,-13.80,-31.65,15.67
2231,-1.73,-2.32,-4.50,284.668,22.949,1002.441,-22.20,-13.05,-34.65,15.76
2241,1.11,0.18,-4.70,104.004,-114.746,707.520,-26.40,-14.25,-35.70,15.86
2253,-1.19,3.10,-9.03,96.680,63.965,644.043,-21.45,-14.25,-32.70,15.43
2263,4.79,1.64,-7.44,41.016,127.441,962.402,-18.15,-15.30,-30.75,15.86
2273,-0.01,3.37,-1.86,335.449,-20.996,751.953,-19.35,-13.65,-31.05,15.95
2283,2.65,1.13,-8.76,242.187,-225.098,1176.270,-23.40,-13.05,-36.15,15.91
2293,1.32,0.05,-6.98,273.926,22.461,1233.398,-23.40,-13.05,-36.15,15.71
2303,-2.44,2.50,-6.52,212.891,157.227,963.867,-20.70,-15.45,-30.90,15.91
2313,2.38,-2.26,-1.73,169.922,-57.129,1060.059,-18.15,-13.20,-29.85,15.86
2325,6.51,-1.63,-6.79,211.426,208.008,1240.234,-24.75,-14.40,-35.55,15.67
2335,1.92,-2.53,-11.13,185.059,-57.129,1136.230,-22.05,-14.10,-31.80,15.67
2345,-1.53,-2.69,-7.30,297.852,81.543,1271.973,-18.15,-16.50,-29.55,16.10
2361,-0.24,-1.55,-5.50,39.063,-49.316,1246.582,-18.60,-12.45,-32.55,15.86
2370,0.62,3.53,-4.44,293.457,-68.848,154.297,-18.60,-12.45,-32.55,15.86
2380,-4.58,1.99,-7.08,62.988,189.941,588.867,-24.00,-14.10,-34.05,15.86
2390,-2.31,3.57,-10.76,461.914,348.145,929.199,-20.55,-16.05,-28.80,15.76
2402,-4.27,5.03,1.74,52.246,-160.645,959.961,-18.00,-13.05,-31.65,15.76
2412,-4.37,7.89,-10.56,395.020,274.414,828.613,-22.05,-13.20,-34.50,15.67
2422,2.19,2.76,-5.92,145.020,-177.734,1038.574,-23.55,-15.60,-33.75,15.95
2432,1.66,3.47,-10.21,424.805,-189.453,666.016,-18.75,-16.20,-30.15,15.86
2442,0.06,3.40,-10.34,103.027,-361.328,1033.203,-17.85,-14.40,-30.30,15.95
2452,-2.57,3.77,-6.89,215.820,-120.117,823.242,-17.85,-14.40,-30.30,16.10
2462,-6.61,-2.73,-9.81,239.258,-105.469,789.062,-24.75,-15.60,-34.05,16.05
2474,-3.82,-1.12,-8.56,130.371,-49.805,1095.215,-18.00,-15.45,-29.70,16.10
2484,-4.80,1.73,-11.01,111.816,-71.289,1246.582,-22.65,-12.75,-35.40,16.10
2494,-2.80,-6.20,-15.56,86.914,-51.270,1175.293,-23.55,-15.60,-33.75,15.76
2504,2.60,-1.15,-13.76,210.937,-11.719,1938.477,-18.45,-15.60,-33.75,15.91
2514,4.49,-2.28,-12.13,194.336,-143.066,728.516,-19.35,-12.90,-32.25,16.10
2524,0.11,-0.67,-12.72,27.832,-62.988,1869.629,-19.35,-12.90,-32.25,15.91
2534,2.01,-5.10,-12.66,238.770,54.688,726.074,-22.35,-15.30,-32.25,15.95
2545,-2.06,-0.37,-11.76,444.336,-331.543,1075.684,-18.60,-14.85,-28.05,16.10
2555,-4.47,0.08,-14.65,45.410,48.828,1131.836,-20.70,-12.30,-30.90,15.76
2565,-3.26,-0.70,-14.41,274.902,-145.020,1181.641,-24.60,-15.00,-34.20,15.76
2575,-1.53,-0.98,-9.61,141.113,-9.766,820.312,-20.25,-16.20,-29.70,15.86
2585,-5.50,-1.10,-12.54,-17.090,71.777,1377.441,-17.25,-13.50,-29.70,15.95
2595,3.82,1.73,-10.16,182.617,-23.437,938.477,-24.00,-10.95,-33.00,16.10
2607,1.72,5.37,-11.98,105.469,420.898,670.898,-24.00,-10.95,-33.00,16.10
2617,-0.44,4.07,-15.32,440.918,-169.922,824.707,-18.60,-14.10,-28.35,15.95
2627,-5.50,-1.25,-9.88,-36.133,-348.633,1374.023,-20.10,-10.95,-32.25,15.95
2637,-0.53,0.97,-15.02,73.730,-119.629,1261.230,-24.00,-13.20,-34.05,15.95
2647,0.82,-0.63,-20.21,182.129,-169.922,813.477,-20.25,-15.90,-29.70,15.67
2657,1.11,-1.53,-13.85,349.609,-306.152,456.055,-17.10,-11.70,-28.80,16.19
2667,-3.14,4.47,-19.34,139.160,-56.152,1317.871,-24.15,-13.80,-33.15,15.95
2679,4.24,2.73,-16.86,151.367,-44.922,699.219,-23.40,-14.70,-30.45,15.86
2689,-2.91,3.36,-21.47,230.469,-173.828,1258.301,-23.40,-14.70,-30.45,15.86
2699,0.50,9.91,-19.85,-55.176,110.840,1225.586,-22.35,-11.25,-31.50,16.19
2709,2.60,2.37,-21.71,118.652,-124.023,545.410,-25.05,-15.30,-33.75,15.95
2719,0.51,4.60,-18.98,524.414,-203.125,768.066,-19.95,-15.00,-28.65,16.05
2729,6.24,-1.73,-19.76,335.449,-311.035,681.152,-21.45,-11.10,-30.15,15.76
2739,-0.26,-2.48,-17.75,142.090,-386.230,1149.414,-23.40,-12.75,-33.90,16.10
2751,-2.88,1.39,-14.90,166.016,275.391,1206.055,-20.70,-15.00,-29.40,15.95
2761,1.43,1.20,-16.22,242.187,-133.789,604.980,-18.90,-11.70,-31.05,15.91
2771,1.54,-5.40,-18.32,198.242,-84.473,1500.000,-18.90,-11.70,-31.05,16.05
2781,0.24,-10.42,-19.07,124.512,20.020,1842.773,-20.70,-13.05,-29.70,15.86
2791,-0.89,-7.45,-23.00,75.195,-181.641,850.098,-19.20,-11.55,-30.15,16.10
2801,-0.83,-2.44,-17.26,118.652,-187.500,1607.910,-23.70,-11.85,-33.90,15.95
2811,2.06,-3.57,-23.33,423.828,-397.949,1578.125,-21.60,-13.20,-30.30,15.76
2823,1.12,-1.73,-20.87,321.289,-309.082,300.293,-21.60,-13.20,-30.30,15.86
2833,2.98,-5.85,-23.89,308.105,-163.574,640.137,-24.00,-10.05,-33.75,15.67
2843,2.80,-4.96,-21.51,386.230,-492.676,1007.324,-22.80,-12.90,-31.80,16.10
2853,-1.16,-1.68,-21.54,218.750,-290.527,648.437,-22.80,-12.90,-31.80,15.91
2863,-3.19,-5.34,-26.98,292.480,-256.348,917.969,-23.55,-10.50,-34.05,16.10
2880,-1.22,1.63,-27.22,376.465,-217.285,961.426,-17.85,-11.25,-30.75,15.86
2889,-0.89,9.75,-24.40,28.320,-131.836,234.863,-22.05,-10.05,-34.05,15.95
2899,1.32,5.66,-25.95,191.406,-155.273,798.828,-22.05,-10.05,-34.05,15.76
2909,2.21,7.15,-26.14,-67.383,314.453,874.023,-17.55,-8.25,-30.45,15.86
2919,5.36,9.27,-24.45,271.484,-309.082,430.176,-22.95,-9.90,-34.95,16.19
2929,-2.81,8.42,-23.62,123.047,-166.992,696.289,-22.95,-9.90,-34.95,15.86
2939,-0.55,2.88,-21.63,115.723,230.957,1104.492,-16.80,-8.70,-30.90,16.19
2951,-0.03,-2.13,-21.07,359.375,-448.242,520.508,-22.65,-10.35,-34.95,16.05
2961,3.94,0.68,-27.89,377.441,-62.500,480.469,-18.90,-11.70,-30.75,15.86
2971,-1.00,1.91,-27.01,248.047,-31.250,869.141,-17.55,-8.25,-33.45,15.76
2981,-8.73,-0.75,-27.09,-136.230,186.035,578.613,-17.55,-8.25,-33.45,15.76
2991,0.98,-0.21,-25.70,315.918,-230.957,772.949,-17.10,-12.15,-30.30,15.76
3001,2.78,-7.71,-26.12,286.133,-280.273,1862.793,-19.65,-8.10,-34.50,16.05
3011,-2.76,1.21,-25.10,-17.578,19.531,1409.180,-19.65,-8.10,-34.50,16.10
3023,5.73,-1.94,-31.69,215.820,-407.227,1102.539,-15.45,-12.15,-29.10,16.10
3033,-4.79,-2.11,-26.49,-2.441,36.133,1329.102,-20.55,-8.55,-33.75,15.95
3043,0.50,-0.21,-31.26,89.355,78.613,647.949,-19.20,-13.05,-31.65,16.24
3053,5.90,-2.98,-29.35,428.223,-489.746,716.309,-15.15,-8.10,-30.75,15.95
3063,5.31,-0.70,-31.25,184.082,-620.117,1340.332,-15.15,-8.10,-30.75,15.76
3073,-6.35,-2.27,-26.31,109.863,-178.223,1402.832,-16.80,-12.30,-29.70,15.95
3083,-3.95,-6.83,-30.15,203.613,313.965,1152.832,-17.55,-7.50,-31.65,16.10
3094,9.14,-10.17,-23.81,-91.797,-320.801,841.309,-17.55,-7.50,-31.65,16.05
3104,-2.46,-4.21,-30.29,356.445,229.004,1003.418,-16.65,-11.70,-28.05,16.10
3114,7.77,2.21,-24.64,-147.461,409.668,365.723,-19.95,-8.25,-31.20,16.10
3124,7.33,3.75,-22.80,12.207,-127.441,1123.535,-19.50,-13.05,-30.15,15.76
3134,5.02,3.51,-20.49,159.180,-238.770,712.402,-17.55,-8.70,-30.15,15.67
3144,-7.75,11.97,-28.74,79.590,-259.277,1284.180,-17.55,-8.70,-30.15,16.10
3154,-7.82,9.85,-26.91,-29.785,-308.594,903.320,-16.50,-11.10,-29.40,16.19
3166,-11.38,4.99,-26.38,89.355,-373.047,1033.691,-19.20,-9.15,-31.95,16.10
3176,-12.04,1.22,-18.92,237.305,-73.730,652.344,-18.00,-10.35,-27.45,16.19
3186,-13.37,0.82,-26.82,284.180,122.559,1498.535,-20.70,-10.65,-32.70,16.10
3196,-7.12,-1.29,-22.40,282.227,-38.086,841.309,-17.55,-13.50,-28.95,16.05
3206,-3.00,-8.05,-25.43,302.734,-47.363,1406.738,-20.70,-7.05,-30.45,15.86
3216,-7.96,-5.60,-28.92,-200.684,-142.578,1155.762,-20.70,-7.05,-30.45,15.91
3229,-1.99,-6.48,-28.44,-232.422,-93.750,1334.473,-16.65,-8.85,-29.85,15.76
3238,-5.65,-2.40,-28.84,115.234,84.473,847.168,-21.45,-9.15,-32.70,16.19
3248,-2.79,-6.98,-33.34,205.078,-0.977,1008.301,-21.45,-9.15,-32.70,16.19
3258,-1.70,-10.17,-25.45,280.273,-295.410,1126.465,-20.10,-7.65,-33.75,16.24
3268,-6.80,-3.33,-36.27,-211.914,230.957,968.262,-18.60,-10.95,-29.55,16.05
3278,-1.89,-6.98,-33.02,230.469,-215.820,1110.352,-17.25,-7.95,-32.40,15.95
3288,3.81,2.98,-26.47,121.582,-487.305,610.840,-19.95,-10.65,-33.90,15.76
3300,-1.04,3.52,-29.31,88.379,-197.266,295.410,-19.95,-10.65,-33.90,15.86
3310,4.05,2.37,-27.18,349.121,-401.855,1999.939,-19.65,-6.90,-34.50,15.86
3320,-0.44,1.21,-28.54,-253.906,-16.113,1062.500,-16.20,-9.75,-30.30,16.05
3330,-0.94,6.60,-27.92,462.891,-249.512,851.562,-16.20,-9.75,-30.30,16.10
3340,-4.32,6.06,-28.97,80.078,63.965,1492.188,-18.75,-9.90,-31.95,16.10
3350,-3.15,-2.40,-22.18,263.184,-197.754,1393.555,-15.75,-7.05,-30.90,16.05
3360,7.63,-3.66,-26.40,159.180,-274.414,1148.438,-18.90,-9.30,-33.30,16.05
3372,2.97,7.76,-25.16,-89.844,-411.621,688.477,-15.45,-7.35,-29.85,16.05
3382,7.35,8.25,-20.06,168.945,-595.215,1003.906,-15.45,-7.35,-29.85,16.24
3397,-7.94,2.09,-29.56,226.562,-302.246,394.531,-18.00,-5.55,-32.70,16.05
3406,0.57,1.65,-28.86,455.566,-686.035,311.523,-18.00,-5.55,-32.70,16.10
3416,-8.60,-5.05,-28.74,171.387,-212.402,1165.039,-17.40,-5.25,-32.25,16.10
3426,-5.57,-5.27,-34.77,675.293,-139.160,74.219,-16.80,-9.90,-31.20,16.05
3436,6.00,-7.47,-23.95,213.379,-319.336,1321.289,-17.85,-4.95,-31.50,15.95
3446,11.72,-10.00,-30.59,438.965,-604.980,117.188,-16.50,-9.90,-29.70,16.05
3458,9.13,-12.32,-34.09,-43.457,-604.004,625.488,-16.50,-9.90,-29.70,15.86
3468,-5.35,-1.50,-31.01,614.746,-744.629,958.008,-17.25,-7.95,-30.90,16.10
3478,-10.45,-19.73,-29.79,-173.340,-220.703,833.008,-16.05,-5.10,-28.65,16.10
3488,-14.17,-4.71,-28.43,-363.770,371.094,1099.121,-16.05,-5.10,-28.65,16.19
3498,10.77,4.20,-31.30,188.477,-673.828,1305.664,-15.45,-4.05,-29.10,16.19
3508,-2.14,3.68,-35.57,-105.957,56.641,1268.555,-18.90,-6.90,-31.50,16.10
3520,10.58,6.92,-21.96,256.836,-660.645,1514.160,-13.35,-7.50,-28.20,16.05
3530,5.95,3.39,-30.88,229.980,-556.641,1782.227,-18.15,-6.90,-33.75,15.95
3540,-6.61,2.57,-36.71,-476.074,302.246,1999.939,-18.15,-6.90,-33.75,15.86
3550,-7.31,10.43,-33.27,108.887,-180.664,-35.645,-17.85,-5.25,-32.55,15.95
3560,-1.83,6.18,-36.46,684.082,-363.770,40.039,-15.45,-8.10,-29.85,16.24
3570,-0.18,-8.56,-32.47,439.453,-551.758,1537.109,-15.45,-8.10,-29.85,16.05
3580,0.90,-8.32,-38.60,146.973,83.008,1957.520,-15.75,-8.70,-31.20,16.05
3591,8.66,-3.34,-33.01,174.316,-149.902,822.754,-15.15,-4.95,-32.55,16.10
3601,7.28,-6.75,-32.55,282.715,-442.871,1568.359,-16.65,-9.30,-31.50,15.95
3611,14.47,-11.27,-34.44,495.117,-754.395,1771.973,-15.15,-4.05,-31.50,15.86
3621,-1.46,-4.55,-28.73,105.469,-457.031,1207.520,-15.15,-4.05,-31.50,16.10
3631,4.64,-14.61,-33.85,82.031,-250.000,1269.043,-13.95,-4.05,-31.50,16.19
3641,-6.10,-2.66,-32.53,187.012,-196.289,1999.939,-16.05,-7.05,-32.70,15.95
3651,-23.20,6.72,-33.19,-430.664,306.641,227.539,-16.05,-7.05,-32.70,15.86
3662,-15.08,5.76,-19.63,-55.176,-299.316,723.633,-16.50,-9.15,-32.40,15.95
3672,-23.10,2.82,-31.02,101.074,-63.965,424.805,-13.50,-4.50,-31.50,15.95
3682,-9.40,12.63,-12.76,441.895,-345.703,-157.715,-15.30,-8.25,-31.20,15.76
3692,-0.44,3.00,-40.21,428.711,-360.840,1192.383,-14.40,-4.50,-32.25,16.10
3702,5.80,-0.12,-35.91,293.945,-585.449,1984.863,-14.40,-4.50,-32.25,16.10
3712,2.61,2.24,-23.98,30.762,-419.434,1250.977,-12.30,-2.70,-31.20,16.10
3722,-5.11,8.53,-36.72,250.488,-583.984,522.461,-15.15,-6.15,-31.50,16.24
3734,-3.25,-0.45,-39.85,188.477,-493.652,1743.164,-15.15,-6.15,-31.50,16.05
3744,-2.42,3.76,-36.36,5.371,-478.516,1207.520,-14.85,-7.05,-31.20,16.10
3754,-0.86,1.02,-34.75,-76.660,-722.168,1343.262,-13.20,-3.30,-29.85,16.05
3764,-7.53,-4.21,-44.85,24.414,-24.902,772.949,-14.55,-7.50,-31.95,15.86
3774,9.30,0.54,-44.35,-44.434,-75.195,831.055,-13.05,-3.90,-30.90,16.10
3784,13.21,-4.38,-40.93,14.648,-322.266,1188.965,-13.05,-3.90,-30.90,16.10
3796,11.30,-6.63,-37.49,31.250,-812.988,502.930,-13.80,-5.10,-32.40,15.95
3806,3.65,-2.80,-55.71,133.789,-623.047,1424.805,-13.80,-5.10,-32.40,15.91
3816,9.34,-1.55,-36.05,241.211,-316.895,1247.559,-13.80,-5.85,-32.70,15.86
3826,4.98,-2.07,-40.69,-53.223,-239.258,1375.977,-12.45,-2.85,-32.55,15.95
3836,2.54,3.85,-43.09,-73.242,-88.379,347.656,-13.35,-2.85,-32.55,15.76
3846,5.70,-0.58,-39.50,-132.812,-175.781,1282.715,-12.75,-2.55,-34.05,16.05
3856,-0.03,6.90,-42.92,-94.238,-121.094,1405.273,-12.75,-2.55,-34.05,15.86
3868,4.89,4.83,-40.98,66.895,1.465,1387.207,-12.00,-2.10,-33.00,16.19
3878,-0.98,-4.23,-51.29,-22.949,-272.461,536.133,-11.25,-5.25,-31.80,15.95
3888,-11.99,0.59,-42.95,-101.074,-454.590,822.266,-12.00,-2.55,-33.75,16.19
3898,-6.92,-6.64,-37.14,179.687,-409.180,945.801,-10.65,-2.70,-33.15,16.24
3913,-9.30,-9.21,-41.38,-601.562,-882.812,1226.074,-10.05,-2.85,-34.05,15.86
3922,-2.86,1.63,-49.07,-451.172,-584.961,833.496,-11.70,-2.10,-33.75,16.10
3934,5.31,-5.48,-54.43,-163.574,-463.867,773.926,-10.50,-3.30,-35.25,15.95
3944,6.11,-9.86,-51.39,-117.676,-341.797,1518.555,-10.50,-3.30,-35.25,16.10
3954,8.65,-9.64,-42.90,-83.984,-367.187,500.977,-11.85,-1.50,-34.95,16.19
3964,13.44,-4.24,-43.76,-79.590,-187.500,1398.438,-10.65,-2.25,-33.45,16.24
3974,10.73,-9.21,-47.04,-212.891,-572.754,802.734,-10.35,-1.95,-34.65,15.95
3984,-7.47,4.36,-38.62,-346.680,-858.398,1207.031,-10.05,-1.35,-33.30,16.24
3994,-10.30,-2.92,-43.63,9.277,-432.129,417.480,-10.65,-0.30,-33.15,15.86
4006,-11.40,0.48,-45.66,-254.883,-389.160,780.273,-10.50,-3.75,-33.30,15.95
4016,-7.22,-6.71,-41.40,-245.117,29.297,1312.012,-10.50,-3.75,-33.30,15.86
4026,-1.15,-1.32,-38.77,-388.672,10.742,1236.328,-10.50,-3.75,-33.30,16.19
4036,-1.34,2.30,-41.27,-335.449,-346.680,1179.688,-9.00,-2.55,-34.50,16.10
4046,-3.50,-1.98,-45.01,-252.441,-500.977,1357.910,-9.00,-2.55,-34.50,16.19
4056,5.83,1.67,-31.02,-112.793,-649.414,919.922,-9.90,-2.25,-34.20,15.95
4066,-1.69,6.47,-49.24,-189.453,83.008,1582.520,-9.15,-2.25,-34.95,15.86
4078,3.31,2.58,-42.70,-43.945,-229.980,1040.039,-8.40,-1.95,-34.20,15.95
4088,4.85,5.03,-36.05,-208.984,-230.469,1007.812,-8.25,-0.15,-34.50,16.24
4098,8.50,-3.97,-32.63,16.602,-88.867,1900.879,-8.25,-0.15,-34.50,15.76
4108,10.68,-1.85,-40.71,-363.770,53.711,1192.383,-10.35,-0.30,-34.65,16.19
4118,6.44,5.92,-35.54,246.094,-636.230,688.477,-8.40,-0.30,-34.20,16.05
4128,-3.79,8.19,-36.54,-150.391,-192.871,833.984,-8.40,-0.75,-34.65,16.10
4140,-4.68,0.72,-31.90,128.418,-602.051,-152.344,-7.65,-0.30,-34.65,16.10
4150,-10.76,1.72,-35.82,130.859,-39.063,669.922,-7.80,-0.45,-35.55,16.05
4160,5.18,-4.57,-28.98,141.602,-344.727,1038.574,-8.55,0.45,-34.80,16.05
4170,1.51,-1.08,-29.08,-48.828,-522.461,862.305,-7.65,0.75,-34.95,15.95
4180,0.56,-0.13,-35.30,-100.586,-248.047,403.320,-7.65,0.75,-34.95,15.95
4190,1.56,-1.45,-35.14,-273.926,-153.320,934.570,-7.95,1.05,-34.65,16.05
4200,6.51,-0.54,-33.46,-208.984,-227.051,1460.938,-7.65,1.05,-36.60,15.95
4212,11.63,-8.70,-30.53,-316.895,-351.074,1553.711,-6.60,0.90,-35.55,16.24
4222,2.97,-0.09,-37.73,-108.887,-210.937,1273.926,-6.15,1.05,-34.95,16.05
4232,2.94,0.11,-28.85,-253.418,-173.828,985.840,-6.15,1.05,-34.95,16.19
4242,-3.21,-7.21,-34.85,187.988,-177.246,700.684,-6.30,0.90,-35.25,16.24
4252,-2.98,-5.50,-34.66,-158.691,-286.133,721.191,-6.45,1.05,-34.20,15.95
4262,1.39,-9.53,-47.55,-72.754,-206.055,760.254,-6.45,1.05,-34.20,15.86
4272,6.32,-6.40,-35.39,104.004,-522.949,572.754,-6.90,0.00,-34.65,16.19
4284,0.82,3.30,-36.69,-87.402,-343.262,704.590,-6.90,1.05,-34.95,16.24
4294,0.65,0.10,-28.53,235.352,-428.223,721.191,-6.60,0.15,-35.25,16.05
4304,2.29,-4.26,-28.20,-38.574,-370.605,1081.543,-6.90,0.75,-36.15,16.05
4314,10.03,-0.81,-27.47,-186.035,-137.695,1866.211,-6.90,0.75,-36.15,16.24
4324,12.96,-6.37,-29.58,-333.496,-233.887,1497.559,-6.15,-0.30,-36.15,16.10
4334,8.79,8.47,-25.25,-255.859,39.063,757.812,-5.85,0.45,-35.55,16.05
4343,8.62,4.39,-28.20,85.938,-229.004,956.543,-5.85,0.45,-35.55,16.10
4355,-1.24,15.02,-29.40,-146.484,-145.508,362.793,-5.55,1.35,-35.55,16.24
4365,-3.51,5.61,-41.60,312.988,-95.215,502.441,-6.30,0.90,-34.05,15.95
4375,-3.66,0.43,-26.53,207.031,-429.687,736.816,-4.50,-0.30,-35.40,16.10
4385,-8.11,-3.34,-28.13,38.086,-244.141,1060.059,-4.95,0.30,-35.40,16.05
4395,-6.79,-4.95,-31.63,-250.977,41.504,1389.160,-4.95,0.30,-35.40,16.05
4405,1.98,-8.46,-23.57,21.973,-52.246,1034.180,-5.70,0.30,-34.65,15.91
4415,0.15,3.07,-31.79,-22.461,-310.547,429.199,-3.75,1.05,-34.65,16.10
4432,0.19,-5.83,-32.34,-81.543,-674.805,531.738,-4.50,1.50,-33.45,16.19
4441,-5.27,1.76,-23.31,-39.063,-233.398,364.258,-5.25,1.05,-33.45,15.95
4451,-2.09,-5.41,-29.06,-108.887,-113.281,1076.172,-4.95,1.50,-34.95,16.10
4461,-0.87,-1.40,-18.03,140.137,-5.371,748.047,-4.20,1.05,-34.65,16.19
4471,1.94,-2.01,-27.64,-135.742,-271.973,1544.922,-4.20,1.05,-34.65,15.86
4481,5.59,-0.83,-29.73,-114.746,-312.012,1357.910,-6.45,1.05,-34.20,16.05
4491,-2.39,2.44,-26.39,-308.594,-21.973,1068.359,-5.55,2.10,-35.25,16.29
4503,2.90,-0.77,-30.23,29.785,-546.387,1517.090,-5.55,2.10,-35.25,16.19
4513,-7.82,0.47,-21.08,-336.914,36.133,1021.973,-4.50,2.25,-37.35,16.19
4523,2.05,0.77,-26.75,-168.457,-34.180,882.812,-3.15,0.90,-35.55,16.10
4533,5.57,3.60,-31.61,212.402,-251.953,472.656,-2.85,1.65,-36.75,16.10
4543,5.25,1.44,-27.71,55.664,-407.227,763.672,-2.40,0.45,-35.55,16.24
4552,-0.72,-5.88,-21.85,-61.035,-187.012,1416.992,-2.40,0.45,-35.55,16.05
4562,-1.54,-9.17,-31.05,-153.320,-253.906,1260.254,-3.00,0.75,-35.40,16.05
4574,1.84,-12.67,-25.89,191.406,-365.234,1339.355,-2.10,1.65,-35.55,16.05
4584,-1.83,-7.98,-26.22,-71.777,-29.297,1137.695,-2.10,1.65,-35.55,16.19
4594,-2.60,-10.00,-27.01,-133.301,-78.613,1022.949,-2.55,2.25,-34.65,16.38
4604,3.61,-10.77,-25.95,-174.805,-265.137,752.930,-3.45,1.05,-35.70,16.05
4614,7.31,-4.04,-25.37,281.250,-411.133,794.434,-3.15,1.65,-36.30,15.95
4624,-2.08,-5.59,-26.18,-35.156,-102.051,1014.648,-3.00,1.05,-35.70,15.86
4634,-5.95,-1.05,-25.45,-35.156,-106.445,1064.941,-3.00,1.05,-35.70,16.24
4646,-8.70,-5.65,-24.31,41.016,-472.168,1890.625,-2.85,1.35,-35.55,15.86
4656,-5.97,0.53,-21.95,87.891,4.883,1211.426,-2.40,2.10,-38.25,15.86
4666,-11.95,2.73,-34.84,-121.582,76.172,254.883,-2.40,2.10,-38.25,16.10
4676,-3.69,-4.17,-32.70,122.070,0.488,547.363,-0.45,2.10,-38.25,16.10
4686,6.27,0.21,-25.33,134.766,-350.586,1053.223,0.15,0.90,-36.75,16.10
4695,0.87,-2.08,-23.60,-369.629,-81.543,1230.469,-0.30,1.50,-36.60,15.86
4705,1.80,2.04,-24.84,-46.875,108.887,674.316,0.30,1.05,-35.40,16.10
4716,6.24,-3.23,-24.66,-223.145,-110.840,749.512,0.30,1.05,-35.40,15.86
4726,9.14,1.60,-24.30,11.719,-377.930,541.016,-0.75,0.75,-33.90,16.10
4736,0.33,2.50,-17.71,81.543,-174.316,715.332,-0.30,1.50,-35.40,16.05
4745,1.32,-1.58,-26.33,105.957,-340.820,815.430,-0.30,1.50,-35.40,16.19
4755,-2.90,1.40,-24.62,88.379,-483.398,1425.293,0.00,0.75,-34.20,15.86
4764,-4.53,0.45,-26.56,-196.777,-128.906,689.941,0.00,0.30,-33.45,16.24
4774,-4.15,6.76,-27.76,-137.207,-531.738,929.687,0.15,0.45,-35.25,16.10
4785,-1.79,3.15,-24.31,-56.152,-410.156,1435.059,0.15,0.90,-33.30,16.05
4795,-2.01,6.73,-24.55,-300.293,-190.430,854.004,0.15,0.90,-33.30,16.19
4805,-1.95,17.43,-20.32,80.566,36.133,965.332,-0.15,-0.15,-34.50,16.19
4815,3.95,11.71,-28.99,-8.301,-192.871,519.043,-0.75,1.50,-33.90,15.95
4825,8.56,5.95,-22.79,-95.215,-175.781,601.074,0.45,0.45,-34.05,16.10
4834,14.61,3.69,-29.65,-243.164,-375.977,1118.164,-0.45,0.90,-35.25,15.95
4844,21.53,14.75,-27.69,-160.645,-888.184,1521.973,0.30,-1.50,-33.45,16.19
4856,2.37,8.60,-32.68,53.711,-579.102,1186.523,-0.15,1.65,-34.50,16.19
4866,-8.98,4.27,-31.07,-329.102,-394.531,1108.398,-0.15,0.45,-34.50,15.95
4876,-17.28,0.37,-33.80,93.262,-727.051,1312.500,-0.15,0.45,-34.50,15.95
4886,-22.81,1.49,-24.53,-168.457,-61.035,1519.043,0.00,-0.30,-33.45,16.24
4896,-25.27,5.47,-31.45,69.336,86.426,643.066,0.00,2.25,-34.95,16.24
4905,-8.87,3.86,-28.25,156.738,-193.848,397.949,0.45,-0.90,-33.30,16.05
4915,-6.76,-6.51,-29.27,227.051,-140.137,1241.699,0.15,-0.45,-35.25,16.19
4927,-2.88,-3.08,-32.80,-9.277,-67.871,1145.508,1.50,-0.30,-33.90,16.29
4942,-7.24,-7.01,-27.69,-96.680,-522.949,1400.391,0.45,-0.15,-33.75,16.19
4951,-4.67,-4.47,-22.54,-79.102,-312.988,1581.543,0.45,-0.15,-33.75,16.10
4961,-4.50,-6.16,-37.32,-433.594,-409.180,1182.129,0.90,-0.15,-33.30,16.10
4971,-18.34,1.13,-32.12,-359.375,43.945,750.000,0.90,1.35,-34.50,16.05
4981,-18.94,-7.20,-25.56,-150.879,-436.035,235.352,2.25,0.75,-32.70,16.24
4991,-18.10,-14.52,-17.40,137.207,-112.305,1346.191,1.05,0.00,-33.15,16.05
5003,-8.39,-19.59,-25.69,147.461,-135.254,1784.668,1.05,0.00,-33.15,16.19
5013,-1.53,-5.02,-24.50,-317.871,142.578,858.887,1.20,-0.45,-34.80,15.91
5023,12.12,-18.02,-31.26,-388.184,-546.875,1598.145,2.10,-1.35,-33.00,15.95
5033,18.65,-11.90,-26.25,-71.777,-288.086,1426.758,2.10,-1.35,-33.00,16.29
5043,9.63,-9.47,-27.99,23.926,-509.277,1025.391,2.40,0.90,-34.50,16.10
5053,17.51,-17.47,-35.70,294.434,-10.254,675.293,2.40,-0.45,-34.50,16.24
5065,5.90,-8.70,-16.74,99.121,-820.801,1699.707,3.00,1.05,-33.90,16.19
5075,-5.81,-13.21,-34.36,-321.777,-137.695,917.969,2.10,0.15,-35.25,16.10
5085,-3.19,-11.43,-34.73,-171.875,-334.473,773.437,2.10,0.15,-35.25,16.10
5095,1.92,-11.44,-29.18,278.809,-250.000,1521.484,1.50,-0.75,-34.20,15.95
5105,0.96,-5.20,-30.36,189.453,-463.867,795.898,2.10,1.65,-34.80,16.38
5114,4.95,-30.18,-31.83,197.754,-676.758,479.492,2.10,1.65,-34.80,16.24
5124,5.68,-23.40,-22.29,15.625,-817.383,1629.883,1.20,0.45,-34.80,16.10
5136,-8.94,-20.23,-33.30,24.414,-567.871,678.223,0.45,-1.35,-32.55,16.24
5146,-15.69,-9.12,-35.44,-380.859,-366.699,1032.715,1.80,1.05,-36.15,16.10
5156,-13.40,-16.47,-27.08,188.965,-661.133,1488.281,2.40,0.15,-34.50,16.19
5166,-15.95,-10.20,-25.45,23.926,-852.539,1381.836,2.40,0.15,-34.50,15.91
5176,-10.91,-14.82,-37.89,108.887,-596.191,1126.953,1.65,-0.45,-34.50,16.19
5186,-12.82,-13.95,-35.11,148.437,-255.859,1044.434,1.20,0.15,-34.80,16.29
5196,-11.72,-12.40,-46.11,-131.836,-185.547,1038.086,1.20,0.15,-34.80,16.05
5208,-6.05,-13.63,-41.24,80.078,-514.160,1321.777,1.80,0.75,-34.95,16.10
5218,-6.19,-11.43,-43.33,96.191,-1062.012,773.437,1.80,0.75,-34.95,16.10
5228,-2.92,-3.61,-33.45,-277.832,-436.523,1260.254,2.40,-0.45,-34.50,16.24
5238,-1.62,7.37,-38.26,-335.449,-162.109,1301.270,2.40,-0.45,-34.50,16.05
5248,12.94,7.99,-40.85,-430.176,-442.383,1844.238,2.40,-0.45,-34.50,16.10
5258,14.23,13.01,-43.15,-202.148,-804.199,697.266,0.75,-1.50,-35.70,16.24
5268,9.43,14.44,-36.76,-211.426,-649.414,474.121,0.75,-1.50,-35.70,16.19
5279,-1.30,6.83,-38.51,-191.895,-237.305,1623.047,2.55,-1.05,-35.70,16.24
5289,-21.53,13.85,-34.63,-407.715,-479.492,870.605,4.20,-0.75,-34.65,16.43
5299,-26.69,17.66,-40.79,51.270,201.660,845.703,3.00,-0.30,-36.15,16.10
5309,-8.44,11.70,-22.25,128.418,-370.117,619.629,3.00,0.00,-33.90,15.95
5318,-4.93,-13.41,-33.67,-255.371,-123.535,864.746,3.00,0.00,-33.90,15.95
5328,12.65,8.32,-34.00,-92.285,-46.387,1581.055,3.00,0.00,-33.90,16.38
5337,27.50,12.65,-30.71,-72.754,-447.754,1367.676,3.75,0.00,-34.20,16.05
5348,9.21,-7.01,-30.92,-252.441,-534.668,1926.758,3.75,-0.30,-34.95,16.24
5358,5.05,7.21,-39.42,-110.840,-839.844,392.578,3.75,-0.30,-34.95,16.10
5368,-9.31,8.43,-44.77,-261.230,-311.035,453.613,5.25,0.75,-36.15,16.19
5378,-9.59,-0.69,-28.92,134.277,-304.199,1263.672,5.25,0.75,-36.15,16.19
5388,-9.05,-4.31,-31.00,-17.090,-378.906,741.699,4.50,-1.05,-35.40,16.19
5398,-0.50,-1.89,-38.11,-32.715,-187.988,258.301,5.25,1.05,-34.65,16.24
5408,-1.41,1.75,-36.02,127.930,-61.035,837.891,5.25,1.05,-34.65,16.19
5420,-2.92,6.33,-26.56,-419.922,-247.070,818.359,5.70,-0.75,-35.70,16.10
5430,-2.64,0.60,-39.73,-96.680,-235.352,874.023,5.70,-0.75,-35.70,16.19
5440,2.45,5.40,-37.44,-74.707,-216.797,848.145,5.85,-1.35,-34.80,15.95
5454,11.53,0.98,-36.51,261.719,-768.555,1002.930,5.85,1.65,-34.50,15.95
5464,6.79,-0.26,-41.09,164.062,-594.727,1332.031,6.60,-0.90,-35.25,16.24
5474,0.94,1.94,-39.02,231.445,-608.887,1360.352,6.90,0.30,-35.70,16.24
5483,2.21,5.10,-40.11,111.816,-499.023,969.727,6.90,0.30,-35.70,16.10
5495,-4.69,-0.64,-40.47,149.902,-463.379,1139.648,6.15,0.75,-34.95,16.05
5505,-6.85,-0.73,-36.44,112.793,-476.074,1325.684,5.25,-1.05,-34.65,15.76
5515,4.61,-1.29,-36.27,299.316,-708.984,1101.074,7.20,0.75,-36.60,16.24
5525,3.95,9.63,-39.99,-39.063,-720.703,893.066,7.95,0.30,-33.90,16.10
5534,-1.87,-1.49,-37.82,227.051,-217.773,992.676,7.35,-0.45,-35.55,16.29
5544,2.31,1.51,-35.28,-128.418,-100.098,1485.840,7.20,-1.95,-33.90,15.95
5554,-0.78,-1.87,-37.51,-138.672,-285.645,1190.918,6.90,0.30,-35.40,16.24
5566,3.06,1.92,-36.63,-85.938,-785.156,770.996,6.90,0.30,-35.40,16.10
5576,-2.56,6.44,-31.66,-295.898,-176.758,1116.699,7.05,-1.35,-36.30,16.10
5586,-5.97,-3.09,-40.76,-50.293,-220.703,1509.277,8.55,-0.15,-34.80,16.05
5596,-1.99,3.63,-31.34,27.344,-256.348,1030.762,6.45,-0.30,-34.95,16.29
5606,-1.79,1.05,-35.75,94.727,-349.121,1038.574,9.15,-1.05,-35.40,16.24
5616,4.51,-0.12,-39.66,-51.270,-235.352,769.531,9.00,0.45,-35.25,16.19
5626,-1.48,3.33,-44.20,-43.945,-425.293,726.074,10.50,-1.65,-34.50,16.05
5638,-1.24,7.82,-38.87,-130.859,-886.230,542.480,8.25,-0.45,-35.25,16.05
5648,-5.13,1.44,-42.54,8.301,-356.934,965.332,8.25,-0.45,-35.25,15.91
5658,0.92,3.78,-38.08,-148.437,-398.437,1007.812,9.75,-1.35,-35.55,16.29
5668,-5.61,5.05,-31.55,173.340,47.363,988.281,8.55,-0.15,-34.80,16.10
5677,0.34,-4.40,-48.92,-91.309,-296.387,1526.855,9.15,-0.30,-35.40,16.19
5687,3.04,6.10,-48.57,22.949,-490.234,406.738,11.25,-0.15,-34.05,16.10
5696,5.57,2.53,-38.84,-40.039,-713.379,1154.297,10.05,-2.85,-34.80,16.19
5708,4.44,4.58,-40.70,-169.922,-3.906,713.379,10.35,-0.30,-34.95,16.10
5718,3.99,3.23,-41.27,-34.180,-644.531,1308.594,10.65,-1.05,-33.90,16.05
5728,5.49,-0.02,-49.15,26.855,-753.906,794.434,10.65,-1.05,-33.90,16.19
5738,-2.00,2.82,-41.05,-65.430,-276.855,1012.207,11.40,-1.05,-34.65,16.29
5748,2.01,-5.34,-42.83,-157.715,-518.066,1275.391,11.10,0.00,-34.95,16.10
5758,-0.56,1.76,-44.44,-92.773,65.918,794.922,11.40,-2.70,-34.65,15.95
5768,10.12,-0.63,-45.95,-208.008,-427.246,1367.676,11.10,-0.75,-35.40,16.05
5780,-0.76,-5.22,-44.27,-120.605,49.316,1725.098,11.85,-2.25,-36.15,15.95
5790,-5.78,-3.96,-47.10,-63.965,-424.805,1530.273,12.75,-0.90,-34.80,15.95
5800,-4.66,-5.15,-43.73,-186.035,-449.219,384.766,12.75,-0.90,-34.80,16.19
5810,-4.80,1.43,-38.58,165.527,-42.480,862.305,13.20,-2.10,-33.75,16.19
5820,5.44,1.60,-47.89,-37.598,-440.918,432.617,10.50,-1.65,-34.50,16.29
5830,-8.88,-3.62,-46.68,-202.148,134.277,920.410,14.85,-2.70,-36.15,16.24
5840,-7.26,-8.30,-47.53,228.516,-112.793,506.348,12.60,-3.15,-35.70,15.91
5853,-8.80,-7.37,-43.85,-47.363,128.906,1551.270,12.60,-3.15,-35.70,16.24
5863,5.60,-3.58,-39.87,424.316,-715.820,1507.324,13.35,-2.70,-35.70,16.29
5873,11.79,1.51,-38.27,569.336,-944.824,424.805,13.35,-1.50,-35.70,16.38
5883,6.82,-9.69,-38.82,-89.844,-925.781,783.691,13.35,-1.50,-35.70,16.05
5893,3.07,-2.19,-50.50,361.328,-673.340,949.707,12.75,-1.65,-35.55,16.24
5903,-2.56,-9.67,-22.44,105.469,-514.648,1169.434,13.20,-4.05,-34.50,16.10
5913,5.58,3.27,-29.05,209.961,-1003.418,1004.883,13.95,-0.15,-36.75,16.10
5924,-1.36,6.66,-41.16,-230.469,-612.305,989.746,13.20,-2.85,-33.75,16.10
5934,0.16,-1.07,-52.53,113.770,-535.645,804.199,13.20,-2.85,-33.75,16.29
5944,6.44,-3.54,-42.82,-70.313,-850.586,996.582,14.85,-4.65,-33.90,15.95
5954,5.44,7.30,-38.96,180.176,-496.582,546.387,12.30,-2.70,-35.70,16.24
5976,-5.13,5.75,-45.44,-424.805,-277.344,491.211,14.55,-2.25,-36.60,16.19
5985,-0.49,1.90,-50.75,-96.191,-480.957,836.426,15.30,-4.35,-34.95,16.10
5995,-1.34,2.94,-48.21,-167.480,-74.219,746.582,14.10,-3.90,-36.15,16.10
6005,-2.66,6.76,-45.18,3.418,-201.172,599.121,15.90,-3.75,-34.05,16.38
6017,-3.89,2.34,-48.89,-27.832,-489.258,1169.434,15.90,-3.75,-34.05,16.43
6027,-2.91,-4.20,-52.18,130.371,-623.535,1361.328,15.30,-2.70,-35.70,16.19
6037,3.02,-1.16,-51.94,-24.902,-740.723,1105.469,16.05,-4.35,-35.40,16.05
6047,0.27,-7.79,-43.52,21.973,-672.852,1920.898,16.05,-4.35,-35.40,16.24
6057,-4.77,-9.45,-54.98,-83.984,-226.074,1999.939,16.80,-5.10,-34.95,16.24
6067,3.24,-8.06,-44.21,-71.289,37.109,1719.727,17.10,-2.55,-37.05,16.10
6077,20.98,-2.43,-50.41,290.527,-437.988,1049.316,17.85,-4.05,-34.05,16.24
6089,-4.92,-3.21,-52.90,-180.664,-1358.887,1568.359,15.45,-3.75,-37.05,16.19
6099,-22.17,0.37,-49.40,-202.637,-414.062,354.980,15.45,-3.75,-37.05,16.10
6109,-8.56,3.31,-53.66,-419.434,84.473,896.973,15.30,-5.55,-35.70,16.24
6119,-6.65,9.05,-34.37,392.578,-143.555,428.223,16.50,-4.65,-34.65,15.86
6129,2.26,-1.23,-46.12,116.699,-196.289,954.102,16.50,-4.65,-34.65,16.24
6139,-1.69,3.84,-46.20,-28.320,58.105,1403.320,16.80,-3.15,-36.15,16.38
6149,-2.53,-0.75,-46.71,-129.883,-479.492,1138.672,17.40,-5.25,-34.80,16.29
6161,2.94,2.04,-37.40,-126.953,-275.391,1105.957,16.50,-5.10,-35.40,16.24
6171,6.44,0.31,-54.44,-346.191,-552.246,562.500,16.50,-5.10,-35.40,16.24
6181,17.21,2.03,-40.85,603.516,-645.020,1156.250,17.25,-5.55,-35.40,16.05
6191,6.47,-2.27,-43.43,33.203,-659.180,1258.789,16.20,-6.15,-35.25,16.19
6201,-3.31,3.56,-44.92,303.223,-723.633,1032.715,16.20,-6.15,-35.25,16.05
6211,-6.04,1.38,-43.15,91.797,-554.687,320.801,17.25,-7.05,-35.70,16.43
6221,-8.70,0.09,-49.87,-121.094,14.648,711.914,17.40,-4.95,-36.75,16.24
6233,0.54,3.72,-45.63,171.387,-613.770,1096.680,17.85,-6.90,-36.00,16.19
6243,-5.56,4.18,-38.37,53.711,-148.926,1250.488,17.25,-5.85,-36.90,16.24
6253,7.53,7.28,-44.66,60.547,-975.098,1331.055,17.25,-5.85,-36.90,16.10
6263,6.33,6.66,-33.63,89.355,-947.266,993.164,18.15,-6.15,-35.25,16.19
6272,3.86,6.44,-44.64,120.605,-818.359,824.219,19.65,-5.25,-35.55,16.10
6282,-5.52,2.40,-46.14,100.586,-409.668,1708.496,18.60,-7.65,-36.00,16.38
6294,-4.24,4.79,-48.29,-184.570,-236.816,1856.445,18.60,-4.05,-35.25,15.95
6304,-4.67,8.33,-52.88,32.227,-372.070,1082.031,18.90,-7.35,-36.75,16.05
6314,5.86,9.11,-48.83,-154.297,-345.703,367.676,18.75,-5.55,-36.90,16.29
6324,-3.69,10.85,-56.77,167.969,-271.484,1381.836,19.65,-7.65,-35.25,16.29
6334,5.56,4.43,-42.97,141.113,-868.164,902.832,19.65,-7.65,-35.25,16.05
6343,7.70,-5.61,-44.05,53.223,-746.094,901.367,19.95,-7.95,-35.40,16.10
6353,2.14,-0.10,-44.65,-189.453,-667.969,1111.328,18.45,-9.15,-36.60,16.24
6365,1.09,-10.32,-52.40,-279.297,-361.816,1196.777,21.60,-6.15,-36.00,16.05
6375,-5.51,-6.46,-43.79,233.398,-241.699,845.215,19.65,-9.30,-36.00,16.10
6385,-1.10,-5.08,-43.61,53.223,44.922,854.004,20.10,-6.90,-36.75,16.24
6395,-1.90,-6.91,-43.49,176.758,-287.598,1315.430,21.60,-9.75,-35.55,16.38
6405,-4.43,-4.27,-31.36,300.781,-516.602,804.199,19.95,-7.50,-36.60,16.10
6415,-1.82,-1.73,-42.29,79.102,-629.395,556.641,19.95,-7.50,-36.60,16.05
6425,-10.25,-0.96,-44.51,45.898,58.594,464.844,20.55,-7.35,-37.50,16.05
6437,0.64,2.59,-45.83,-20.508,-553.711,144.043,21.90,-8.70,-35.70,15.76
6447,5.01,3.09,-41.60,149.902,-725.586,1054.688,20.55,-10.05,-35.55,15.95
6457,-4.55,-3.47,-35.32,253.418,-417.969,1406.250,20.10,-7.35,-36.00,16.38
6467,-1.62,1.44,-41.16,-81.543,-338.379,1322.754,20.10,-7.35,-36.00,16.48
6477,1.44,-0.36,-47.56,39.063,-360.352,1576.660,20.25,-9.90,-36.15,16.29
6493,0.58,-3.90,-52.98,-255.859,-34.180,981.934,21.30,-10.05,-35.55,16.19
6502,8.66,-5.82,-41.27,-60.059,-654.297,1999.939,22.20,-7.50,-35.70,15.95
6514,3.96,-2.44,-42.11,87.402,-269.531,1685.547,21.90,-9.90,-36.90,16.29
6524,5.34,3.69,-46.51,-316.895,-377.930,1086.914,21.45,-8.70,-36.60,16.10
6534,4.69,0.18,-37.54,102.539,-1.465,984.863,21.90,-9.90,-35.40,16.29
6543,6.11,-0.68,-51.40,-148.437,-305.664,1758.301,21.90,-9.90,-35.40,16.38
6553,0.25,8.36,-41.02,358.887,-314.453,745.605,22.35,-9.30,-36.75,16.24
6563,-0.79,0.01,-40.73,150.879,-430.176,1085.938,21.00,-10.35,-36.90,16.10
6573,-1.40,5.78,-44.98,-72.754,-573.730,475.586,21.00,-10.35,-36.90,15.95
6585,-1.05,7.22,-50.24,-193.359,-492.676,593.262,22.95,-12.30,-34.95,15.91
6595,2.80,0.85,-41.83,146.484,-847.656,457.520,21.90,-9.90,-37.35,16.05
6605,-6.93,16.91,-49.44,66.406,-777.832,1310.547,22.35,-11.70,-36.30,16.38
6615,-3.53,-0.70,-44.70,-47.363,-498.047,1120.117,22.05,-11.25,-38.25,16.19
6625,-8.15,5.47,-36.98,-205.566,-232.422,444.336,22.05,-11.25,-38.25,16.24
6635,-4.89,1.19,-47.18,209.473,-518.555,631.348,21.45,-13.50,-36.60,16.24
6645,-2.59,5.59,-33.63,121.094,-694.824,1014.648,22.80,-11.25,-37.05,16.19
6657,-10.41,1.65,-41.50,-44.922,-276.855,981.934,22.80,-11.25,-37.05,16.38
6667,1.88,-3.80,-41.79,-312.012,-682.129,695.312,22.65,-10.35,-36.90,16.19
6677,6.50,4.27,-40.22,312.500,-790.527,1297.363,24.15,-12.75,-36.60,15.86
6687,-1.71,6.84,-50.69,-359.863,-198.730,724.609,21.45,-12.75,-37.65,16.29
6697,7.59,8.65,-40.40,73.730,-367.676,1190.918,22.65,-11.55,-36.90,16.38
6707,5.34,-2.17,-46.43,-155.273,-533.691,1050.781,22.65,-11.55,-36.90,16.38
6717,3.82,0.82,-38.73,595.215,-843.750,970.703,22.35,-12.45,-38.55,16.19
6729,-2.18,-2.18,-42.66,-265.625,-745.605,415.039,24.75,-12.45,-39.00,16.29
6739,10.71,2.82,-28.85,151.367,-428.711,730.469,24.75,-12.45,-39.00,16.10
6748,3.95,11.04,-36.50,-87.402,-339.355,625.977,23.70,-12.30,-38.10,15.86
6758,-5.30,0.11,-38.80,208.984,-829.102,1460.938,25.05,-14.85,-36.30,16.10
6768,-9.13,3.19,-47.85,-163.574,-482.422,536.621,23.70,-12.75,-38.40,16.19
6778,-18.25,3.56,-41.83,-116.211,-111.328,607.910,24.15,-12.30,-37.65,16.24
6790,-21.10,-1.02,-53.87,-202.637,-312.012,1240.234,24.15,-12.30,-37.65,16.19
6800,9.06,-3.54,-41.92,1023.437,-1061.035,-502.930,23.55,-12.45,-38.25,15.95
6810,-19.63,-2.92,-50.71,-102.051,127.441,1999.939,24.30,-13.65,-36.00,16.24
6820,10.65,-7.02,-46.31,309.570,-492.676,498.535,24.30,-13.65,-36.00,15.95
6830,-1.63,7.69,-49.49,65.430,-896.484,671.387,24.15,-13.80,-37.35,16.24
6840,0.11,-4.91,-49.67,93.750,-329.102,759.277,24.90,-15.45,-38.40,16.29
6850,-3.85,-14.96,-36.39,140.625,-1129.883,1999.939,24.30,-16.50,-36.00,16.48
6862,-5.33,-5.72,-55.08,-266.602,-1313.477,1999.939,23.40,-13.50,-37.35,16.19
6872,3.08,1.56,-39.59,-23.926,-241.211,958.496,23.40,-16.65,-38.10,16.24
6882,-7.93,6.66,-39.29,-322.266,-863.281,1937.988,24.60,-14.25,-38.85,16.24
6892,1.63,4.48,-44.02,160.156,-587.891,725.586,24.60,-14.25,-38.85,16.24
6901,-13.39,4.15,-48.77,-383.789,-254.883,1542.969,24.60,-15.45,-39.15,16.24
6911,1.62,4.61,-43.45,391.113,-623.535,591.309,25.65,-16.20,-38.10,15.95
6920,-1.12,9.18,-50.40,181.641,-387.695,619.141,25.65,-16.20,-38.10,16.10
6932,2.50,20.92,-204.74,-413.086,-873.047,1149.902,24.15,-14.25,-38.10,16.38
6942,0.24,-12.91,16.18,299.316,-1120.117,1779.297,24.15,-14.25,-38.10,16.10
6951,-4.61,9.45,-25.03,-48.340,-258.301,604.004,24.15,-17.10,-38.85,16.05
6961,4.07,0.24,-42.10,-107.422,-208.008,1316.895,24.90,-16.20,-38.10,16.38
6971,3.27,6.04,-42.95,213.379,-839.844,405.762,24.90,-16.20,-38.10,16.24
6981,-4.40,1.53,-51.59,112.305,-459.961,958.984,23.70,-16.20,-39.60,16.38
6991,-3.46,-1.99,-41.99,68.359,-593.750,1282.715,25.80,-17.25,-37.80,16.38
7008,-15.02,2.54,-31.99,-414.062,132.812,1920.898,25.50,-18.00,-38.25,16.29
7017,3.34,-7.42,-38.68,339.844,-549.316,1109.863,24.00,-17.25,-39.00,15.95
7027,-1.50,-2.81,-51.90,-80.078,-717.773,619.629,24.00,-17.25,-39.00,16.38
7037,-1.16,-3.76,-48.93,-367.187,-371.582,1478.516,23.70,-18.60,-38.85,16.43
7047,5.02,-9.63,-48.67,160.645,-492.676,967.773,23.70,-17.40,-37.65,16.38
7057,11.45,4.98,-37.90,384.277,-341.309,893.555,25.65,-20.25,-37.35,16.10
7068,0.63,-8.54,-35.28,282.715,-904.297,764.160,24.90,-18.30,-39.15,16.38
7078,2.66,-3.02,-52.48,-158.691,-631.348,990.723,25.35,-18.60,-38.10,16.48
7088,2.75,-12.47,-43.85,-338.379,-148.437,1854.492,24.60,-21.00,-38.10,15.95
7098,0.44,-1.89,-48.89,359.375,-707.520,333.008,24.00,-18.45,-37.80,16.29
7108,-11.39,7.15,-37.78,-91.797,-182.129,990.723,24.00,-18.45,-37.80,16.38
7118,-5.77,4.79,-29.35,-88.867,-17.090,1576.172,23.40,-20.70,-39.15,16.29
7130,-13.01,-1.99,-58.28,-138.672,121.094,1470.703,25.35,-18.60,-38.85,16.19
7140,8.66,-0.50,-39.24,397.461,-794.434,470.215,25.65,-21.90,-37.65,16.19
7150,-10.79,3.20,-44.36,-283.203,-156.738,800.293,24.15,-20.70,-38.10,16.10
7160,-0.46,0.27,-39.95,-94.238,-414.551,969.238,24.75,-19.20,-38.25,16.29
7170,2.42,6.52,-30.29,393.066,-858.887,956.055,25.05,-21.30,-38.55,16.05
7180,-4.11,7.52,-30.66,-397.461,-187.500,1999.939,24.30,-20.10,-39.00,16.10
7190,15.10,-9.81,-30.02,536.133,-1106.934,926.758,24.30,-20.10,-39.00,16.38
7202,1.50,-6.89,-37.30,432.129,-670.410,78.613,25.05,-20.85,-38.55,16.38
7212,-13.27,8.48,-38.98,-395.508,129.883,574.707,25.05,-22.05,-37.05,16.19
7222,-0.60,-3.48,-43.78,5.859,-881.836,504.395,24.90,-23.10,-37.35,16.24
7232,-13.26,2.69,-45.36,235.840,692.383,1370.605,24.90,-23.10,-37.35,16.10
7241,-7.33,2.58,-33.18,-924.805,67.871,1727.539,24.90,-23.10,-37.35,15.91
7251,14.66,-1.05,-44.33,250.977,-1454.102,702.637,25.80,-21.60,-37.80,16.19
7261,-8.37,19.09,-35.02,-345.703,-2.441,679.687,24.15,-23.10,-37.65,16.29
7273,-8.63,14.71,-43.56,87.402,69.336,425.781,25.80,-22.50,-38.25,16.38
7283,3.22,-1.77,-39.26,386.719,-1833.984,1475.098,25.35,-24.60,-38.85,16.29
7293,-4.72,3.45,-57.84,86.426,-570.801,-17.090,24.60,-21.90,-39.60,16.29
7303,-3.82,-6.88,-49.66,-0.977,-541.016,1695.801,25.05,-22.80,-39.30,16.10
7313,16.00,1.69,-44.40,370.605,-1182.129,858.887,25.05,-22.80,-39.30,16.38
7323,4.33,3.55,-41.54,424.805,-766.602,671.387,24.00,-22.80,-39.00,16.24
7332,0.49,-4.11,-58.56,619.141,-553.711,910.645,25.50,-22.05,-39.00,16.29
7344,-10.15,3.51,-49.27,-12.207,-373.535,776.367,25.50,-22.05,-39.00,16.38
7354,-9.16,-2.06,-41.95,-527.344,-678.223,1166.016,24.90,-25.50,-39.60,16.24
7364,-1.46,7.15,-53.83,-40.039,-634.277,959.961,24.60,-23.85,-39.15,16.19
7374,-10.27,2.37,-39.92,56.641,-676.758,1166.016,24.60,-24.60,-37.65,16.24
7384,0.41,1.16,-52.67,-145.996,-215.820,708.984,23.70,-25.50,-38.85,16.10
7394,-17.89,-1.54,-34.44,-438.477,-419.922,1999.939,23.70,-25.50,-38.85,16.24
7406,-20.11,-5.13,-39.00,-67.383,-319.336,1832.031,23.70,-24.60,-39.60,16.10
7416,9.73,-1.82,-44.04,-247.070,-752.441,-223.633,24.75,-25.95,-39.00,16.10
7426,2.91,6.37,-30.61,380.371,-1242.188,1468.750,24.75,-25.95,-39.00,16.43
7435,-3.94,-0.79,-47.28,-158.691,-776.855,1999.939,24.90,-24.30,-38.40,16.43
7445,-0.46,-1.55,-49.89,-182.129,-479.980,828.125,24.60,-27.00,-38.85,16.10
7455,-3.70,-1.93,-52.04,105.469,-854.492,433.105,23.70,-26.55,-40.35,15.95
7465,-6.67,-5.78,-52.43,85.938,-43.945,1412.598,23.40,-25.50,-40.65,16.19
7477,-9.64,0.63,-47.30,-549.316,-264.648,431.641,23.40,-25.50,-40.65,15.95
7487,7.85,-3.96,-27.95,484.375,-633.301,962.402,24.00,-27.15,-39.75,16.38
7497,-13.46,-9.67,-47.05,-40.527,-217.773,1548.828,23.25,-24.00,-39.30,16.19
7507,3.47,-3.47,-40.85,37.109,-878.418,713.867,23.25,-24.00,-39.30,16.19
7522,-6.19,-1.30,-42.31,-57.617,-186.035,388.184,24.15,-27.45,-39.90,16.19
7531,15.74,-0.74,-38.81,-406.250,-619.629,596.680,22.95,-25.80,-41.10,16.10
7543,14.31,5.08,-29.57,-521.973,-276.367,336.426,23.40,-27.00,-39.60,15.76
7553,2.70,1.53,-41.00,331.055,-742.187,1501.953,23.40,-27.00,-39.60,15.95
7563,-2.67,2.90,-32.30,-578.613,-166.504,969.727,22.95,-27.00,-39.90,16.19
7573,6.85,0.86,-56.51,270.020,-1330.566,772.461,23.40,-27.45,-40.35,16.29
7583,-25.89,9.70,-43.53,-297.852,-83.984,327.148,23.40,-27.45,-40.35,16.38
7593,10.36,3.38,-25.28,62.988,-1229.980,450.684,22.05,-27.60,-39.30,16.10
7602,-7.05,1.70,-25.79,-457.031,-135.254,766.602,23.70,-29.40,-39.90,16.24
7613,6.59,-5.11,-47.11,-68.359,-55.176,395.508,24.15,-28.95,-40.35,16.24
7623,-5.76,0.77,-30.69,297.363,-825.195,1386.719,22.95,-26.55,-40.65,16.19
7633,1.34,2.85,-44.50,-202.637,-69.824,568.848,22.95,-26.55,-40.65,16.38
7643,5.03,-8.16,-36.68,255.371,-857.910,1999.939,22.05,-29.25,-39.75,16.29
7653,-2.35,5.40,-38.64,-165.039,-434.570,737.305,22.35,-26.85,-38.55,16.29
7663,-2.75,-4.98,-36.17,60.059,-1535.156,1176.758,22.35,-26.85,-38.55,16.19
7673,-12.21,-5.95,-45.88,392.578,-391.113,1613.281,22.95,-30.15,-39.90,16.10
7685,-5.27,5.63,-41.77,285.645,-914.062,581.543,21.60,-27.15,-40.05,16.05
7695,2.11,-5.22,-53.94,-482.910,-424.316,447.266,23.55,-28.80,-38.55,16.29
7705,-1.69,-0.35,-46.55,863.770,-722.656,1649.414,21.00,-31.80,-39.90,16.38
7715,11.69,1.91,-43.74,249.512,-573.730,-34.180,21.00,-31.80,-39.90,16.19
7725,3.98,9.30,-31.33,95.703,-664.062,1267.578,21.45,-28.65,-38.10,16.24
7735,1.13,-4.06,-44.11,395.020,-699.219,1346.191,21.45,-31.05,-39.60,16.38
7747,4.46,-10.59,-44.43,295.410,-956.543,151.855,21.90,-30.60,-40.35,16.38
7757,-9.66,3.60,-33.69,160.645,-234.375,550.293,22.05,-28.35,-38.55,16.24
7767,-15.92,7.91,-38.56,4.883,550.293,1272.461,21.30,-30.75,-40.05,16.05
7776,1.89,15.21,-32.06,304.687,-857.422,1092.285,21.30,-31.20,-40.80,16.24
7786,-2.08,-5.12,-42.86,-81.055,-533.691,1196.289,20.85,-28.35,-40.05,16.38
7796,-4.08,-5.02,-15.33,225.098,-931.152,1317.383,20.85,-28.35,-40.05,16.10
7806,-7.93,9.92,-42.82,125.000,-469.238,1053.223,21.00,-30.60,-39.90,16.19
7818,-8.65,2.37,-46.47,409.180,-580.566,1601.563,21.45,-30.60,-39.90,16.24
7828,-11.99,3.59,-42.50,-643.066,-274.414,625.977,22.20,-30.60,-39.15,16.19
7838,-0.20,6.53,-37.25,-22.949,-596.191,864.746,21.45,-31.05,-39.90,15.86
7848,2.34,8.71,-48.62,-16.113,-340.332,754.883,20.85,-30.45,-40.80,16.29
7858,2.27,0.33,-40.05,92.773,-540.527,1577.637,20.85,-30.45,-40.50,16.24
7868,7.55,10.38,-28.78,47.363,-751.953,497.070,21.90,-31.05,-41.10,16.24
7877,11.09,-8.15,-39.17,-513.672,-71.289,1056.152,21.90,-31.05,-41.10,16.29
7889,-2.91,-1.79,-38.03,-506.836,-653.809,601.562,20.85,-30.00,-40.80,16.10
7899,-3.71,-1.56,-34.21,-87.891,-780.762,1068.848,20.55,-31.65,-40.50,16.38
7909,-3.95,0.33,-49.94,152.832,-574.219,844.238,20.55,-33.15,-39.75,16.05
7919,-6.40,2.02,-37.91,70.801,-460.937,1430.664,19.65,-31.20,-41.25,16.38
7929,-13.69,5.15,-44.56,-263.184,-477.051,568.848,21.00,-31.80,-40.35,16.10
7939,-9.65,1.71,-42.79,-320.312,-1.465,1160.645,19.95,-31.05,-40.35,16.29
7949,2.29,-0.96,-42.68,153.320,-762.695,1999.939,21.00,-32.25,-41.40,16.19
7961,10.98,3.44,-35.29,-181.641,-827.637,993.164,21.00,-32.25,-41.40,16.43
7971,-0.81,-2.53,-40.42,-351.562,-98.633,1999.939,19.65,-31.20,-40.50,16.29
7981,4.03,-5.82,-41.84,-382.812,-1104.980,911.621,20.10,-30.75,-42.45,16.19
7991,5.62,1.65,-32.47,282.227,-1303.223,1999.939,19.20,-31.05,-41.10,16.10
8000,-0.84,-2.56,-42.53,-313.965,-735.352,1384.277,18.60,-31.95,-42.45,16.29
8010,-8.07,3.35,-42.85,-95.215,-494.141,742.187,18.90,-31.65,-39.75,16.29
8022,-6.60,-1.08,-44.32,70.801,-71.777,1368.164,18.90,-31.20,-41.55,16.29
8037,6.25,-5.98,-44.95,-109.375,-426.270,1293.457,19.65,-31.95,-41.25,16.10
8046,0.60,2.57,-33.40,-394.531,-254.883,1493.164,19.35,-31.95,-41.55,15.95
8056,5.21,2.00,-48.02,286.133,-360.352,1386.719,18.90,-31.20,-41.55,16.29
8065,0.31,1.81,-35.85,-383.789,-203.613,877.441,18.90,-31.95,-41.55,16.10
8075,3.27,-5.89,-39.31,-85.938,-1061.523,1172.852,19.20,-31.80,-41.40,16.29
8085,-7.45,-7.46,-43.30,-320.312,-575.195,1074.707,19.20,-31.80,-41.40,16.38
8095,5.68,-13.48,-52.86,25.391,-820.801,1032.715,18.15,-31.20,-41.25,16.19
8107,3.68,-2.16,-30.55,-113.770,-786.621,333.008,19.20,-31.80,-41.10,15.95
8117,1.93,-5.13,-45.15,5.859,111.816,1104.004,19.20,-31.80,-41.10,16.05
8127,5.10,-5.32,-38.15,-122.559,-837.891,1446.289,18.90,-33.15,-39.30,16.24
8137,4.66,-4.29,-39.65,-187.012,-228.516,641.113,18.75,-32.55,-40.35,16.38
8147,3.29,-1.48,-39.35,-367.187,-434.570,1192.871,18.60,-32.85,-40.50,16.19
8157,4.88,-3.50,-0.53,-295.410,-1020.996,1152.832,18.15,-33.15,-40.50,16.05
8167,7.42,-0.51,-38.25,-78.613,-669.922,539.551,18.15,-33.15,-40.50,15.95
8178,0.84,-0.73,-34.39,-321.289,-576.172,1383.301,17.55,-33.45,-40.35,16.05
8188,2.47,-1.60,-35.10,-308.594,-178.711,1501.465,16.80,-33.45,-40.35,16.19
8198,-2.31,5.66,-37.56,-307.617,-303.711,657.715,16.80,-33.45,-40.35,16.24
8208,0.94,-1.47,-38.08,83.496,-281.250,1030.762,17.25,-34.65,-41.10,16.19
8218,-2.40,-1.81,-40.98,24.902,-481.445,1437.500,16.20,-33.15,-39.75,16.38
8228,-13.75,-1.92,-31.84,-185.547,129.395,903.320,16.65,-34.05,-40.80,16.29
8238,-1.76,-3.47,-32.23,24.902,-136.230,521.484,17.10,-34.05,-41.55,16.10
8250,11.04,2.99,-32.59,-41.992,-714.844,1089.844,17.10,-34.05,-41.55,16.19
8260,-2.21,3.92,-38.09,-396.973,-614.258,1411.133,17.85,-34.05,-39.75,16.10
8270,4.98,-4.72,-37.12,113.770,-951.660,661.621,16.80,-34.65,-39.90,16.38
8280,0.92,-6.18,-31.98,-80.566,-164.062,1423.828,16.80,-34.65,-39.90,16.38
8290,-1.32,-8.29,-32.77,256.836,-263.184,512.207,16.80,-33.00,-39.60,16.24
8300,-8.51,2.63,-30.98,-382.324,-362.305,792.969,17.10,-34.05,-40.50,16.38
8312,1.10,-5.40,-33.43,-198.242,-16.113,1817.383,16.05,-34.20,-38.85,16.29
8322,8.19,-5.87,-34.44,53.223,-434.570,893.066,17.25,-34.20,-40.65,16.29
8332,3.16,-2.75,-35.31,-66.406,-389.648,1185.059,17.25,-34.20,-40.65,16.29
8342,4.05,-0.56,-24.31,67.871,-447.266,700.684,16.05,-33.75,-40.35,15.91
8352,5.84,-5.65,-39.41,-307.617,-544.434,1851.074,16.20,-34.80,-39.75,16.19
8362,7.20,2.60,-30.51,-61.523,-616.211,293.945,16.20,-34.80,-39.75,16.43
8372,0.62,-2.51,-31.14,-335.937,-237.305,1378.906,15.30,-34.95,-39.60,16.29
8384,3.57,-4.81,-23.47,-108.887,-307.617,1198.730,16.65,-35.25,-40.05,16.58
8394,1.01,-4.40,-37.58,-73.242,-776.855,977.539,15.75,-33.45,-39.60,16.29
8404,-7.49,15.04,-27.85,-173.340,-398.926,801.270,15.75,-33.45,-39.60,16.24
8414,-5.38,8.83,-27.68,4.395,-66.406,1071.289,15.30,-34.95,-40.35,16.19
8424,6.11,-9.12,-34.05,-403.809,158.691,1284.180,15.30,-34.95,-39.15,16.10
8434,15.05,3.18,-28.77,222.168,-456.543,679.199,15.30,-34.95,-39.15,16.38
8443,10.15,-1.83,-31.96,-113.770,-371.582,882.812,15.30,-34.95,-39.15,16.24
8455,2.69,6.80,-17.55,-92.773,-442.383,1071.289,15.90,-34.35,-38.55,16.43
8465,-0.60,-4.92,-23.22,-354.004,-559.082,1332.520,15.75,-34.65,-39.90,16.48
8475,-3.45,7.70,-25.04,77.148,-285.156,603.516,14.70,-34.80,-39.00,16.24
8485,5.79,-2.32,-25.06,-237.305,-502.930,875.000,14.70,-34.80,-39.00,16.24
8495,-1.87,5.07,-24.07,-157.715,-357.422,673.340,14.85,-34.65,-39.60,15.86
8505,5.21,2.11,-29.44,-328.613,-63.965,958.008,15.75,-34.20,-40.35,16.29
8515,8.87,-1.37,-28.60,200.195,-593.750,716.797,15.75,-34.20,-40.35,16.19
8527,3.60,1.11,-26.30,128.906,-528.809,762.207,14.85,-35.85,-40.35,16.43
8537,-8.38,7.11,-34.45,-226.562,-65.918,873.047,13.80,-34.65,-39.90,16.24
8551,2.78,0.90,-27.11,78.613,-532.227,830.078,13.95,-34.35,-39.00,16.24
8561,-4.22,0.70,-27.32,-207.031,-236.816,859.863,13.95,-34.35,-38.55,16.19
8571,2.29,-0.79,-28.66,29.297,-625.000,1004.395,13.95,-34.35,-38.55,16.29
8581,1.44,2.97,-24.16,-24.414,-6.348,1218.750,14.40,-36.00,-37.80,16.38
8593,-1.66,-2.48,-29.56,-106.445,268.555,951.172,13.50,-35.25,-39.30,16.43
8603,5.88,-7.70,-35.24,132.812,-560.547,1270.996,14.55,-35.40,-40.35,16.29
8613,6.83,-2.34,-28.72,-396.484,-429.687,1127.441,14.10,-36.15,-38.40,16.24
8623,13.42,-5.60,-22.11,34.180,-656.250,651.855,13.95,-34.35,-39.75,16.38
8633,6.55,4.34,-33.01,-272.461,-624.512,549.316,13.95,-36.75,-39.30,16.29
8643,5.18,-3.82,-31.46,-205.566,-533.691,955.566,13.95,-35.25,-39.00,16.05
8653,1.46,0.47,-20.89,-173.340,-812.988,602.539,13.95,-35.25,-39.00,16.29
8664,5.39,5.40,-28.29,-131.348,-541.992,866.211,12.75,-34.35,-38.55,16.38
8674,7.08,-2.31,-30.50,-55.176,-385.254,1036.133,13.05,-35.40,-39.15,16.38
8684,7.76,-3.74,-26.72,-100.098,-331.055,1583.984,13.20,-35.55,-38.25,16.43
8694,5.67,3.88,-28.31,79.590,-364.258,888.184,13.05,-35.85,-39.90,16.24
8703,-0.76,-4.98,-27.11,-48.340,-395.508,865.234,13.05,-35.85,-39.90,16.29
8713,7.50,-5.17,-29.51,33.691,-760.254,625.488,13.80,-37.35,-38.85,16.38
8723,1.58,-6.26,-33.73,-364.746,-195.312,867.676,13.35,-35.40,-38.85,16.19
8735,-3.72,2.40,-25.57,98.145,137.695,809.082,12.30,-36.60,-39.15,16.29
8745,4.05,-4.05,-21.85,-216.797,-920.410,1024.902,12.60,-34.95,-37.65,16.38
8755,-0.56,-5.55,-35.01,20.996,-218.262,445.312,12.60,-34.95,-39.15,16.43
8765,0.92,-7.18,-28.76,9.766,-498.535,858.398,12.75,-36.00,-37.80,16.43
8775,7.13,1.92,-27.84,93.262,-251.465,666.016,13.20,-34.80,-37.50,16.43
8785,3.36,-3.02,-31.76,-171.387,-840.820,1459.473,12.60,-36.60,-39.60,15.91
8797,-0.71,3.16,-27.76,11.230,-177.246,952.148,11.70,-34.80,-38.25,15.95
8807,-4.37,-1.91,-20.98,-104.492,-45.898,558.594,11.70,-34.80,-38.25,16.10
8817,4.92,-1.08,-30.60,-238.281,-286.621,1062.500,12.00,-34.80,-37.05,16.38
8827,5.60,3.27,-22.32,-108.887,-241.699,1775.391,12.75,-36.75,-37.80,16.24
8837,3.14,6.53,-33.24,203.125,-526.367,917.969,12.75,-35.25,-39.75,16.38
8847,5.12,4.21,-30.61,-283.691,-364.746,951.172,11.70,-35.55,-37.50,16.38
8857,7.82,-3.00,-30.95,-86.426,-458.008,978.516,11.70,-35.55,-37.50,15.95
8869,6.96,-0.44,-27.44,-149.902,-486.816,1161.133,12.45,-37.20,-37.80,16.38
8879,4.32,1.44,-29.60,-42.480,-812.988,804.687,13.05,-35.85,-38.40,16.29
8889,3.59,-0.60,-39.42,-16.113,-410.156,1099.121,13.05,-35.85,-38.40,15.95
8899,-1.05,1.05,-30.27,-392.090,-249.023,1602.051,11.70,-36.45,-38.25,16.29
8909,-0.53,4.08,-44.82,333.496,-444.824,836.914,11.70,-36.00,-37.50,16.43
8919,-2.48,-2.21,-34.15,-209.473,-295.410,1901.855,12.30,-36.15,-37.35,16.29
8929,5.02,4.09,-25.36,46.875,-463.867,1477.539,11.10,-37.05,-37.65,15.95
8941,13.24,1.41,-28.63,42.480,-905.273,359.863,11.10,-37.05,-37.65,16.43
8951,2.33,6.15,-35.51,-25.391,-930.664,979.980,12.30,-36.15,-37.65,16.19
8961,3.61,6.01,-31.66,-303.223,-656.738,1370.605,11.10,-36.60,-38.85,16.10
8971,-4.92,-6.85,-31.08,-46.387,-823.730,861.816,11.10,-36.60,-38.85,16.38
8981,-7.01,10.09,-40.21,-20.508,-494.629,569.824,11.70,-36.75,-37.50,16.29
8991,-10.78,-0.69,-38.44,-154.297,-417.480,1562.500,12.30,-34.95,-38.85,16.43
9001,-8.36,-6.34,-43.92,-71.777,-239.746,891.113,11.25,-36.75,-38.55,16.24
9013,-5.76,-10.56,-45.46,-67.383,-649.902,1052.246,11.85,-37.05,-36.60,16.29
9023,3.37,-3.50,-42.47,44.922,-755.371,1458.496,11.85,-37.05,-36.60,16.24
9033,-3.92,-7.44,-49.53,-278.809,-239.258,848.633,10.65,-37.05,-38.10,16.19
9043,5.30,-6.44,-52.63,-8.301,-522.949,625.000,11.25,-36.00,-37.80,16.05
9053,9.63,-0.78,-43.39,-78.613,-764.648,872.070,11.25,-36.00,-37.80,16.29
9068,6.62,-1.69,-45.94,-334.961,-487.793,1276.855,11.25,-36.45,-38.55,16.24
9077,6.09,-3.33,-49.03,-1.465,-1018.555,1366.211,11.40,-37.05,-36.90,16.43
9089,-1.81,-5.34,-46.21,-442.871,-618.164,733.398,10.35,-38.25,-37.65,16.29
9099,7.76,1.31,-49.24,-157.715,-753.906,711.914,10.35,-38.25,-37.65,16.38
9109,-2.08,3.47,-43.55,-412.598,-259.766,1226.563,9.60,-37.35,-36.90,16.29
9119,5.09,2.91,-40.82,-7.324,-303.711,1129.883,11.10,-37.35,-36.90,16.19
9129,4.40,1.45,-45.81,226.074,-523.437,911.133,11.10,-37.35,-36.90,16.24
9139,0.57,-0.43,-45.72,114.746,-1000.488,1205.566,10.05,-37.65,-37.05,16.19
9149,0.68,-5.24,-43.80,-33.691,-276.855,509.766,10.95,-37.65,-36.00,16.19
9161,-1.95,-4.89,-42.89,-80.078,-233.887,992.676,9.30,-38.40,-36.75,16.29
9171,7.14,-5.19,-45.74,-194.824,-418.945,715.820,10.65,-36.60,-37.65,16.19
9181,4.00,1.12,-48.04,-104.492,-168.457,719.238,10.65,-36.60,-37.65,16.58
9191,2.05,2.68,-36.77,-41.016,-961.426,366.211,9.75,-39.15,-36.75,16.10
9201,4.73,-0.64,-43.95,-234.863,-552.734,728.027,9.90,-37.35,-36.15,16.24
9211,-5.21,-3.94,-41.79,-493.652,-1090.332,1388.672,9.90,-37.35,-36.15,16.24
9221,2.28,-2.73,-56.48,-218.750,-452.148,839.355,9.00,-38.40,-36.30,16.48
9233,-5.85,0.05,-44.90,117.188,-899.902,949.219,9.30,-36.75,-36.30,16.10
9243,-1.18,1.63,-44.34,16.113,-472.656,959.961,8.70,-37.80,-35.70,16.48
9253,6.69,10.56,-40.42,-198.730,-104.004,687.500,8.25,-37.20,-36.30,16.29
9263,9.54,6.75,-42.26,-219.238,-835.449,1299.805,8.25,-37.20,-36.30,16.38
9273,5.74,0.53,-45.68,23.437,-402.832,1213.867,9.60,-37.80,-36.60,16.05
9283,8.54,6.76,-35.63,-32.227,-521.484,1231.445,9.90,-37.80,-37.35,16.38
9293,-0.26,2.40,-42.47,313.965,-800.293,1305.664,9.90,-37.80,-37.35,16.38
9304,2.14,-6.05,-46.80,-126.465,-495.117,534.180,7.80,-37.20,-36.30,16.48
9314,4.38,-2.68,-53.88,-64.941,-842.285,532.715,9.15,-38.55,-36.60,16.24
9324,-17.55,-5.78,-229.16,-38.574,-133.789,1393.555,7.95,-39.75,-34.95,16.19
9334,-2.07,-2.12,-13.53,-59.570,-729.004,1038.086,8.25,-37.65,-36.30,16.19
9344,2.02,-0.47,-47.76,135.254,-514.160,916.016,8.25,-37.65,-36.30,15.95
9354,2.50,-10.85,-45.91,-236.816,-1190.430,1756.348,7.80,-40.35,-36.30,16.43
9366,5.07,-8.65,-42.41,-131.348,-571.777,1391.113,7.35,-38.40,-35.25,16.24
9376,0.73,-3.66,-42.93,-307.617,-83.008,1334.473,7.05,-38.40,-36.75,16.19
9386,10.72,0.73,-53.63,35.156,-479.492,523.437,7.35,-37.20,-36.30,16.38
9395,1.45,-0.09,-56.21,177.246,-378.418,728.027,5.85,-38.70,-36.00,16.38
9405,4.14,-3.60,-44.97,62.012,-695.312,814.453,6.90,-39.00,-36.60,16.24
9415,-0.79,3.18,-42.85,85.938,-495.605,1137.207,6.90,-39.00,-36.60,16.10
9425,-6.59,4.33,-40.57,-521.484,-431.641,300.781,6.60,-39.60,-36.30,16.24
9437,-9.80,8.10,-32.98,-142.090,-635.254,1402.832,7.05,-39.60,-37.05,16.19
9447,-11.37,5.50,-41.48,-153.809,-483.398,1213.867,5.10,-39.90,-36.00,16.24
9457,5.18,7.63,-47.66,-37.598,-383.789,913.574,5.55,-39.60,-37.80,16.38
9467,12.44,-4.84,-47.41,-128.906,-527.832,1276.855,5.10,-40.35,-35.25,16.43
9477,13.34,-8.66,-48.49,-159.180,-524.414,1069.336,5.55,-41.10,-36.75,16.38
9487,9.48,2.24,-45.98,56.152,-1009.766,921.875,5.70,-39.00,-36.15,16.29
9496,5.73,2.08,-17.60,-264.648,-766.113,556.641,5.70,-39.00,-36.15,16.24
9508,-3.16,-1.78,-49.22,-14.648,-461.914,1023.437,5.85,-40.35,-35.55,16.10
9518,-1.79,-5.90,-53.20,43.457,-993.164,1351.563,5.10,-39.90,-34.80,16.38
9528,-6.40,-2.27,-47.79,-188.965,-486.328,1116.211,4.20,-41.40,-36.15,16.48
9538,-8.24,-4.09,-48.70,-358.398,-161.133,698.730,5.25,-39.30,-36.15,16.43
9548,2.47,-12.69,-49.12,-112.793,-528.320,877.930,4.80,-39.60,-35.55,16.38
9558,12.50,-5.05,-51.19,-456.055,-406.738,1895.996,3.60,-40.80,-36.00,16.24
9568,10.03,-9.48,-53.15,-172.363,-286.621,1757.813,3.15,-38.70,-36.00,16.10
9585,-4.50,-0.39,-49.26,101.563,-935.547,1394.531,3.15,-38.70,-36.00,16.05
9594,-19.12,-21.31,-39.95,-673.828,-402.832,867.187,3.15,-39.60,-36.00,16.58
9604,-7.63,2.43,-47.40,-149.414,-257.324,1254.395,3.90,-40.80,-35.55,16.29
9614,1.00,-0.27,-54.34,241.211,-988.770,1115.723,3.60,-39.60,-36.00,16.38
9624,-6.75,-7.72,-49.53,-318.848,-117.188,849.121,2.25,-40.95,-34.65,16.38
9634,-5.77,7.18,-52.00,72.754,-175.781,641.113,2.25,-40.95,-34.65,16.24
9646,0.28,0.53,-46.64,-88.867,102.051,807.617,2.85,-40.35,-35.25,16.29
9656,-2.37,1.68,-54.37,-478.027,-330.078,988.281,2.85,-40.35,-35.25,16.19
9666,2.91,4.15,-54.81,97.168,-773.437,744.141,2.10,-41.10,-35.55,16.72
9676,9.86,1.82,-37.32,-34.180,-898.437,1612.305,1.50,-42.15,-34.20,16.38
9686,8.66,-2.75,-44.12,-201.172,-794.922,1506.836,2.10,-39.90,-36.75,16.38
9696,3.84,-1.74,-56.21,-193.359,-575.684,1001.465,1.50,-39.30,-35.40,16.10
9708,2.44,-3.31,-46.27,-444.824,-745.605,1024.414,1.50,-39.30,-35.40,16.43
9718,2.71,-3.08,-59.81,-104.004,-609.863,150.391,1.50,-40.95,-34.95,16.38
9728,1.98,1.63,-44.26,-346.191,-1007.324,1415.039,0.45,-42.00,-35.25,16.24
9738,1.69,5.08,-54.16,17.090,-533.691,1552.246,0.45,-42.00,-35.25,16.10
9748,1.15,-3.38,-51.98,-80.566,-372.070,932.617,0.90,-39.60,-35.55,16.38
9758,5.96,-5.78,-45.06,28.320,-522.461,366.699,0.45,-41.55,-34.80,16.38
9768,-0.53,-2.06,-57.09,-381.348,-440.430,781.738,0.45,-39.60,-35.55,16.62
9780,10.54,1.82,-48.61,-111.816,-313.477,1102.539,-1.50,-40.95,-34.65,16.38
9790,6.44,-5.51,-56.37,202.148,-1016.113,1094.727,-1.50,-40.95,-34.65,16.38
9800,-3.15,-1.34,-48.68,-82.520,-832.520,1398.438,-0.75,-39.30,-34.20,16.38
9810,-12.21,2.30,-59.19,-255.371,-427.246,913.086,-2.40,-41.55,-34.05,16.38
9820,-16.03,0.31,-51.21,-20.996,-379.395,1164.063,-2.40,-41.55,-34.05,16.10
9830,-8.40,-1.78,-46.02,-9.766,-674.805,1280.273,-2.10,-40.35,-33.75,16.05
9840,3.34,-3.53,-46.50,-354.980,-135.254,1396.973,-1.80,-40.95,-36.15,16.38
9852,17.59,10.27,-48.79,-143.555,-875.488,1008.789,-2.55,-39.75,-34.95,16.24
9862,7.18,7.30,-55.24,299.316,-1367.676,1534.180,-2.40,-41.10,-34.50,16.10
9872,-2.97,2.40,-51.18,-630.371,-864.746,413.086,-2.40,-41.10,-34.50,16.10
9882,-2.37,6.90,-48.08,-50.781,-711.914,-193.848,-3.15,-39.15,-34.50,16.43
9892,-5.77,1.48,-50.53,57.617,-429.687,617.187,-3.90,-40.80,-35.25,16.29
9902,2.33,1.95,-51.48,-14.648,-588.379,259.766,-3.90,-40.80,-35.25,15.95
9912,-2.28,-3.14,-50.45,-203.125,-119.629,1073.242,-3.45,-41.70,-35.40,16.29
9924,0.54,-7.15,-46.97,92.285,-440.430,1490.723,-3.90,-39.15,-35.55,16.43
9934,10.90,-6.21,-43.91,254.395,-764.648,672.852,-3.00,-40.20,-34.20,16.29
9944,-2.98,4.09,-40.22,-354.004,-796.387,688.965,-4.20,-41.40,-35.40,16.43
9954,-1.83,3.94,-28.57,-247.559,-444.336,1104.980,-4.20,-41.40,-35.40,16.24
9964,-7.69,7.78,-49.79,-460.937,-821.777,1468.262,-4.35,-39.90,-33.30,16.38
9974,-1.85,5.50,-60.08,-37.109,-167.969,503.906,-4.50,-40.20,-34.95,16.19
9986,-5.56,-0.37,-60.20,97.656,-1104.004,1093.262,-4.80,-40.80,-34.80,16.38
9996,-5.44,-4.59,-43.65,-247.559,-318.848,786.133,-5.55,-40.35,-34.50,16.43
10006,3.60,5.30,-38.92,69.824,-426.270,649.414,-4.20,-40.95,-33.90,16.24
10016,7.37,1.35,-41.24,-362.793,-753.418,1058.594,-5.55,-39.60,-36.00,16.38
10026,-1.89,1.14,-58.31,-228.027,-250.488,1136.719,-5.55,-39.60,-36.00,16.43
10036,13.21,5.78,-50.29,-199.707,-72.266,1012.695,-4.95,-40.50,-34.20,16.38
10046,2.79,2.10,-47.88,142.090,230.957,614.746,-6.45,-39.75,-33.45,16.29
10058,7.70,2.26,-62.66,-291.504,-574.219,731.934,-6.45,-39.75,-33.45,16.19
10068,8.53,-0.76,-38.39,-192.383,-1454.590,1083.008,-7.05,-38.70,-34.50,16.38
10078,1.57,-4.38,-39.50,318.359,-1034.180,1681.152,-7.05,-39.15,-34.50,16.10
10088,-12.12,6.60,-44.14,-282.227,-783.203,1626.465,-6.30,-40.35,-34.50,16.19
10103,-7.26,6.07,-50.15,224.609,80.566,767.090,-6.90,-38.25,-35.40,16.38
10112,-0.74,2.35,-42.69,-39.063,-440.430,1331.055,-6.90,-38.25,-35.40,16.29
10122,7.58,1.68,-48.50,-182.129,-326.660,1051.270,-6.90,-39.00,-34.65,16.38
10132,3.49,-0.02,-53.37,-423.340,-953.613,1108.887,-7.05,-37.65,-32.55,16.10
10144,12.08,-5.96,-49.76,231.445,-1051.758,1199.707,-8.25,-39.15,-34.05,15.95
10154,-9.56,4.95,-36.79,-50.781,-270.508,1550.293,-8.55,-37.95,-34.50,16.19
10164,-0.08,0.66,-51.61,-166.504,-429.199,1487.793,-7.35,-40.35,-34.05,16.48
10174,7.96,1.03,-48.17,-156.738,-791.016,347.656,-9.15,-38.55,-33.45,16.38
10184,5.87,3.84,-38.65,123.535,-979.004,1162.598,-8.40,-39.00,-33.15,16.38
10194,-5.27,1.40,-52.60,-122.070,-143.555,1653.320,-8.40,-39.00,-33.15,16.24
10206,6.98,2.08,-49.82,-23.926,-839.844,1350.586,-8.40,-39.00,-32.70,16.43
10216,-3.00,4.80,-52.41,-233.887,143.555,1084.961,-8.40,-39.00,-32.70,16.58
10226,16.84,2.46,-47.27,-5.859,-940.430,780.762,-9.75,-37.95,-33.90,16.43
10236,-1.89,-6.05,-48.87,-127.930,-890.625,714.355,-9.30,-37.95,-33.00,16.19
10246,2.88,-5.88,-45.05,-475.098,-794.434,1774.902,-9.30,-37.95,-33.00,16.38
10256,6.22,-9.76,-56.99,47.363,-762.207,477.539,-9.00,-38.70,-32.25,16.48
10266,1.13,1.29,-49.79,501.953,-667.969,532.715,-9.00,-38.70,-32.25,16.29
10278,1.66,-5.50,-47.11,114.746,-520.508,291.504,-10.35,-37.05,-33.15,16.43
10288,-13.23,-5.73,-57.77,-359.375,121.582,1248.047,-10.35,-37.35,-33.90,16.19
10298,4.64,-13.92,-50.42,154.297,-723.145,1785.645,-11.70,-37.65,-34.05,16.29
10308,11.76,-1.55,-39.64,37.598,-474.609,335.449,-11.10,-37.05,-32.70,16.29
10318,8.56,0.58,-57.25,-247.070,-244.141,933.105,-11.10,-37.05,-32.70,16.05
10328,3.70,1.86,-29.66,-263.672,-657.227,1231.445,-11.25,-36.45,-33.75,16.38
10338,9.40,2.76,-60.83,-113.770,-1085.449,323.242,-11.25,-37.95,-31.50,16.43
10351,0.27,0.54,-34.69,-92.773,-350.586,620.605,-11.25,-37.95,-31.50,16.38
10361,-2.55,0.11,-48.65,391.113,-1256.836,1041.016,-12.30,-35.40,-33.15,16.38
10371,-6.66,-2.78,-45.53,-239.746,-241.699,1760.742,-12.75,-36.75,-33.00,16.62
10381,-9.24,7.11,-36.47,-107.422,-630.859,675.293,-13.50,-35.55,-33.75,16.29
10391,4.89,5.92,-45.04,-0.977,-651.367,453.613,-11.85,-36.15,-32.40,16.38
10401,6.73,1.50,-55.67,-146.484,-325.684,1255.859,-11.85,-36.15,-32.40,16.19
10413,5.59,8.73,-41.91,54.199,-138.672,551.758,-13.20,-35.25,-33.75,16.38
10423,3.11,-3.37,-53.81,-12.207,-485.352,1910.645,-11.70,-36.45,-31.80,16.48
10433,3.74,-6.17,-41.17,-16.602,-1349.121,-211.426,-11.70,-36.45,-31.80,16.29
10443,-7.65,-0.39,-52.84,-56.152,-612.793,480.957,-13.05,-34.65,-31.20,16.29
10453,-13.75,-6.77,-54.47,-300.781,-424.805,1733.398,-11.85,-35.85,-32.70,16.38
10463,-1.84,-7.66,-56.60,128.418,-295.898,634.766,-15.15,-34.35,-32.25,16.43
10473,-0.21,10.65,-41.65,35.645,119.141,274.902,-13.20,-34.35,-32.25,16.38
10485,10.19,3.61,-58.73,-204.590,-615.723,15.137,-13.20,-34.35,-32.25,16.19
10495,-2.82,8.24,-55.28,-290.527,-407.715,689.941,-14.85,-33.75,-31.95,16.24
10505,1.20,9.38,-53.16,-128.418,-6.836,1088.867,-13.50,-35.25,-31.05,16.19
10515,7.97,13.32,-43.05,561.523,-475.586,645.996,-13.50,-35.25,-31.05,16.38
10525,-0.67,5.53,-35.84,-164.551,-345.703,1480.469,-13.20,-33.60,-32.25,16.29
10535,7.13,-4.95,-48.93,177.734,-768.555,1260.742,-13.50,-34.35,-31.50,16.48
10545,-6.32,4.41,-30.88,92.773,-1037.598,583.496,-14.10,-32.55,-33.45,16.38
10557,-8.69,2.18,-40.52,268.555,-0.977,403.320,-14.10,-32.55,-32.40,16.19
10567,-3.76,7.23,-46.57,158.203,-9.277,1038.086,-13.95,-31.95,-32.55,16.29
10577,4.55,-1.85,-43.53,-222.656,-528.320,864.746,-12.75,-33.15,-31.80,16.24
10587,7.00,-5.30,-38.70,34.668,-1161.621,987.793,-12.75,-33.15,-31.80,15.95
10597,4.06,10.64,-24.27,-249.512,-50.293,617.187,-15.45,-31.95,-32.55,16.24
10607,5.60,-2.06,-48.04,-192.383,-268.066,1218.750,-15.30,-34.20,-30.45,16.38
10631,-0.90,3.30,-46.29,163.086,-865.723,409.180,-13.20,-30.75,-31.80,16.29
10640,-9.83,12.63,-55.05,-513.672,1.465,578.125,-13.20,-30.75,-31.80,16.24
10650,-2.04,6.31,-51.42,150.391,-356.934,1351.074,-14.85,-29.85,-32.40,16.58
10660,2.79,23.56,-16.37,715.820,-200.195,120.605,-14.70,-31.95,-31.50,16.24
10670,-17.56,25.56,-36.00,-206.543,294.922,1324.219,-14.70,-31.95,-31.50,16.19
10682,-16.66,-15.27,-45.84,-314.941,122.070,771.484,-14.85,-29.85,-30.90,16.43
10692,-5.01,-8.39,-53.50,-451.660,-137.695,1628.906,-13.20,-31.65,-29.55,16.38
10702,5.66,2.15,-39.50,333.496,-722.168,377.441,-13.80,-30.60,-31.20,16.10
10712,-14.36,7.56,-55.53,-495.117,292.969,1456.543,-13.80,-28.95,-30.45,16.38
10722,17.15,16.11,-37.66,117.676,-989.258,-151.367,-13.80,-28.95,-30.45,16.38
10732,-0.36,16.56,-46.63,-103.027,-569.336,788.574,-13.80,-30.60,-29.70,16.24
10742,5.65,10.73,-34.27,-51.758,-1273.438,1101.074,-15.15,-28.05,-29.85,16.29
10754,-6.15,-2.68,-32.13,-522.461,-447.754,1999.939,-12.75,-30.45,-29.55,16.38
10764,17.29,-2.35,-32.85,-486.816,-891.602,1773.926,-13.80,-28.65,-28.95,16.24
10774,4.11,-5.05,-54.23,-352.051,-575.684,1816.406,-14.85,-30.15,-29.40,16.43
10784,20.96,-12.04,-36.17,703.125,-1695.801,1292.969,-14.85,-30.15,-30.15,16.10
10794,10.65,-11.93,-44.91,-197.266,-133.301,1796.387,-14.40,-29.55,-29.55,16.19
10804,8.05,-17.35,-38.58,-249.023,-1187.988,1999.939,-14.40,-29.55,-29.55,16.48
10816,7.43,-20.71,-47.69,-293.945,-344.238,1793.945,-14.85,-30.60,-28.20,16.48
10826,13.40,-20.12,-89.84,748.535,-637.207,1137.695,-16.65,-28.80,-27.60,16.38
10836,-11.08,-35.13,-51.78,-781.250,-1405.762,1999.939,-15.75,-29.85,-27.15,16.10
10846,-2.50,-37.85,-27.85,583.496,-759.277,147.461,-15.75,-28.65,-28.20,16.58
10856,-27.30,-29.36,-70.22,-387.695,-394.043,199.219,-18.60,-26.85,-27.60,16.29
10866,-5.98,-30.44,-41.36,337.891,-1029.785,75.195,-18.45,-28.95,-27.45,16.10
10876,-23.99,-0.08,-52.33,-461.426,537.598,-182.129,-18.90,-28.80,-27.60,16.38
10888,-14.65,-0.76,-56.73,38.574,114.746,-419.922,-18.75,-30.60,-26.40,15.95
10898,-31.89,-7.18,-55.47,-539.551,-861.816,661.621,-18.75,-28.65,-28.65,16.38
10908,0.85,-12.72,-45.02,-32.715,-400.391,-138.184,-19.35,-26.85,-26.85,16.38
10918,-27.39,-20.58,-48.58,-961.914,469.727,1588.867,-18.75,-29.85,-25.95,16.38
10928,20.18,-19.90,-60.56,-124.512,-159.668,184.570,-18.75,-29.85,-25.95,16.24
10938,-0.27,-16.82,-54.43,202.637,240.723,-132.324,-19.95,-26.55,-26.70,16.10
10950,49.68,1.33,-92.25,262.207,-913.086,731.445,-20.10,-28.35,-27.30,16.43
10960,14.91,18.52,-46.59,-700.684,-416.504,1999.939,-20.10,-28.35,-27.30,16.24
10970,20.05,-1.58,-31.44,589.355,-1530.762,-289.062,-19.95,-24.60,-28.20,15.95
10980,-5.98,1.08,-50.10,-852.539,31.250,992.187,-19.35,-26.85,-28.05,16.43
10990,21.32,4.16,-54.23,322.754,-1321.289,977.051,-22.05,-27.15,-29.55,16.43
11000,5.03,11.33,70.60,-820.801,95.215,1999.939,-20.55,-25.20,-28.80,16.43
11009,9.28,15.37,-52.60,-775.391,-212.891,1711.914,-20.55,-25.20,-28.80,16.29
11021,25.53,5.99,-32.74,186.523,-1458.984,1999.939,-20.10,-25.95,-29.10,16.43
11031,3.45,13.40,-52.93,119.629,-1615.723,695.801,-19.65,-24.90,-30.75,16.48
11041,-10.33,6.52,-46.96,-223.633,-923.340,1698.730,-19.65,-24.90,-30.75,16.38
11051,-21.61,5.19,-60.50,426.270,-648.437,775.391,-20.85,-26.40,-29.10,16.38
11061,-13.51,-5.21,-44.35,-354.492,-256.348,1999.939,-20.70,-24.60,-28.20,16.48
11071,4.17,-6.53,-59.01,-133.301,242.187,958.008,-21.30,-25.95,-28.80,16.29
11083,11.18,3.34,-50.37,155.762,-357.422,427.734,-22.05,-26.85,-29.55,16.38
11093,-10.02,1.36,-53.39,-671.875,-787.109,1950.195,-22.05,-26.85,-29.55,16.19
11103,13.53,-10.79,-54.80,196.289,-636.230,549.805,-21.90,-26.55,-28.65,16.24
11113,-8.02,-3.63,-54.96,-440.430,-456.543,1778.809,-22.20,-26.25,-30.45,16.10
11123,6.92,-8.92,-52.02,579.102,-1180.664,561.035,-22.20,-26.25,-30.45,16.05
11133,-23.89,-0.70,-53.27,-614.258,-542.480,455.078,-19.95,-27.00,-28.65,16.38
11149,60.12,4.31,-115.47,635.742,-1143.066,13.672,-22.20,-23.85,-28.20,16.38
11158,-20.56,-0.05,-17.92,-477.051,202.637,826.172,-21.90,-26.55,-27.90,16.24
11170,-20.27,-1.87,-30.52,-1022.461,350.098,640.137,-21.90,-26.55,-27.90,16.10
11180,8.69,-3.45,-48.56,481.445,-556.152,433.105,-22.20,-23.85,-27.45,16.38
11190,-19.38,3.73,-49.20,-435.059,345.703,1380.859,-21.90,-25.80,-27.90,16.43
11200,1.50,1.21,-44.71,176.758,-905.273,633.301,-21.90,-25.80,-27.90,16.05
11210,-8.23,2.95,-35.46,-459.473,223.145,529.297,-22.65,-23.40,-27.90,16.29
11220,6.59,-3.10,-41.24,596.191,-553.223,1362.793,-22.35,-24.45,-28.05,16.48
11230,-0.75,4.41,-45.92,-564.941,311.035,387.695,-22.20,-23.10,-28.20,16.19
11242,11.57,5.41,-53.26,-471.191,119.629,628.906,-22.35,-21.60,-27.30,16.43
11252,30.10,-2.60,-41.24,462.402,-1272.461,840.820,-22.35,-21.60,-27.30,16.43
11262,-5.89,7.45,-46.69,-523.926,92.773,1099.609,-22.35,-22.80,-28.80,16.62
11272,20.48,-7.85,-40.91,504.395,-758.301,1213.867,-23.70,-21.90,-27.90,16.38
11282,0.46,1.67,-53.77,-103.516,-306.152,1729.980,-23.70,-21.90,-27.90,16.19
11292,4.84,-2.16,-40.76,351.074,-795.898,812.988,-24.15,-21.00,-27.45,16.19
11304,5.42,-3.01,-43.93,427.734,-648.437,323.242,-23.55,-21.30,-27.60,16.19
11314,-8.05,-0.76,-35.87,-402.344,130.371,1999.939,-23.25,-22.80,-27.60,16.38
11324,22.95,-4.34,-43.56,586.914,-571.777,459.473,-23.25,-22.05,-29.10,16.48
11334,-16.08,2.15,-37.44,-524.902,46.387,1850.098,-23.25,-22.05,-29.10,16.24
11344,12.90,-8.77,-38.15,493.652,-706.543,547.852,-23.70,-22.20,-26.70,16.38
11354,-17.55,-6.96,-36.53,-390.137,184.082,1999.939,-24.00,-21.60,-28.05,16.38
11364,17.95,-9.98,-33.53,321.777,-1115.234,311.523,-23.40,-20.25,-29.40,16.19
11376,4.41,-10.19,-37.66,138.672,-797.852,124.023,-22.65,-21.90,-28.65,16.10
11386,-45.21,7.24,-37.81,-863.770,690.430,1999.939,-24.90,-21.00,-27.90,16.19
11396,6.93,-1.18,-51.56,0.977,-31.738,934.082,-23.40,-19.50,-28.95,16.29
11406,-17.72,-0.87,-43.31,-263.672,-361.816,1039.551,-22.65,-21.90,-27.90,16.24
11416,8.62,4.66,-34.40,-725.586,-200.195,416.016,-22.65,-21.90,-27.90,16.43
11426,7.11,2.79,-29.92,507.324,-871.582,1715.820,-23.70,-17.85,-28.95,16.38
11438,26.61,8.16,-52.24,18.066,-729.492,365.723,-23.55,-20.40,-27.30,16.29
11448,32.43,-1.34,-40.09,532.715,-524.414,1999.939,-23.40,-19.80,-28.20,16.29
11458,42.05,-3.70,-44.04,447.754,-1689.453,568.848,-23.40,-19.80,-27.45,16.24
11468,-5.83,6.53,-38.85,-665.039,-229.492,604.492,-23.40,-19.80,-27.45,16.19
11478,5.02,-10.27,-43.82,276.855,-1227.051,1367.676,-23.25,-20.10,-29.55,16.19
11488,-19.27,-0.60,-35.18,-486.816,48.340,1291.992,-23.25,-20.10,-29.55,16.43
11498,4.71,-5.02,-39.45,670.898,-997.070,786.133,-23.25,-20.10,-29.55,16.29
11509,7.88,-9.30,-31.56,448.242,-1160.156,1824.219,-22.65,-22.20,-29.40,16.43
11519,-8.09,8.50,-39.75,-561.035,259.766,532.227,-23.40,-19.05,-28.95,16.38
11529,9.20,3.66,-34.39,660.645,-388.672,835.449,-23.55,-18.90,-28.35,16.10
11539,-9.69,6.08,-38.93,-597.656,335.937,715.332,-23.55,-18.90,-28.35,15.95
11549,4.95,7.05,-43.92,654.785,-1136.230,577.637,-23.70,-21.45,-28.95,16.43
11559,-23.92,9.65,-32.84,-440.918,36.621,1144.043,-24.15,-21.45,-28.65,16.19
11569,13.40,2.20,-36.98,252.930,-855.957,334.961,-24.15,-21.45,-28.65,16.38
11581,5.40,-5.17,-56.94,37.598,-255.371,732.422,-24.15,-19.50,-28.20,16.38
11591,-7.99,-4.69,-30.15,174.805,-1041.504,1999.939,-24.60,-18.60,-27.90,16.19
11601,-3.95,8.56,-59.21,-605.469,-6.836,658.203,-23.25,-20.85,-28.35,16.29
11611,5.34,-12.57,-39.09,642.090,-1105.469,748.535,-25.50,-18.90,-29.55,16.10
11621,-24.21,3.44,-44.82,-574.707,335.937,355.469,-25.50,-18.90,-29.55,16.10
11631,13.44,-4.62,-39.95,-174.316,-372.070,-201.172,-24.30,-20.10,-28.35,16.29
11643,6.21,-2.59,-45.85,-472.168,-179.199,373.047,-23.55,-18.45,-29.85,16.29
11653,3.03,-6.02,-40.53,723.633,-783.203,1999.939,-23.55,-18.45,-29.85,16.38
11668,-4.76,2.83,-37.63,-265.625,-450.684,625.000,-23.25,-18.45,-27.30,16.43
11677,-12.28,-1.26,-46.30,-170.410,-118.164,1013.672,-24.00,-19.20,-29.55,16.38
11687,4.26,-1.13,-30.76,645.508,-440.430,1309.082,-23.25,-16.05,-28.80,16.19
11697,10.07,-0.46,-42.61,-189.453,-832.520,727.539,-22.65,-15.45,-26.70,16.29
11709,8.16,-7.76,-46.52,-169.922,-473.145,1509.766,-23.70,-18.30,-28.95,16.19
11719,3.77,-11.84,-37.20,-35.156,-168.945,659.668,-22.65,-15.90,-28.95,16.58
11729,8.27,0.22,-36.81,413.086,-417.480,1186.523,-22.65,-15.90,-28.95,16.38
11739,19.85,-18.81,-43.29,-129.883,-895.996,1222.656,-24.60,-16.20,-28.20,16.24
11749,-0.67,-8.60,-42.47,-35.156,-514.648,887.695,-22.95,-15.45,-27.15,16.10
11759,11.20,-4.24,-39.36,373.047,-701.660,446.777,-24.15,-15.90,-28.20,15.95
11771,3.85,-20.16,-36.87,472.656,-947.266,1219.727,-23.25,-17.70,-28.35,16.38
11781,-27.37,0.21,-29.26,-485.352,-413.574,455.566,-23.25,-17.70,-28.35,16.38
11791,-26.48,-1.46,-45.27,-508.789,-284.668,895.996,-22.95,-14.70,-27.90,16.19
11801,-16.02,-6.74,-17.12,-215.820,5.371,1346.680,-23.55,-18.00,-26.85,16.24
11811,-4.51,0.17,-43.35,-236.328,-459.961,731.445,-23.55,-18.00,-26.85,16.38
11821,-3.55,-1.00,-43.66,-303.223,95.703,386.719,-23.70,-14.70,-28.95,16.24
11831,-5.40,-0.11,-34.15,261.719,-137.207,1951.660,-23.55,-15.60,-27.60,16.29
11843,-1.86,5.25,-45.27,-323.730,-703.125,1425.293,-23.25,-16.50,-28.05,16.24
11853,14.62,0.16,-35.31,276.367,-942.871,1533.203,-24.00,-13.20,-29.10,16.29
11863,-10.10,12.68,-36.55,-294.922,-423.340,1233.887,-24.00,-13.20,-29.10,16.24
11873,-0.06,1.82,-49.67,53.223,-422.852,789.551,-22.95,-14.70,-28.20,16.19
11883,9.75,1.33,-37.69,440.918,-534.180,1121.094,-24.30,-13.65,-29.10,16.38
11893,0.15,-9.21,-42.79,-159.180,-943.848,1775.391,-21.90,-12.30,-28.95,16.43
11905,21.02,-10.52,-41.93,127.441,-1053.711,1188.965,-22.95,-13.80,-27.90,16.38
11915,-5.98,-0.24,-34.18,212.402,-630.371,491.699,-23.40,-15.00,-28.65,16.24
11925,-25.20,-0.19,-53.20,-13.672,-99.121,441.406,-23.25,-13.65,-29.55,16.38
11935,-6.63,-1.51,-41.08,-98.633,323.242,1470.703,-23.55,-12.15,-27.30,16.48
11945,20.40,-6.42,-40.60,337.891,-943.359,-174.805,-23.55,-12.15,-27.30,16.10
11955,6.87,-22.18,-33.60,702.148,-1375.000,59.570,-24.60,-13.80,-29.70,16.29
11965,-12.64,-2.50,-41.57,8.301,-541.504,120.605,-22.65,-12.75,-29.70,16.24
11977,14.02,0.19,-28.00,565.430,-1286.621,873.535,-23.55,-10.95,-30.30,16.38
11987,-14.59,0.26,-45.02,-572.754,-173.340,1254.395,-24.00,-13.65,-28.80,16.19
11997,-8.09,5.86,-33.02,-448.242,-432.129,1356.445,-22.95,-13.05,-30.15,16.24
12007,14.56,4.41,-40.86,645.508,-1011.719,1618.164,-22.80,-11.25,-29.55,16.10
12017,-4.85,-9.05,-43.83,-139.648,-926.270,1242.188,-22.80,-12.15,-30.75,16.10
12027,-16.71,0.12,-37.27,-533.203,93.750,1117.188,-22.80,-12.15,-30.75,16.10
12039,6.46,-3.60,-33.31,118.652,-757.812,1655.273,-22.20,-9.90,-31.20,16.38
12049,-12.94,2.45,-46.75,-313.477,141.113,937.500,-22.20,-9.90,-31.20,16.29
12059,10.82,4.45,-40.73,451.172,-337.402,1086.426,-21.90,-14.25,-29.70,16.29
12069,18.38,-6.55,-33.47,-85.938,-799.805,1077.148,-21.90,-14.25,-29.70,16.38
12079,1.21,-1.27,-37.69,216.309,-933.594,369.141,-21.90,-14.25,-29.70,16.24
12089,-10.39,0.85,-43.50,-10.742,404.297,1251.465,-21.60,-11.70,-29.85,16.38
12099,2.61,-1.25,-41.44,-340.332,-635.254,1377.441,-21.60,-11.70,-29.85,16.43
12111,-15.13,-3.97,-48.45,-491.699,98.145,1855.957,-21.45,-10.65,-30.45,16.24
12121,6.57,6.06,-37.26,-214.844,-432.617,1085.938,-21.30,-10.05,-29.55,16.24
12131,12.30,-6.63,-37.15,228.516,-1292.969,1490.723,-20.55,-12.15,-29.10,16.10
12141,-5.56,1.83,10.03,-344.238,-1236.328,1027.344,-21.30,-12.15,-31.50,16.29
12151,1.69,-4.22,-82.69,-86.914,-562.500,765.625,-21.30,-12.15,-31.50,16.29
12161,-14.95,6.31,-45.32,-181.152,334.473,1988.770,-21.30,-10.95,-28.80,16.38
12173,-14.53,-9.39,-39.44,-74.707,-750.000,1180.176,-19.95,-10.65,-28.20,16.29
12188,-22.26,-2.95,-33.79,-14.160,-113.770,810.547,-19.95,-10.65,-28.20,16.29
12197,-1.53,-1.04,-43.50,-178.711,216.309,1318.359,-21.45,-9.45,-28.65,16.29
12207,12.08,7.09,-48.06,59.570,-1249.512,771.484,-20.85,-9.30,-28.05,15.86
12217,-5.82,12.89,-36.14,74.707,-1333.984,1138.184,-20.70,-10.65,-28.65,16.38
12227,-9.76,13.50,-58.56,-625.000,371.094,1317.871,-21.00,-8.70,-29.70,16.29
12239,23.82,2.37,-46.25,1030.273,-998.535,1039.551,-21.00,-8.70,-29.70,16.19
12249,26.92,11.02,-4.32,130.859,-1951.660,393.066,-22.20,-7.95,-29.40,16.38
12259,-12.71,8.48,-45.90,808.105,-1538.574,-293.945,-20.85,-9.75,-28.80,16.24
12269,-30.63,-2.30,-38.08,325.684,-655.273,972.168,-20.85,-9.75,-28.80,16.10
12279,-7.18,3.15,-60.95,-861.328,-203.613,958.984,-21.90,-6.15,-30.75,16.05
12289,1.98,3.49,-47.44,-146.973,-245.605,1233.887,-21.90,-8.25,-30.15,16.24
12299,-1.63,-13.08,-50.56,-141.602,56.641,1164.063,-20.25,-7.95,-31.20,16.29
12311,20.28,-1.57,-46.76,-48.340,-676.270,45.410,-18.00,-9.15,-30.45,16.38
12321,31.75,-14.06,-49.53,-130.371,-2000.000,455.566,-18.00,-7.50,-30.15,16.29
12331,0.90,-11.11,-39.94,-151.855,-1559.570,109.375,-18.15,-6.90,-30.75,16.48
12341,-11.29,-0.45,-49.34,-64.941,-1035.156,537.598,-18.15,-6.90,-30.75,16.43
12351,-31.39,-2.77,-66.92,-330.078,99.121,1308.105,-17.25,-6.75,-31.20,16.38
12361,-18.79,-16.88,-38.71,-563.477,22.461,1195.313,-17.55,-5.55,-30.15,16.10
12371,15.31,2.98,-47.16,78.125,-631.836,1062.012,-16.80,-6.30,-29.70,16.29
12383,-15.76,-3.25,-53.34,-228.516,11.719,971.680,-18.00,-8.25,-29.70,16.10
12393,4.21,4.73,-48.80,-355.469,705.078,856.934,-18.00,-8.25,-29.70,16.29
12403,32.94,4.89,-46.45,-335.449,-487.305,-252.930,-18.00,-6.30,-28.95,16.62
12413,18.12,0.79,-46.20,-87.402,-956.543,1626.465,-17.85,-5.70,-29.10,16.38
12423,9.85,-7.39,-36.59,-233.887,-729.492,587.891,-17.85,-5.70,-29.10,16.29
12433,13.95,-6.50,-42.45,222.656,-1939.941,927.734,-18.75,-8.25,-28.20,16.24
12445,-35.52,-7.91,-53.58,-285.645,-208.008,1853.027,-19.65,-5.70,-28.80,16.38
12455,-21.18,-14.21,-55.98,106.934,164.062,1999.939,-18.75,-6.30,-29.40,16.24
12465,-2.05,2.43,-43.27,-1268.066,489.746,1333.496,-18.15,-6.90,-28.35,16.05
12475,27.83,-12.40,-33.40,407.715,-357.910,976.562,-18.15,-6.90,-28.35,16.24
12485,18.95,-4.18,-60.83,-417.480,-1092.773,-26.367,-16.65,-6.45,-29.55,16.24
12495,12.05,5.20,-44.24,714.355,-1762.695,587.891,-17.40,-4.95,-30.75,16.38
12505,-8.17,-2.40,-41.28,324.707,-1109.375,786.133,-18.60,-6.15,-29.55,16.38
12517,6.69,3.04,-39.53,-100.098,-31.250,1758.301,-17.55,-6.75,-30.15,16.19
12527,26.82,7.85,-46.20,-225.098,-1080.078,1482.910,-17.40,-6.45,-30.30,16.38
12537,-1.23,0.58,-58.57,504.883,-1698.730,1818.848,-17.55,-4.65,-30.15,16.24
12547,-22.60,10.95,-54.86,106.934,126.465,920.898,-15.15,-3.75,-31.05,16.19
12557,-24.82,-0.15,-54.28,-281.250,-106.934,1115.723,-15.15,-3.75,-31.05,16.38
12567,-4.15,-3.52,-30.88,213.379,-347.168,1441.895,-16.50,-3.90,-29.70,16.38
12579,-11.24,-3.90,-57.18,174.316,-388.672,485.352,-16.65,-2.55,-30.75,16.38
12589,-13.51,6.44,-53.24,38.574,19.531,794.922,-16.05,-2.70,-30.15,16.38
12599,-11.96,-1.84,-55.50,105.957,-77.148,810.059,-16.20,-2.85,-29.55,16.48
12609,5.86,-14.49,-55.56,50.293,-954.102,1271.484,-16.05,-2.70,-29.70,16.38
12619,8.27,-14.49,-51.82,535.156,-1089.355,1030.273,-15.15,-2.10,-29.55,16.29
12629,11.03,-17.73,-50.26,-32.227,-1697.266,706.055,-15.15,-2.10,-29.10,16.19
12639,-16.86,7.87,-37.80,-249.023,-626.953,783.691,-15.15,-2.10,-29.10,16.19
12651,6.26,2.04,-50.52,-16.602,-1547.363,1137.695,-15.30,-2.70,-29.70,16.19
12661,2.76,-2.98,-39.26,91.309,-1543.457,792.969,-14.55,-1.50,-30.90,16.38
12671,-12.05,2.55,-51.44,34.180,-318.359,441.406,-15.30,-1.05,-30.45,16.38
12681,-3.70,-2.14,-46.95,55.664,-975.586,678.711,-14.55,-2.70,-30.15,16.19
12691,1.14,-6.05,-52.80,-185.059,-51.270,1952.148,-13.80,-2.70,-30.90,16.38
12706,13.44,2.74,-42.37,279.297,-109.863,1358.398,-14.10,-1.95,-30.90,16.43
12715,17.91,3.43,-49.05,-342.285,-1663.574,234.375,-14.10,-1.95,-30.90,16.38
12727,-23.12,-3.65,-44.01,-32.227,368.652,463.379,-13.35,-1.95,-30.45,16.29
12737,-13.92,-1.66,-24.19,-637.207,-204.590,1355.469,-13.50,-0.45,-31.50,16.19
12747,-2.39,5.63,-45.51,81.055,-111.328,1218.262,-12.30,-0.30,-31.95,16.38
12757,13.53,7.67,-45.75,-187.988,-91.309,603.516,-13.05,-1.95,-31.65,16.38
12767,6.96,7.79,-47.42,-22.949,-510.254,569.824,-13.05,-1.95,-31.65,16.58
12777,13.96,-0.21,-41.75,258.789,-1327.637,1123.047,-12.75,-2.10,-30.30,16.19
12787,5.21,3.36,-45.11,-183.105,-301.270,1700.684,-13.05,-1.05,-29.40,16.10
12799,11.78,-8.66,-57.31,138.672,-1329.590,1542.480,-13.05,-1.05,-29.40,15.95
12809,0.65,-6.66,-40.90,-445.312,-1190.918,677.246,-12.75,-0.90,-30.75,16.29
12819,-6.35,-3.76,-42.81,62.012,-950.684,1174.316,-12.45,-0.45,-29.55,16.38
12829,-10.82,-4.01,-54.34,-284.180,-28.320,906.250,-13.35,-0.75,-30.15,16.38
12839,0.18,-5.56,-45.63,-494.629,-248.535,917.969,-13.05,-0.75,-31.65,16.38
12849,14.80,1.44,-59.31,-22.949,-392.090,866.211,-13.05,-0.75,-31.65,16.43
12861,3.01,-6.02,-47.09,6.836,-812.988,195.312,-10.05,-0.45,-30.75,16.38
12871,-9.15,-7.76,-56.73,56.641,-1171.387,1289.551,-10.05,-0.45,-30.75,16.29
12881,-11.30,-5.05,-48.79,-276.367,-696.289,1002.441,-11.10,0.30,-31.20,16.10
12891,-10.61,-11.67,-44.93,-190.918,-1038.086,1096.191,-12.00,-0.45,-31.05,16.29
12901,-4.34,-4.30,-54.60,275.879,-849.121,1403.809,-11.25,-0.45,-30.75,16.24
12911,-10.60,-4.00,-45.26,-329.102,-214.355,948.242,-11.25,-0.45,-32.25,16.38
12921,3.79,5.07,-55.34,-460.937,-365.234,577.637,-11.25,-0.45,-32.25,16.43
12933,6.20,7.52,-48.15,-189.941,-394.043,827.637,-11.85,-0.30,-30.90,16.43
12943,13.88,2.88,-50.11,173.340,-1020.020,1171.875,-10.50,-0.15,-31.05,16.24
12953,2.09,-2.84,-49.53,-386.719,-908.691,1499.023,-10.50,-0.15,-31.05,16.29
12963,-3.02,5.30,-44.48,-360.352,-765.625,517.090,-10.35,-0.75,-30.15,16.19
12973,-3.15,-0.02,-48.25,-85.938,-1072.754,746.094,-9.15,0.00,-31.65,16.19
12983,-4.30,-2.10,-45.80,-148.437,-448.242,876.465,-10.65,0.75,-30.45,16.38
12993,-8.39,-4.53,-52.21,-444.824,-487.305,806.641,-10.50,0.45,-31.50,16.29
13005,-2.27,-3.50,-45.70,-106.445,-501.465,1700.684,-10.50,0.45,-31.50,16.19
13015,6.82,3.30,-44.50,-319.824,-545.410,413.086,-9.00,0.90,-30.30,16.38
13025,15.41,5.04,-43.73,91.797,-83.984,1698.242,-9.90,0.75,-31.95,16.29
13035,5.79,0.06,-44.56,-53.223,-231.934,1312.012,-9.90,0.75,-31.95,16.24
13045,10.34,-0.02,-53.77,-334.961,-1424.316,1686.035,-9.30,1.35,-31.50,16.29
13055,-2.46,1.93,-40.85,-39.551,-829.590,937.500,-9.30,2.85,-33.30,16.19
13067,-7.40,4.53,-42.64,-72.754,-1120.605,1219.727,-7.80,0.90,-32.25,16.10
13077,-9.73,-0.24,-52.22,-387.207,-156.738,666.016,-7.35,1.65,-31.80,16.38
13087,-0.47,5.22,-53.87,1.953,-316.406,942.383,-7.35,1.65,-31.80,16.24
13097,8.41,2.74,-45.56,-1.465,-528.809,702.148,-6.60,1.65,-32.55,16.43
13107,9.28,-3.34,-47.75,-66.406,-667.480,1278.809,-7.95,0.75,-30.90,16.48
13117,13.53,-4.23,-49.62,28.320,-877.441,1369.629,-7.95,0.75,-30.90,16.38
13127,9.69,-14.24,-49.25,-129.395,-1116.699,932.129,-8.25,2.55,-32.55,16.24
13139,3.85,-5.77,-27.60,-205.566,-361.328,740.234,-8.40,3.45,-31.65,15.95
13149,7.82,-4.64,-51.99,-266.602,-914.062,800.781,-7.80,2.10,-31.05,16.05
13159,4.07,0.51,-47.31,-244.141,-520.508,1375.000,-7.35,2.85,-31.50,16.38
13169,10.73,-2.34,-54.64,-116.699,-628.418,291.504,-7.35,2.85,-31.50,16.38
13179,6.25,5.85,-45.19,-216.797,-548.340,1045.410,-6.90,1.95,-32.70,16.19
13189,6.03,14.34,-36.31,-257.324,-635.742,1678.223,-6.45,1.50,-30.90,16.24
13199,4.60,12.60,-44.44,-166.016,-512.207,915.039,-6.45,1.50,-31.95,16.43
13211,-13.15,15.85,-42.90,236.816,-322.266,795.898,-5.70,2.70,-31.20,16.19
13225,0.18,2.92,-47.12,50.781,-390.137,873.535,-6.15,2.70,-32.40,16.38
13235,1.38,-3.62,-41.32,-5.859,-356.445,1917.480,-5.85,1.65,-33.75,16.38
13245,-0.26,0.79,-41.65,-387.695,-199.707,1155.762,-5.85,1.65,-33.75,16.38
13255,13.11,3.63,-39.18,32.715,-517.090,267.090,-4.80,2.10,-32.55,16.24
13265,7.66,-8.47,-51.99,212.891,-837.402,1232.910,-6.15,3.15,-30.90,16.38
13275,0.89,-6.21,-39.43,-324.219,-707.520,1151.855,-4.35,3.75,-31.50,16.10
13287,3.77,-2.44,-34.61,-35.645,-548.340,1738.770,-5.25,3.15,-33.15,16.38
13297,0.80,0.28,-42.21,-326.660,-466.797,1048.828,-6.15,3.45,-34.20,16.19
13307,0.87,-0.21,-33.25,-245.605,-465.820,1327.637,-4.95,3.45,-33.15,16.29
13317,-1.94,-2.60,-45.63,-104.492,-597.168,1670.898,-4.20,3.15,-32.70,16.24
13327,0.25,7.34,-44.69,-161.133,-393.555,298.828,-4.20,3.15,-32.70,16.24
13337,3.98,0.80,-42.99,-2.930,-2.930,663.086,-3.75,3.90,-34.20,16.38
13347,2.09,-3.56,-32.85,-41.992,-701.172,1289.551,-3.75,3.45,-33.45,16.24
13359,0.94,1.44,-32.65,-27.832,-584.961,1064.941,-3.60,4.05,-33.30,16.38
13369,-1.77,-11.03,-40.67,-186.035,-613.281,1243.652,-1.50,2.25,-33.90,16.24
13379,-5.83,-5.49,-46.35,195.312,-193.359,877.441,-1.50,2.25,-33.90,15.95
13389,-8.21,-5.12,-37.02,-458.984,-666.992,1105.469,-2.10,2.85,-32.55,16.24
13399,-5.33,-13.50,-44.95,82.520,-132.812,822.754,-2.55,2.70,-34.65,16.29
13409,-8.07,-10.40,-41.53,-445.801,-498.047,1432.617,-2.55,2.70,-34.65,16.19
13421,-2.92,-2.60,-52.95,-78.613,-321.289,1111.816,-1.50,2.25,-34.95,16.10
13431,12.89,-4.62,-46.08,-29.785,-1039.063,872.070,-1.50,2.25,-34.95,16.38
13441,4.59,-1.44,-51.36,-475.098,-301.758,485.840,-0.45,3.30,-33.30,16.38
13451,15.18,-5.28,-38.87,-10.254,-708.008,1330.078,-1.05,1.95,-33.15,16.38
13461,8.66,-5.18,-40.51,-115.234,-868.164,1683.105,-1.05,1.95,-33.15,16.10
13471,-4.69,-0.67,-47.00,-121.582,-332.520,519.531,-0.15,2.85,-32.55,16.29
13481,1.59,-3.53,-36.23,26.367,-823.242,975.586,-0.30,1.95,-33.15,16.38
13493,-7.24,2.81,-37.71,-95.215,-439.941,590.820,-0.15,3.75,-34.05,16.29
13503,-2.33,11.13,-27.56,-246.582,-208.496,230.469,-1.80,3.45,-32.70,16.48
13513,9.71,2.58,-36.28,-76.660,-499.512,619.629,1.05,1.50,-32.40,16.19
13522,10.40,11.91,-48.67,-258.301,-243.652,1467.773,-2.10,2.85,-31.50,16.24
13532,9.49,13.26,-32.85,-120.117,-813.965,876.465,-2.10,2.85,-31.50,16.19
13542,-4.63,10.69,-41.62,-312.012,-1379.395,1225.098,0.15,2.55,-31.80,16.29
13552,-22.12,8.04,-41.44,-130.371,-353.516,786.133,0.90,3.30,-32.25,16.38
13564,-22.99,1.88,-42.77,-295.410,-273.926,1181.152,0.90,3.30,-32.25,16.29
13574,-15.63,1.00,-27.01,180.176,-639.648,1592.285,1.50,2.25,-33.15,16.38
13584,-19.27,3.04,-24.02,-195.312,-290.039,1526.367,-0.15,1.65,-32.25,16.24
13594,-12.14,3.56,-35.67,-267.578,92.285,851.074,0.15,1.65,-32.55,16.24
13603,-6.28,-4.18,-41.76,-626.465,-520.020,828.613,1.05,2.25,-31.95,16.43
13613,-0.69,-3.56,-40.63,-78.613,-380.371,950.684,1.05,2.25,-31.95,16.38
13623,-12.23,1.02,-45.68,-166.992,-189.453,1579.102,2.40,2.85,-32.55,16.38
13634,-21.01,-9.70,-47.37,-109.863,-70.313,1814.941,2.10,2.85,-33.30,16.19
13644,-0.32,-13.82,-48.73,121.094,-117.676,936.523,2.10,2.85,-33.30,16.38
13654,15.80,-15.97,-45.63,-53.223,-945.312,1407.715,2.10,2.10,-33.00,16.38
13664,11.29,-12.21,-36.85,-128.418,-563.477,1018.066,1.80,1.50,-32.40,16.24
13674,5.03,-18.33,-39.18,-187.988,-1404.297,1482.422,0.15,0.90,-33.75,16.38
13684,2.56,-14.98,-37.16,331.055,5.371,676.270,2.85,1.35,-33.00,16.38
13695,7.41,-17.11,-46.02,-119.629,-216.797,734.375,2.85,1.35,-33.00,16.43
13705,-8.85,-33.37,-25.86,46.875,-973.633,1538.574,1.80,2.25,-32.70,16.24
13715,-9.30,-35.36,-61.97,-288.086,-46.387,844.727,2.40,2.55,-33.30,16.43
13725,10.68,-38.43,-36.52,-171.387,-934.570,716.309,2.40,2.55,-33.30,16.38
13740,-14.55,-46.95,-54.79,-161.133,652.832,1999.939,-0.15,1.65,-31.80,16.29
13749,-9.89,-36.63,-41.05,-264.160,-250.977,1999.939,1.80,1.95,-32.40,16.58
13759,-30.66,-41.07,-41.77,-634.277,-773.926,379.395,1.05,0.75,-33.15,16.43
13769,-32.59,-38.81,-52.95,-14.648,-564.453,567.383,2.10,1.35,-32.55,16.19
13781,-22.53,-22.73,-58.28,-405.762,-528.809,936.035,2.10,1.35,-32.55,16.48
13791,-10.99,-9.61,-40.89,-431.152,-709.473,219.727,2.25,2.25,-32.70,16.38
13801,-20.05,-5.57,-72.48,-821.289,231.445,1045.410,0.90,-0.15,-33.30,15.95
13811,3.28,2.15,-36.70,-342.773,-393.555,982.422,1.20,0.45,-32.55,16.19
13820,3.35,15.66,-36.21,-964.355,-76.172,1400.391,2.25,1.05,-32.40,16.43
13830,15.90,23.76,-45.81,-216.797,-404.785,382.812,0.90,2.55,-33.30,16.38
13839,6.88,25.66,-33.60,-517.578,-646.973,447.754,0.90,2.10,-31.80,16.19
13851,12.92,23.03,-62.66,-269.531,-715.332,1187.012,2.25,3.15,-32.70,16.38
13861,-4.21,15.34,-37.58,-207.520,-965.332,1999.939,2.25,3.15,-32.70,16.19
13871,-6.75,19.18,-53.83,-145.508,-755.371,929.687,3.00,1.50,-34.95,16.24
13881,-5.26,9.49,-48.60,-419.922,-563.965,1758.789,3.75,1.95,-32.70,16.24
13891,3.83,14.79,-41.92,101.563,-355.469,1720.215,4.80,1.65,-32.55,16.43
13901,1.93,2.46,-45.45,-79.590,-721.680,1437.988,3.75,1.05,-33.45,16.19
13913,5.06,0.49,-43.02,-252.441,-912.109,1805.176,4.95,0.30,-32.40,16.24
13923,5.83,-1.18,-49.98,-26.855,-1015.137,430.664,5.70,2.25,-34.20,16.58
13933,1.03,1.66,-48.61,154.785,-164.551,463.379,5.70,2.25,-34.20,16.43
13942,-0.61,-8.19,-53.24,-41.016,17.090,1162.598,5.70,2.25,-34.20,16.29
13952,-3.89,-2.68,-50.40,11.230,-491.211,1285.645,5.10,2.10,-34.80,16.58
13962,-4.40,-8.88,-57.06,-223.145,-379.883,994.629,5.10,2.10,-34.80,16.38
13972,0.95,-4.06,-54.88,-103.516,-907.227,633.301,4.95,2.25,-33.45,16.38
13984,0.11,3.85,-34.29,-239.258,-263.672,246.094,4.95,1.05,-33.15,16.43
13994,-3.72,-3.16,-46.03,-71.289,-762.207,471.680,5.10,2.10,-34.05,16.43
14004,3.85,-3.50,-55.06,-311.035,-248.535,1041.992,7.80,1.35,-33.75,16.19
14014,6.85,0.95,-48.24,3.906,-875.977,678.711,7.80,1.35,-33.75,16.05
14024,0.05,-0.27,-48.98,-249.512,-621.582,1576.172,6.90,0.30,-33.45,16.38
14034,2.95,2.82,-49.27,-200.195,-455.078,1115.234,7.20,0.75,-33.45,16.24
14044,-5.73,4.93,-59.11,-392.578,-5.371,371.094,6.90,1.95,-33.15,16.10
14056,-9.03,4.40,-46.38,-119.141,-1020.996,400.879,7.35,0.45,-34.05,16.24
14066,3.69,-2.14,-45.60,-160.645,-1009.277,1080.078,7.35,0.45,-34.05,16.29
14076,-2.93,5.34,-48.05,-292.969,-458.008,149.902,7.05,1.65,-34.50,16.24
14086,-2.60,-0.85,-47.00,-299.805,-703.613,1263.184,7.95,1.50,-33.90,16.38
14096,-3.55,-0.66,-34.62,62.988,-1016.113,1613.281,7.95,1.50,-33.90,16.24
14106,-3.05,3.86,-47.50,-329.102,-709.961,406.250,9.15,1.05,-34.20,16.43
14116,4.62,-0.30,-46.81,-231.445,-646.484,1429.199,9.15,0.30,-34.65,16.48
14128,1.00,1.85,-44.38,-403.320,-409.668,1238.770,8.25,2.10,-33.30,16.24
14138,5.28,0.08,-45.60,123.047,-871.582,552.246,9.15,1.50,-34.20,16.38
14148,-1.50,0.98,-35.80,-159.180,-493.164,1121.094,9.15,1.50,-34.20,16.19
14158,0.27,0.25,-45.31,-110.352,-587.891,1049.316,9.90,1.50,-34.65,16.38
14168,3.11,-0.98,-45.63,-131.348,-435.547,1600.098,10.35,0.30,-34.95,16.19
14178,4.40,2.29,-25.98,-252.441,-63.477,1132.813,10.35,0.30,-34.95,16.38
14187,2.06,-3.06,-45.52,111.816,-282.715,562.988,9.90,1.50,-33.45,16.05
14198,2.94,4.03,-48.98,179.199,-925.781,437.012,9.60,1.95,-34.95,16.38
14207,9.18,-2.21,-36.32,-73.730,-601.074,1524.414,9.60,0.00,-34.95,16.24
14217,9.66,-4.75,-40.93,-115.234,-567.383,338.867,10.05,1.65,-35.55,16.10
14227,7.87,6.29,-45.11,235.840,-667.480,500.488,10.05,1.65,-35.55,16.19
14237,0.69,3.31,-43.05,-99.121,-615.723,908.691,10.95,-0.45,-34.50,16.29
14251,-5.21,2.48,-44.16,-52.246,-228.516,653.809,9.60,0.30,-34.20,16.38
14261,-7.12,-5.11,-44.08,-409.668,-324.219,1638.184,9.60,0.30,-34.20,16.19
14273,5.14,2.87,-32.81,-196.777,-831.543,1150.391,11.70,0.15,-34.05,16.43
14283,-13.24,-1.84,-47.30,-287.598,-234.375,1110.840,12.30,0.30,-34.95,15.95
14293,-1.95,-1.31,-39.77,-23.437,-1081.543,1463.867,11.70,-1.35,-35.55,16.38
14303,-8.31,-1.86,-42.84,-153.809,-195.312,1096.191,11.70,-1.35,-35.55,16.38
14313,-0.41,0.44,-46.93,-148.437,-291.016,423.828,12.60,0.30,-34.20,16.62
14323,2.54,-3.74,-50.07,-244.141,-252.930,1022.461,13.20,-0.15,-33.75,16.38
14333,0.71,13.14,-43.50,6.348,-897.949,1039.551,13.20,-0.15,-33.75,16.43
14345,2.20,11.94,-8.70,-424.316,-1177.246,1352.051,13.20,0.45,-34.80,16.38
14355,-4.56,-1.51,-48.58,-399.902,-254.883,1028.809,13.50,0.45,-34.50,16.24
14365,-0.85,-8.89,-26.18,-338.867,-6.348,1112.305,12.30,0.00,-34.20,16.19
14375,-2.21,-5.19,-16.18,-127.930,-858.398,1496.582,14.40,-0.90,-34.05,16.43
14385,-1.24,4.87,-37.90,117.188,-11.719,582.031,14.40,-0.90,-34.05,16.29
14395,2.80,-0.32,-40.02,-354.492,-450.195,1107.910,13.35,-0.75,-34.20,16.43
14405,2.07,-2.79,-49.96,-552.734,-264.160,1041.016,14.40,-0.45,-34.80,16.38
14417,9.33,-2.45,-47.69,-172.363,-758.301,901.367,14.70,-0.45,-35.55,16.43
14427,1.66,-1.86,-45.48,-327.637,-602.539,1416.992,15.15,-0.45,-34.80,16.38
14437,-1.21,7.09,-44.46,-207.520,-498.535,1023.437,14.85,-0.75,-34.95,16.29
14447,7.27,6.12,-55.26,-392.578,-627.441,1152.832,14.85,-1.50,-34.95,16.10
14457,-0.85,7.59,-35.18,-203.125,-1020.020,1097.168,15.45,0.15,-34.80,16.48
14467,-5.96,3.27,-51.86,-305.176,-253.906,1620.605,15.45,0.15,-34.80,16.72
14479,3.96,-2.96,-49.60,30.273,-804.199,1379.395,14.40,-1.65,-34.80,16.38
14489,10.08,7.73,-44.18,-610.840,-431.641,1132.324,14.55,-0.75,-33.90,16.24
14499,-1.21,8.11,-48.66,-93.750,-1199.707,1025.879,15.45,-1.65,-34.80,16.24
14509,-13.37,8.00,-50.24,-11.230,-695.801,200.684,15.45,-2.10,-34.05,16.38
14519,-10.10,7.80,-100.84,-356.445,-480.469,1035.645,16.65,-1.65,-35.55,16.48
14529,33.77,7.82,-54.47,134.766,242.676,696.289,15.45,-1.35,-35.25,16.24
14538,-5.15,-6.08,44.15,-202.637,-229.004,1410.645,17.55,-2.70,-35.40,16.24
14550,-4.00,1.32,-38.76,-155.273,-956.055,1126.953,17.55,-2.70,-35.40,16.38
14560,2.76,-1.81,-57.45,-5.371,-597.656,1191.895,16.50,-3.45,-35.40,16.48
14570,-8.84,-1.12,-53.24,-229.004,-185.059,1274.414,17.10,-2.10,-33.75,16.29
14580,3.85,8.14,-52.98,93.262,-705.566,637.695,17.25,-2.25,-36.15,16.24
14589,13.73,1.15,-51.63,-297.852,-928.711,1142.578,17.55,-2.70,-36.15,15.95
14599,7.50,5.27,-45.58,-165.527,-661.621,662.598,17.55,-2.70,-36.15,16.43
14609,2.04,-3.46,-57.89,36.133,-715.820,1008.301,16.50,-2.70,-36.60,16.48
14621,-1.05,-2.29,-50.56,-32.715,-707.031,1106.445,17.40,-2.55,-36.30,16.24
14631,-0.47,-0.31,-53.27,-413.574,-575.684,1290.039,17.40,-2.55,-36.30,16.38
14641,3.98,2.24,-39.56,-368.652,-72.266,1220.703,16.80,-3.45,-36.15,16.29
14651,7.34,4.47,-56.43,-382.812,-1031.738,1552.246,18.45,-3.45,-35.70,16.38
14661,0.63,-5.72,-54.08,-116.699,-362.793,1743.164,18.45,-3.45,-35.70,16.38
14671,-6.83,2.92,-49.61,-284.668,-122.070,839.355,18.15,-4.05,-35.55,16.05
14683,-2.97,3.07,-51.18,-95.703,-727.539,1334.961,18.15,-4.05,-35.55,16.05
14693,1.76,0.01,-48.60,-245.117,-366.211,1103.516,18.90,-2.55,-35.55,16.10
14703,0.66,6.79,-44.18,-135.254,-555.664,1292.969,18.75,-2.70,-35.70,16.19
14713,-4.70,7.79,-44.29,-326.660,-440.918,520.508,18.75,-2.70,-35.70,16.62
14723,1.50,1.05,-60.66,-110.840,-946.777,1642.578,19.35,-3.75,-36.30,16.29
14733,3.38,-0.45,-48.12,-206.543,-417.480,805.664,19.35,-4.95,-36.75,16.24
14743,-2.46,-1.57,-48.35,-94.238,-664.062,753.418,18.90,-5.25,-37.80,16.19
14756,2.21,-4.32,-53.36,69.824,-524.902,648.926,20.55,-4.95,-37.05,16.43
14778,-6.81,0.51,-53.03,-301.758,-370.605,695.801,19.50,-4.65,-36.60,16.43
14787,2.98,-7.11,-51.66,-160.156,-754.883,1007.324,19.50,-4.65,-36.60,16.38
14797,-1.22,-8.64,-49.77,-171.875,-435.547,1027.344,19.50,-4.35,-37.65,16.19
14807,-1.87,-6.04,-47.26,-112.793,-444.824,1042.969,20.10,-6.15,-36.00,16.38
14817,5.63,-9.79,-51.55,-267.090,-553.223,733.398,20.70,-5.55,-37.65,16.58
14829,1.96,-7.55,-50.82,73.730,-746.582,812.012,20.55,-5.70,-37.50,16.43
14839,2.34,-6.43,-46.06,-105.469,-563.477,412.598,20.55,-5.70,-37.50,16.29
14849,-4.46,-2.98,-50.90,-329.102,-342.285,1051.758,21.90,-6.75,-36.60,16.29
14859,3.31,-6.00,-49.21,-150.879,-810.547,1399.414,19.95,-7.50,-36.90,16.29
14869,6.53,-5.73,-48.47,-75.684,-410.645,922.363,19.95,-7.50,-36.90,16.19
14879,4.95,-0.34,-50.19,142.090,-204.590,1243.164,21.60,-6.15,-36.75,16.24
14889,10.18,-1.78,-43.18,-209.473,-731.445,638.184,19.20,-7.05,-36.15,16.24
14901,7.15,-2.79,-48.66,-168.457,-573.242,900.879,21.00,-7.95,-37.65,16.29
14911,8.08,-0.39,-46.97,-233.398,-781.250,885.742,22.05,-7.35,-36.75,16.38
14921,1.99,4.63,-47.46,25.391,-178.711,1115.723,22.05,-7.35,-36.75,16.38
14930,5.93,1.00,-47.21,-148.437,-910.645,1223.145,22.05,-7.65,-37.50,16.58
14940,3.92,0.05,-42.01,62.988,-609.375,364.746,21.60,-8.55,-37.50,16.10
14950,0.48,9.22,-45.52,-205.078,-550.293,375.000,21.60,-8.55,-37.50,16.43
14960,-3.49,8.63,-45.39,-176.758,-67.383,1125.000,21.60,-8.10,-37.50,16.38
14972,2.67,11.42,-45.11,-141.113,-421.875,560.059,21.45,-9.45,-37.65,16.19
14982,-4.68,12.87,-47.31,-47.852,-701.172,532.715,22.05,-6.90,-37.05,16.38
14992,0.05,1.58,-53.24,-59.082,-466.309,1145.508,22.20,-8.70,-36.90,16.38
15002,-9.87,10.05,-46.50,-176.758,-280.762,680.176,22.20,-8.70,-36.90,16.38
15012,-6.72,0.25,-51.91,-99.121,-475.586,613.770,21.45,-9.45,-36.15,16.24
15022,-3.15,2.92,-46.04,-5.371,-504.883,978.027,22.05,-9.75,-37.50,16.19
15032,-5.53,7.66,-47.66,24.902,-107.910,571.289,22.05,-9.75,-37.50,16.29
15044,-2.85,-0.56,-42.44,-194.824,-442.871,1950.195,23.70,-9.90,-38.40,16.10
15054,5.32,-5.20,-50.49,-63.965,-811.035,1477.051,23.25,-9.90,-38.40,16.29
15064,4.53,0.36,-53.48,-65.918,-506.836,652.344,24.00,-10.05,-37.80,16.38
15074,1.53,3.92,-48.54,-147.949,-120.605,603.516,24.00,-10.05,-37.80,16.38
15084,8.11,12.79,-45.54,-241.699,-341.797,799.805,23.25,-10.95,-37.80,16.24
15094,-1.40,4.36,-41.54,-236.328,-284.180,1389.160,22.95,-11.10,-37.35,16.58
15104,-2.55,10.52,-43.03,-362.305,-32.715,1742.676,22.95,-11.10,-37.35,16.05
15116,5.21,11.14,-46.61,-27.344,-231.934,1162.598,24.15,-11.10,-39.15,16.38
15126,6.79,7.37,-43.40,-9.277,-338.867,1432.617,24.75,-10.95,-37.80,16.38
15136,5.96,1.53,-43.82,-135.254,-770.996,1327.637,23.55,-11.70,-39.00,16.24
15146,4.03,0.16,-46.19,26.367,-800.293,1306.641,25.35,-10.35,-39.15,16.48
15155,1.08,-1.00,-50.92,76.660,-530.273,1217.773,25.35,-10.35,-39.15,16.38
15165,-11.37,-1.35,-39.18,49.805,-166.992,1088.379,23.70,-11.55,-36.90,16.38
15177,-5.02,3.08,-53.52,-158.203,-736.328,739.746,24.15,-12.75,-38.10,16.38
15187,0.78,-1.15,-41.95,-85.449,-517.090,1199.219,25.05,-12.15,-39.00,16.38
15197,-5.64,-4.18,-46.85,-137.695,-552.734,1436.035,24.30,-11.70,-36.75,16.29
15207,8.13,-2.35,-40.02,34.668,-941.895,594.238,24.90,-12.75,-38.40,16.29
15217,-2.21,-4.78,-44.26,-99.609,-655.762,1391.113,25.05,-11.25,-38.25,16.29
15227,-3.44,2.52,-50.24,-96.191,-265.137,624.023,24.15,-14.25,-38.10,16.48
15237,-5.51,2.23,-34.17,-93.750,-237.793,811.035,24.15,-14.25,-38.10,16.38
15249,8.31,-7.95,-37.16,-168.945,-1040.039,1034.180,23.55,-14.10,-38.25,16.38
15259,1.41,0.03,-57.05,-4.395,-237.793,701.172,23.40,-13.50,-39.90,16.43
15269,-1.31,4.75,-43.58,-45.410,-538.086,689.453,25.65,-14.25,-37.65,16.29
15279,-8.04,6.61,-45.69,-154.785,-353.516,503.906,24.15,-14.70,-38.10,16.19
15295,-8.51,-3.27,-50.33,-97.168,-703.613,1282.227,24.15,-14.70,-38.10,16.29
15304,-1.34,0.14,-43.11,-155.273,-570.312,1555.664,24.30,-15.60,-37.50,16.38
15316,1.05,0.72,-40.89,-213.379,-191.406,1366.699,24.60,-14.25,-39.15,16.38
15326,4.17,0.85,-41.96,-405.273,-389.648,1371.094,23.55,-15.60,-38.55,16.24
15336,7.02,-5.20,-42.18,-14.160,-667.480,901.855,24.15,-16.65,-37.35,16.19
15346,-2.38,6.25,-41.64,-58.105,-526.367,452.637,24.30,-16.05,-38.25,16.43
15356,-5.66,-1.79,-41.56,-138.672,-484.375,1043.945,24.00,-15.30,-38.55,16.19
15366,-1.95,-3.96,-42.24,-37.109,-167.480,1191.895,24.00,-15.30,-38.55,16.38
15376,-2.05,-0.71,-39.72,-111.328,-96.680,817.383,24.75,-16.05,-38.55,16.24
15388,7.84,0.18,-38.34,91.309,-897.461,609.375,25.50,-16.05,-38.25,16.24
15398,0.33,-6.24,-35.73,2.441,-867.676,1092.285,25.50,-16.05,-38.25,16.43
15408,0.22,-5.54,-39.73,73.730,-632.812,1059.570,24.15,-15.00,-37.65,16.38
15418,0.69,1.43,-28.97,-228.027,55.664,957.031,24.90,-17.85,-39.15,16.58
15427,-0.23,6.70,-35.18,-113.281,-196.777,1022.949,25.05,-17.70,-39.00,16.05
15437,0.15,1.45,-32.89,-107.910,-786.133,1372.559,24.00,-18.45,-37.80,16.24
15447,0.76,-4.76,-33.18,-29.297,-423.828,1456.055,24.00,-18.45,-37.80,16.24
15459,-2.57,-4.40,-43.07,-48.340,-206.055,781.250,24.30,-17.25,-38.25,16.24
15469,2.39,-3.27,-35.79,182.129,-704.590,1260.742,24.60,-18.60,-38.10,16.38
15479,2.29,1.68,-25.31,-114.258,-396.973,1585.938,24.60,-18.60,-38.10,16.43
15489,5.19,3.02,-41.03,256.348,-243.164,1355.469,24.75,-18.45,-38.55,16.48
15498,3.44,-3.40,-44.18,225.098,-148.437,1255.859,24.15,-18.30,-38.85,16.38
15508,2.61,-1.37,-40.74,247.559,-756.348,982.422,24.60,-18.30,-38.40,16.38
15520,4.94,-3.66,-46.68,-83.984,-840.820,1121.582,24.15,-18.30,-38.40,16.19
15530,-5.22,6.89,-41.21,-236.816,-378.418,896.484,24.15,-18.30,-38.40,16.38
15540,-6.84,2.88,-45.47,-21.973,-427.246,912.109,23.70,-19.50,-38.10,16.10
15550,-8.89,5.90,-39.15,-164.551,-428.223,916.504,25.05,-18.90,-39.30,16.19
15560,-7.05,12.37,-41.65,17.578,-300.781,1458.008,25.05,-18.90,-39.30,16.43
15570,-0.74,3.35,-36.80,-66.406,-217.285,887.695,25.35,-19.05,-39.15,16.38
15580,1.87,0.85,-45.48,-158.203,-91.309,1074.707,25.50,-20.85,-37.05,16.38
15592,3.39,2.95,-28.92,-137.695,-336.914,1398.926,24.15,-19.50,-39.60,16.19
15602,2.11,7.63,-37.40,9.766,-401.855,1407.227,25.05,-20.40,-38.25,16.05
15612,-4.39,-1.00,-44.18,-155.762,-472.168,806.152,25.05,-20.40,-38.25,16.48
15622,1.96,-1.00,-39.52,-9.277,-662.109,1077.637,25.50,-20.10,-38.55,16.29
15632,-4.73,4.88,-40.54,0.488,-270.508,1192.383,25.35,-20.70,-39.15,16.38
15642,-10.82,-2.60,-43.01,-241.699,181.641,1011.719,25.35,-20.70,-39.15,16.43
15652,-1.40,0.48,-38.64,1.465,-520.508,1177.246,24.75,-20.40,-38.55,16.24
15664,-0.84,-1.56,-35.10,20.508,-754.395,1265.137,24.60,-21.45,-39.60,16.43
15674,-2.66,7.39,-35.70,-150.879,93.750,841.797,24.75,-20.10,-37.50,16.43
15684,-5.48,-0.04,-36.71,-187.012,-560.547,1460.938,24.60,-22.20,-38.10,16.10
15694,-0.02,4.70,-39.44,0.977,-562.500,928.711,24.60,-22.20,-38.10,16.29
15704,1.51,4.26,-34.08,22.949,-849.609,781.250,24.60,-21.90,-39.15,16.38
15714,-1.05,6.40,-41.11,60.059,-350.586,975.098,24.75,-21.60,-39.00,16.43
15726,-3.50,1.35,-37.66,257.324,-145.020,994.629,23.70,-23.40,-38.10,16.58
15736,2.29,-2.06,-37.16,-4.395,-261.719,952.637,24.15,-21.90,-40.35,16.38
15746,0.44,-9.69,-46.77,-24.902,-622.070,1557.129,25.05,-22.05,-37.80,16.29
15756,-0.08,-6.03,-28.96,-29.785,-933.105,721.191,24.15,-23.10,-39.15,16.38
15766,-2.91,-5.83,-41.80,-77.148,-65.430,1006.836,24.15,-23.10,-39.15,16.29
15776,-5.11,-3.97,-38.92,111.816,-201.660,877.930,24.30,-24.00,-38.55,16.29
15786,-9.76,-9.38,-42.73,-84.961,53.711,1431.641,24.60,-22.20,-39.60,16.48
15798,-0.26,-2.85,-39.19,159.180,-549.316,1433.594,24.90,-23.40,-38.10,16.38
15815,-3.18,-2.27,-31.54,137.207,-570.312,1557.617,23.40,-23.10,-39.15,16.38
15824,-3.17,-7.82,-43.45,357.422,-554.687,1067.871,22.35,-22.05,-38.55,16.38
15834,-10.66,-1.30,-47.18,323.730,-427.734,870.605,23.25,-24.00,-37.50,16.24
15844,-2.76,-1.44,-36.63,-128.906,-469.238,1041.016,22.80,-22.05,-39.30,16.38
15854,2.26,4.60,-40.15,-53.711,-909.668,1801.758,22.80,-22.05,-39.30,16.24
15866,-2.40,-1.30,-37.44,78.125,-501.465,1169.434,24.30,-22.80,-39.00,16.38
15876,-0.74,-1.10,-48.29,-333.496,-789.551,432.617,22.95,-26.55,-39.90,16.19
15886,2.10,1.95,-39.17,403.809,-490.723,911.133,23.70,-24.60,-38.85,16.29
15895,0.21,4.13,-42.51,-171.387,-472.656,236.328,25.05,-25.65,-38.25,16.43
15905,-10.69,7.72,-43.18,257.812,-544.434,1351.563,25.05,-25.65,-38.25,16.43
15915,-3.58,0.44,-31.45,-211.426,-44.922,1316.406,22.95,-25.50,-39.15,16.24
15925,6.44,-6.16,-45.11,-37.109,-725.098,530.762,23.70,-24.30,-39.90,16.29
15936,-5.16,7.20,-46.63,-234.375,-287.109,1537.109,23.40,-25.50,-39.60,16.05
15946,-4.85,-3.94,-34.57,-64.453,-293.945,1364.746,22.35,-26.40,-38.55,16.58
15956,-4.41,-5.85,-47.65,304.199,-466.309,768.066,22.65,-25.80,-39.15,16.58
15966,-8.74,-10.35,-44.37,-71.777,-137.695,1558.594,23.55,-25.20,-38.25,16.38
15976,-1.70,-6.12,-37.26,-329.102,-295.898,791.504,23.70,-27.75,-39.90,16.19
15986,3.11,-8.00,-41.73,106.445,-347.656,908.203,22.95,-25.80,-39.90,16.38
15996,5.95,-1.07,-35.55,41.504,-386.230,720.703,22.05,-25.20,-39.30,16.24
16008,7.28,0.24,-24.94,5.371,-582.031,433.105,22.05,-25.20,-39.30,16.10
16018,-0.32,2.89,-35.73,266.113,-523.437,1017.578,23.25,-24.90,-40.50,16.10
16028,2.68,5.69,-30.94,-23.926,-506.836,1159.668,22.95,-27.75,-37.35,16.38
16038,-8.36,-1.85,-32.83,-108.887,-323.730,958.008,22.20,-27.00,-38.40,16.43
16048,0.96,-6.40,-32.18,-5.859,-603.027,859.375,22.05,-26.40,-39.00,16.24
16058,-11.18,-0.42,-35.12,-18.066,-41.992,656.250,22.05,-26.40,-39.00,16.24
16070,-2.03,7.47,-23.29,347.168,-254.883,593.750,21.90,-26.55,-39.15,16.19
16080,-0.24,-3.13,-41.51,65.430,-217.773,1404.297,22.35,-29.25,-38.55,16.38
16090,-2.33,3.69,-33.53,-10.742,-434.082,1299.805,22.35,-29.25,-38.55,16.29
16100,4.76,2.96,-36.23,24.902,-669.434,553.223,21.60,-26.40,-38.25,16.24
16110,0.95,-1.00,-35.31,2.930,-563.965,1078.125,22.65,-28.20,-39.60,16.38
16120,3.08,-1.37,-32.41,-172.852,-492.187,1544.922,21.90,-27.00,-39.60,16.43
16130,2.37,-3.37,-41.83,95.703,-909.668,1083.496,21.45,-28.65,-38.85,16.43
16142,-1.53,-6.63,-37.58,-186.035,-433.594,1486.816,21.45,-28.65,-38.85,16.38
16152,3.95,-5.33,-41.05,326.172,-650.879,-125.977,21.60,-28.05,-40.05,16.19
16162,-13.56,8.69,-35.73,-341.797,-683.105,1586.914,22.95,-29.85,-38.85,16.19
16172,-4.10,1.51,-39.40,-231.934,-215.332,1591.309,22.95,-29.85,-38.85,16.19
16182,-1.62,2.65,-37.76,134.766,-422.363,795.410,22.05,-28.35,-38.55,15.95
16192,3.31,5.25,-35.08,138.184,-618.164,1089.355,21.30,-30.75,-39.75,16.05
16201,0.11,0.02,-38.99,121.094,-123.047,1093.750,20.70,-27.45,-39.15,16.48
16213,5.68,5.53,-36.68,254.883,-526.855,136.230,22.05,-28.80,-39.00,16.38
16223,-3.53,-5.64,-31.32,-196.777,-650.391,1729.492,22.05,-28.80,-39.00,16.38
16233,5.18,-9.29,-36.00,-32.227,-608.398,820.312,22.20,-27.75,-39.60,16.29
16243,-8.05,-1.63,-32.34,295.410,-287.598,503.906,21.60,-29.55,-37.80,16.05
16253,-8.61,-1.48,-35.28,-223.145,-62.500,1816.406,21.60,-29.55,-37.80,16.38
16263,18.11,-6.05,-35.69,345.703,-849.121,398.926,20.70,-28.20,-38.10,16.43
16275,14.49,-13.76,-30.40,69.824,-736.328,1010.742,20.55,-31.65,-38.55,16.38
16285,-1.48,1.01,-32.34,261.719,-434.570,81.055,21.00,-29.85,-39.15,16.43
16295,-10.84,-2.87,-30.82,-218.262,-855.957,1999.939,20.25,-29.85,-38.10,16.38
16305,-1.02,-2.38,-41.29,257.324,-541.504,595.215,20.25,-29.85,-38.10,16.43
16315,0.26,6.25,-35.49,80.078,-428.711,1345.703,20.10,-29.25,-39.75,16.38
16330,-1.79,4.63,-43.92,-89.844,-324.219,1536.133,20.70,-31.35,-38.40,16.48
16339,7.44,-3.11,-36.53,240.234,-970.215,612.793,20.10,-29.25,-38.25,16.29
16351,8.10,-5.02,-36.65,258.301,-730.469,1263.672,20.25,-33.45,-38.85,16.38
16361,1.68,1.40,-38.44,299.805,-529.785,60.547,19.50,-30.60,-39.60,16.19
16371,-9.86,-2.16,-40.81,-223.145,525.391,1999.939,19.50,-30.60,-39.15,16.43
16381,13.21,-2.75,-40.18,258.301,-763.672,502.930,19.50,-30.60,-39.15,16.38
16391,11.10,2.53,-45.81,320.312,-612.793,-53.711,19.35,-30.75,-39.30,16.24
16401,-0.82,-7.01,-42.80,-325.195,-595.703,1999.939,19.65,-32.85,-37.80,16.48
16411,17.25,-3.02,-38.27,505.371,-781.738,470.215,19.65,-32.85,-37.80,16.38
16423,10.06,0.46,-46.88,318.848,-666.992,240.234,18.75,-31.05,-39.60,16.38
16433,-3.34,10.85,-25.82,75.195,-452.148,325.195,20.25,-33.45,-37.65,16.19
16443,-4.14,-3.80,-35.76,-495.605,-563.477,1999.939,18.60,-32.40,-38.55,16.43
16453,13.14,-5.85,-48.02,567.383,-358.887,633.789,19.20,-30.15,-37.65,16.38
16463,-9.86,7.32,-40.67,-98.145,-81.055,1367.676,19.20,-30.15,-37.65,16.29
16473,18.34,-9.01,-40.58,263.672,-972.656,304.199,18.00,-33.45,-39.15,16.19
16484,-2.40,-6.89,-34.23,119.629,-423.828,1999.939,18.15,-31.65,-38.55,16.19
16494,7.29,-8.37,-37.86,340.820,-642.578,1235.840,18.15,-34.35,-38.25,16.24
16504,-13.59,-1.50,-35.47,-480.957,198.242,1066.895,19.50,-31.05,-38.85,16.19
16514,6.79,-13.37,-33.55,351.562,-754.395,431.641,18.75,-33.00,-38.40,16.38
16524,-1.23,-1.68,-35.76,-2.930,217.285,420.898,18.15,-34.05,-37.80,16.38
16534,6.47,-14.03,-33.41,282.227,-438.477,1999.939,17.85,-32.40,-39.30,16.29
16544,14.89,2.26,-33.44,301.758,-351.074,171.875,17.85,-32.40,-39.30,16.38
16556,12.89,0.14,-30.29,252.441,-510.742,732.422,17.25,-32.25,-36.90,16.38
16566,-15.66,6.40,-33.70,-899.902,260.742,687.500,17.25,-32.25,-38.85,16.29
16576,2.24,-1.16,-18.24,816.895,-687.012,344.238,18.90,-33.15,-37.50,16.58
16586,-18.31,10.06,-29.08,-180.664,641.602,241.211,17.55,-32.25,-39.90,16.43
16596,7.62,-9.47,-26.18,369.141,-1063.477,217.773,17.55,-32.25,-39.90,16.48
16606,-3.58,-5.23,-16.64,-276.367,452.148,115.723,17.85,-35.25,-36.75,16.38
16616,6.94,-10.78,-39.86,204.102,-736.328,1999.939,16.65,-35.55,-37.50,16.38
16628,6.05,-8.26,-36.40,285.156,-1244.141,1771.973,17.10,-34.05,-37.50,16.24
16638,4.55,5.70,-36.03,429.687,-62.988,718.750,16.80,-34.95,-37.65,16.24
16647,-24.66,-5.25,-27.13,-781.250,727.539,565.918,18.00,-33.75,-38.10,16.43
16657,6.76,-8.02,-24.56,574.707,-647.461,314.941,18.60,-34.05,-37.50,16.48
16667,-30.19,8.01,-33.18,-456.543,619.629,691.895,17.10,-34.35,-37.80,16.38
16677,11.83,-12.37,-28.56,392.090,-989.258,-204.590,17.40,-33.60,-37.80,16.43
16689,18.92,-0.79,-11.46,684.082,-853.516,273.926,16.20,-34.80,-37.05,16.38
16699,-16.06,1.93,-30.26,-489.258,157.715,496.094,16.20,-34.80,-37.05,16.72
16709,15.07,-7.56,-26.54,672.852,-1262.207,-58.105,16.05,-32.55,-37.65,16.38
16719,-12.60,4.30,-30.49,-640.625,145.020,628.418,17.10,-34.80,-36.30,16.48
16729,14.16,-7.88,-37.61,550.781,-833.008,505.859,15.75,-34.95,-37.65,16.19
16739,-14.96,1.50,-34.98,-171.387,128.418,698.242,16.50,-34.20,-37.65,16.38
16749,14.97,-14.74,-27.82,756.836,-1618.164,-44.434,16.50,-34.20,-37.65,16.29
16761,11.15,-14.28,-35.17,912.109,-862.793,1187.012,16.05,-34.95,-37.65,16.38
16771,-11.95,14.44,-34.09,-318.848,-107.910,586.914,15.45,-32.40,-36.75,16.38
16781,11.89,-2.84,-21.47,523.437,-851.074,748.047,15.45,-32.40,-36.75,16.24
16791,-18.76,14.13,-40.72,-723.145,344.238,530.762,14.85,-35.85,-37.65,16.38
16801,17.38,0.69,-8.19,812.012,-1467.285,-113.281,16.20,-32.85,-37.50,16.19
16811,-24.94,18.79,-22.31,-488.281,448.242,184.082,14.70,-36.00,-36.75,16.43
16821,17.15,-12.87,-39.33,403.809,-725.098,-35.645,15.30,-35.85,-36.90,16.43
16833,20.41,-0.39,-16.05,423.340,-606.934,-177.246,15.30,-35.85,-36.90,16.43
16848,-16.64,-1.02,-26.29,-494.141,77.148,1254.883,14.40,-35.55,-37.05,16.43
16857,16.85,-5.19,-33.66,425.293,-499.023,287.109,14.40,-35.55,-37.05,16.48
16867,-18.92,-3.62,-32.85,-583.008,-501.465,1857.910,15.75,-34.65,-36.60,16.05
16877,11.12,5.43,-18.46,203.613,-638.672,149.414,14.70,-36.45,-36.00,16.29
16887,-14.85,-5.79,-38.63,313.965,-507.324,1999.939,15.45,-36.45,-36.00,16.72
16899,1.55,-3.42,-21.97,481.445,-1190.430,1999.939,14.85,-34.95,-38.10,16.43
16909,5.86,4.06,-33.01,-312.500,-366.699,749.023,14.85,-34.95,-38.10,16.38
16919,1.77,-1.68,-39.26,661.133,-1336.426,1754.395,14.55,-34.95,-36.60,16.38
16929,-8.54,8.70,-31.50,-68.359,296.387,1612.793,15.30,-34.20,-36.60,16.43
16939,8.02,-4.35,-53.53,687.988,-1408.691,814.453,15.30,-34.20,-36.60,16.29
16949,-26.95,7.50,-19.11,-310.547,957.520,799.805,14.40,-34.35,-37.50,16.19
16959,37.76,0.57,-44.85,577.148,-919.922,265.625,15.30,-35.40,-36.90,16.38
16970,5.00,-5.55,-21.41,393.555,-1296.875,1704.102,14.85,-36.15,-36.60,16.48
16980,-5.18,7.13,-34.07,-352.051,-385.254,897.461,13.50,-36.00,-37.05,16.48
16990,10.37,-8.85,-27.77,484.863,-928.223,3.906,13.50,-36.00,-37.05,16.24
17000,-28.33,-8.44,-57.21,-459.961,29.297,1374.023,14.10,-37.35,-36.15,16.48
17010,10.92,8.30,-43.21,-387.695,-431.152,54.199,13.35,-36.15,-36.90,16.48
17020,-14.82,-2.05,-37.27,247.559,-377.441,1999.939,13.35,-36.15,-36.90,16.19
17030,5.99,9.11,-32.36,-83.008,-366.211,1445.801,14.85,-35.85,-36.60,16.58
17041,20.21,0.07,-25.17,-126.953,-803.223,57.617,13.95,-36.75,-36.30,16.38
17051,3.20,3.72,-21.87,-112.305,131.836,1999.939,13.50,-34.35,-36.30,16.48
17060,19.92,-0.84,-36.79,371.582,-1033.203,1729.980,12.30,-35.85,-36.60,16.48
17070,-5.73,3.69,-46.22,-377.441,-132.812,193.848,12.30,-35.85,-36.60,16.24
17080,13.30,-6.97,-36.26,253.906,-1434.082,694.824,12.75,-35.55,-37.50,16.19
17090,-10.53,-3.63,-45.26,399.902,-49.316,1205.078,12.30,-34.65,-36.90,16.38
17102,-2.95,2.55,-47.71,529.785,-1586.914,1999.939,12.60,-36.15,-35.70,16.38
17112,-3.20,-0.62,-40.06,-864.746,-157.227,447.266,13.50,-35.25,-36.75,16.43
17122,10.84,-8.66,-41.79,626.465,-1232.422,1999.939,12.75,-34.35,-37.05,16.19
17132,4.02,12.52,-35.02,-9.277,-241.211,616.211,13.05,-37.35,-36.90,16.43
17142,11.41,-2.27,-64.66,-136.230,-1269.043,514.648,12.75,-36.45,-36.00,16.48
17152,3.03,7.90,-21.69,45.898,-872.070,1106.445,12.75,-36.45,-36.00,16.24
17161,24.52,-14.88,-47.71,537.598,-1631.836,1239.746,12.30,-35.40,-36.60,16.38
17173,23.04,0.69,-52.47,-239.746,-1291.992,-167.480,13.20,-36.45,-36.75,16.58
17183,-5.45,-5.92,-36.83,99.121,-876.953,1509.277,14.10,-35.40,-36.90,16.38
17193,-1.56,-1.60,-20.86,-477.539,-549.805,1087.891,12.45,-35.25,-35.55,16.48
17203,9.72,-12.31,-58.95,81.543,-1489.746,1746.094,11.10,-37.05,-36.15,16.43
17213,-5.89,11.08,-38.68,-255.371,-27.832,300.293,11.85,-35.40,-35.70,16.43
17223,21.76,-5.34,-29.53,462.402,-1084.473,475.098,13.05,-36.15,-36.90,16.24
17233,-17.75,-6.43,-40.92,-428.223,121.582,987.305,13.05,-36.15,-36.90,16.29
17245,0.73,-6.13,-33.63,438.965,-455.566,1720.215,11.40,-35.40,-36.90,15.95
17255,1.57,-0.82,-40.76,-152.344,-352.051,728.027,10.35,-34.95,-35.70,16.38
17265,-18.85,4.08,-43.71,-185.547,-704.102,1278.809,13.20,-37.20,-36.30,16.29
17275,3.35,-0.12,-43.34,-93.750,-49.316,1050.293,11.25,-36.00,-36.30,16.62
17285,19.17,-5.81,-45.83,483.398,-1409.180,1202.637,11.25,-36.00,-36.30,16.58
17295,-9.27,-1.71,-44.21,-51.758,-621.094,395.996,11.25,-37.95,-34.50,16.38
17307,-7.69,3.99,-29.57,336.426,74.219,1999.939,11.10,-36.15,-36.60,16.24
17317,17.03,-1.02,-34.20,-437.500,-184.082,-568.359,11.10,-36.15,-36.60,16.24
17327,17.98,-3.99,-44.27,-302.734,-1658.691,974.609,10.95,-36.45,-35.55,16.24
17337,-3.47,12.06,-31.12,-4.395,381.836,938.965,10.35,-37.05,-36.15,16.43
17347,17.52,7.65,-38.69,127.441,-518.066,190.430,11.85,-34.65,-36.60,16.58
17361,-2.49,11.31,-18.53,262.695,-700.195,824.219,9.90,-35.40,-34.95,16.38
17371,1.21,3.37,-46.98,-162.109,-669.922,727.051,10.50,-37.20,-36.00,16.24
17383,-11.97,14.35,-15.75,-322.754,291.992,1221.680,9.60,-34.95,-34.65,16.58
17393,16.79,4.36,-27.12,-48.828,-928.223,-36.133,9.60,-34.95,-34.65,15.95
17403,-17.82,-0.69,-38.05,-454.590,-356.934,1159.180,9.30,-35.55,-36.00,16.19
17413,15.34,-3.96,-37.50,-165.527,-102.539,144.531,11.40,-35.40,-36.15,16.38
17423,12.71,4.85,-40.80,271.973,-813.477,1999.939,9.75,-37.20,-34.50,16.48
17433,0.93,14.01,-47.94,-329.590,-472.656,962.891,10.50,-37.20,-36.00,16.48
17443,6.68,8.49,-49.09,354.004,-1304.199,1141.602,10.50,-37.20,-36.00,16.38
17455,8.15,4.02,-39.21,206.543,-1073.242,1095.703,9.00,-36.75,-34.80,16.24
17465,-15.11,-7.92,-49.98,-58.105,-258.789,1134.277,10.05,-38.70,-36.00,16.48
17475,-0.69,0.76,-47.56,-149.414,-179.687,180.664,10.05,-38.70,-36.00,16.19
17485,-18.25,8.60,-36.23,20.508,-1093.750,1999.939,9.75,-36.45,-35.55,16.19
17495,-2.40,13.85,-43.54,90.820,-521.484,268.555,9.90,-38.55,-36.90,16.38
17505,-11.91,2.73,-42.95,-295.898,-123.047,445.312,9.30,-36.75,-35.25,16.38
17517,0.06,-6.60,-52.03,-310.059,-650.391,898.926,10.65,-37.05,-36.15,16.38
17527,0.20,-6.03,-47.82,177.734,-245.117,1578.613,10.65,-37.05,-36.15,16.58
17537,14.14,-6.67,-38.98,124.512,-578.613,974.609,9.75,-38.40,-35.55,16.38
17547,11.49,-6.68,-45.15,-260.742,-587.891,625.977,9.30,-36.45,-34.80,16.48
17557,17.02,-8.60,-46.65,204.102,-1354.980,867.187,9.30,-36.45,-34.80,16.19
17567,0.90,-3.65,-57.11,-140.625,-624.023,1603.027,7.80,-38.70,-34.80,16.38
17577,8.53,-9.34,-56.05,-42.480,-657.715,347.656,9.30,-37.95,-36.00,16.29
17588,0.57,1.18,-47.91,207.031,-767.090,1510.254,9.75,-39.90,-34.50,16.38
17598,5.73,1.46,-48.43,84.961,-458.496,1430.176,9.75,-39.90,-34.50,16.48
17608,-6.98,-1.24,-46.43,-182.129,-393.066,1125.000,9.75,-39.90,-34.50,16.29
17618,5.08,-12.15,-43.50,210.937,-1166.504,1434.570,9.15,-38.55,-34.95,16.38
17628,-1.72,-2.07,-50.34,-169.922,-190.918,1039.551,9.15,-38.55,-34.95,16.05
17638,7.60,-5.05,-47.46,274.414,-705.078,1864.258,9.60,-38.40,-34.80,16.38
17648,-2.85,1.36,-48.34,-422.852,-372.559,391.113,8.40,-37.80,-35.70,16.29
