Time_ms,GyroX_degps,GyroY_degps,GyroZ_degps,AccelX_g,AccelY_g,AccelZ_g,MagX_uT,MagY_uT,MagZ_uT,Temp_C
1309,1.60,0.72,0.50,140.137,28.320,1000.000,-19.65,-13.65,-27.30,16.48
1325,0.12,-1.57,-0.92,37.598,28.320,1039.551,-20.25,-13.05,-27.90,16.24
1335,-1.44,0.70,0.16,89.355,24.414,1052.734,-18.75,-11.55,-27.15,16.38
1345,0.34,0.16,-2.94,140.625,39.551,1011.230,-18.00,-11.85,-28.65,16.38
1355,1.54,-3.12,-1.66,190.918,-13.672,1012.207,-19.35,-12.15,-29.10,16.10
1365,-0.91,2.44,-4.18,37.109,33.691,980.469,-19.20,-13.05,-29.70,16.19
1375,0.95,-0.47,-2.31,60.547,25.391,1021.484,-19.20,-13.05,-29.70,16.38
1385,1.02,-1.01,-3.45,131.836,4.883,1039.063,-22.65,-13.05,-31.20,16.48
1397,0.08,0.20,-2.10,157.227,-11.719,1002.441,-22.80,-12.45,-31.80,16.38
1407,-0.86,-0.08,-2.64,-15.137,36.621,1017.578,-22.80,-12.45,-31.80,16.10
1417,0.89,-0.76,-1.77,100.586,25.391,1084.961,-23.25,-11.70,-31.05,16.38
1427,0.21,-0.40,-2.48,179.199,38.086,1065.430,-23.70,-12.75,-31.65,16.24
1437,-0.34,-1.86,-0.44,53.711,28.320,907.715,-23.25,-12.45,-31.80,16.24
1447,1.39,-0.05,-2.92,61.035,46.875,1033.203,-22.80,-12.45,-31.05,16.29
1457,-0.34,0.47,-2.03,181.152,9.277,890.137,-22.80,-12.45,-31.05,16.29
1469,0.27,0.70,1.53,128.906,-10.742,1020.996,-24.15,-13.50,-30.90,16.62
1479,1.16,-0.75,-3.51,30.273,-19.531,1101.563,-22.95,-12.75,-29.40,16.38
1489,0.20,-0.73,-3.28,267.090,9.766,941.895,-21.90,-10.65,-28.65,16.43
1499,0.23,-1.44,-2.06,96.191,61.523,978.516,-20.85,-12.90,-28.80,16.29
1509,0.37,-2.08,-2.19,-65.430,49.805,1099.121,-20.85,-12.45,-27.30,16.38
1519,-2.74,1.72,-1.27,323.730,-60.547,1082.031,-19.50,-13.05,-27.45,16.19
1529,-1.60,-1.01,-3.75,-22.949,118.652,899.414,-18.75,-13.80,-27.45,16.24
1541,-2.92,0.49,-5.06,47.852,-67.383,770.020,-18.75,-13.80,-27.45,15.86
1551,-7.41,-3.37,-27.20,271.973,72.754,807.617,-17.55,-12.30,-28.20,16.38
1561,0.59,-0.66,-1.38,-32.227,-34.668,1172.363,-18.15,-13.20,-30.30,16.38
1571,-2.05,1.70,-1.82,148.437,-82.031,1120.117,-20.25,-13.05,-31.20,16.38
1581,-0.92,4.40,1.49,177.246,67.871,928.711,-22.65,-13.05,-30.90,16.38
1591,-0.37,-2.15,1.75,46.875,9.766,1197.754,-22.80,-12.15,-32.25,16.72
1601,-0.94,2.47,-4.43,262.207,-60.547,941.895,-23.70,-11.55,-32.40,16.29
1613,-0.42,0.34,-6.09,66.406,-157.227,1395.508,-24.00,-13.20,-31.50,16.19
1623,-0.44,0.24,1.56,452.637,-49.805,815.918,-23.70,-13.50,-30.15,16.24
1633,-2.56,0.85,-4.85,62.012,-2.441,1179.199,-22.35,-11.25,-28.35,16.48
1643,-4.18,-0.84,-5.18,333.008,15.137,998.535,-20.85,-11.25,-28.35,16.43
1653,1.50,3.23,-4.76,5.371,183.594,959.961,-19.95,-15.00,-27.15,16.48
1663,2.18,3.37,-2.15,304.687,88.867,1205.078,-19.95,-15.00,-27.15,16.62
1672,-4.66,0.85,-3.44,41.504,-22.461,942.383,-19.95,-15.00,-27.15,16.29
1684,-1.34,-0.69,-3.63,344.238,-67.871,1191.406,-18.90,-12.45,-29.55,16.29
1694,-2.16,2.03,-2.34,188.477,61.035,793.945,-18.90,-12.45,-29.55,16.38
1704,-2.85,-1.07,0.51,215.332,-88.379,1065.918,-23.25,-11.70,-32.55,16.77
1714,-1.24,2.76,-6.79,184.570,78.125,635.254,-24.15,-11.55,-31.95,16.58
1724,-2.00,0.06,-4.70,270.996,5.859,1062.500,-25.50,-14.10,-32.25,16.58
1734,0.53,0.52,-0.88,149.414,89.355,945.801,-24.90,-12.75,-29.70,16.48
1743,-0.11,-0.24,-1.34,203.613,-115.723,1295.410,-24.90,-12.75,-29.70,16.38
1755,0.13,1.51,-4.53,188.477,67.871,1137.695,-21.30,-12.45,-27.60,16.10
1765,0.21,-0.10,-0.43,101.074,71.777,1020.996,-19.65,-12.90,-27.30,16.48
1775,1.93,0.12,-3.27,276.367,-44.922,1194.336,-19.65,-12.90,-27.30,16.62
1785,0.04,-0.22,-4.69,145.996,37.109,898.926,-17.10,-12.90,-27.30,16.43
1795,-3.95,-2.17,-5.85,201.172,-107.910,956.055,-20.25,-13.80,-28.95,16.58
1805,1.69,-1.24,-4.83,189.941,52.734,1133.789,-21.90,-12.75,-29.70,16.38
1815,-2.15,-1.37,-5.06,165.527,-64.453,847.656,-22.95,-12.30,-31.20,16.29
1839,-0.44,0.02,-3.77,270.996,70.313,1160.645,-25.35,-14.70,-30.45,16.72
1848,-0.77,1.18,-4.81,57.129,171.387,823.242,-21.90,-13.05,-28.20,16.19
1858,-2.21,2.25,-6.49,157.715,-64.941,1273.438,-21.90,-13.05,-28.20,16.48
1868,-1.95,0.23,-5.12,221.680,8.301,998.535,-18.75,-13.50,-26.40,16.48
1878,-2.35,2.99,-6.15,93.750,-59.082,1153.320,-18.60,-12.45,-26.55,16.62
1888,-1.97,-2.19,-5.32,162.109,62.012,874.512,-20.25,-12.75,-29.40,16.43
1900,-1.50,-0.47,-6.13,175.293,-43.457,1194.336,-21.90,-12.30,-31.65,16.58
1910,-1.01,-1.23,-9.50,237.305,17.090,998.047,-21.90,-12.30,-31.65,16.38
1920,0.35,2.02,-7.01,207.520,124.023,1212.891,-24.90,-14.25,-31.20,16.48
1930,0.81,0.82,-6.27,219.727,-80.078,843.262,-22.95,-13.80,-29.70,16.24
1940,-2.08,-0.65,-4.77,125.000,-143.555,1229.004,-22.95,-13.80,-29.70,16.43
1950,-1.28,-2.56,-5.25,239.746,27.832,841.797,-17.40,-14.40,-25.35,16.58
1960,0.80,-1.53,-4.02,256.836,-122.070,1270.508,-17.40,-12.15,-28.05,16.62
1972,0.80,-1.44,-1.36,171.875,68.848,978.516,-21.00,-14.25,-28.95,16.38
1982,1.60,-3.57,-5.49,222.656,-67.871,1024.414,-24.00,-12.90,-31.50,16.72
1992,-2.00,0.73,-6.69,95.215,56.152,1178.711,-24.00,-12.90,-31.50,16.38
2002,-0.39,0.65,-4.56,167.480,5.859,904.297,-23.40,-14.25,-30.45,16.62
2012,0.25,2.52,-4.73,168.945,-106.934,1059.082,-20.55,-13.65,-28.35,16.38
2022,-1.02,0.84,-5.89,233.887,-23.437,983.887,-20.55,-13.65,-28.35,16.38
2034,0.38,-0.67,-7.24,267.578,-42.480,921.387,-19.50,-12.75,-28.65,16.38
2044,-1.33,-0.67,-8.58,160.645,83.008,1102.051,-22.95,-11.10,-30.90,16.72
2054,-2.09,-1.89,-5.57,298.340,-102.539,975.586,-25.05,-12.45,-31.50,16.58
2064,-0.66,-3.22,-7.22,211.914,-31.250,1176.758,-25.05,-12.45,-31.50,16.38
2074,-1.39,-3.26,-7.46,203.125,-79.590,933.594,-20.10,-15.30,-25.80,16.38
2084,-1.98,-5.56,-0.40,256.348,-109.863,1033.691,-18.15,-12.90,-24.60,16.43
2094,-0.90,-4.27,-9.59,39.063,84.961,1064.941,-18.90,-11.25,-27.30,16.38
2106,-1.80,-1.02,-7.17,178.223,-24.902,839.355,-22.80,-12.45,-30.75,16.58
2116,-0.86,-1.03,-9.50,192.383,-32.227,1006.836,-25.65,-12.75,-31.20,16.29
2126,2.72,-1.70,-6.00,151.855,56.641,1003.906,-24.60,-13.80,-28.95,16.38
2136,-0.29,-1.45,-9.37,259.766,-55.664,1138.672,-20.70,-13.50,-26.70,16.58
2146,1.83,0.44,-13.09,297.363,-141.113,845.215,-20.70,-13.50,-26.70,16.58
2156,-3.14,-0.15,-2.79,119.141,-14.160,1143.066,-18.60,-11.25,-27.30,16.43
2166,-0.81,-3.34,-7.48,256.348,50.293,797.852,-21.60,-11.25,-30.75,16.43
2178,-1.40,-1.11,-7.72,46.875,2.441,761.230,-24.00,-13.65,-29.55,16.72
2188,1.59,-1.32,-2.79,303.711,-67.383,1052.246,-22.95,-13.05,-28.95,16.48
2198,0.43,-2.08,-7.53,267.578,-29.785,1116.699,-22.95,-13.05,-28.95,16.43
2208,0.95,0.98,-8.41,-13.672,117.676,804.687,-17.10,-12.90,-24.30,16.62
2218,4.12,-0.57,-11.52,212.891,-187.500,1150.879,-20.10,-10.95,-27.60,16.58
2228,0.30,-0.28,-6.87,269.043,-271.484,1237.793,-20.10,-10.95,-27.60,16.58
2238,0.47,0.55,-9.21,-136.719,-2.441,1150.391,-25.50,-12.90,-29.85,16.58
2250,-1.50,3.49,-8.78,226.074,-96.191,1035.645,-22.20,-13.80,-26.40,16.48
2260,1.04,1.21,-7.48,109.863,64.453,1158.203,-18.45,-13.80,-24.90,16.48
2270,-1.63,6.89,-11.53,184.570,133.789,1089.844,-20.10,-10.95,-27.30,16.72
2280,1.91,3.36,-10.28,184.570,-161.133,826.172,-20.10,-10.95,-27.30,16.43
2290,-0.55,2.74,-13.11,98.633,67.383,1408.691,-24.75,-12.90,-28.80,16.62
2300,-0.37,1.67,-10.34,199.219,125.488,949.219,-23.40,-13.80,-27.45,16.58
2310,-0.25,-1.28,-13.11,173.340,-151.367,952.148,-23.40,-13.80,-27.45,16.58
2324,2.63,1.82,-14.63,386.230,-107.910,896.973,-23.25,-9.30,-29.85,16.43
2334,-1.82,-2.18,-9.68,290.527,85.938,820.312,-23.25,-9.30,-29.85,16.58
2344,3.42,-2.15,-14.02,250.000,79.590,1037.598,-22.20,-11.85,-26.70,16.62
2360,3.37,-4.95,-8.21,59.570,3.906,1057.617,-22.20,-11.85,-26.70,16.58
2369,5.71,-1.00,-7.02,308.594,-127.930,931.641,-20.85,-10.50,-27.60,16.58
2379,3.98,-0.31,-10.26,163.086,-191.406,1378.418,-25.35,-10.65,-30.15,16.29
2389,1.99,-0.71,-8.42,195.801,-211.426,790.527,-25.35,-10.65,-30.15,16.62
2401,-2.40,-0.29,-12.20,289.551,-1.953,1015.137,-19.95,-13.50,-25.20,16.72
2411,-0.08,3.13,-9.11,62.988,104.980,1059.570,-17.40,-9.30,-27.60,16.38
2421,2.82,-4.51,-12.66,245.605,18.555,1043.457,-23.40,-9.90,-30.90,16.48
2431,3.66,0.03,-10.58,19.043,-41.504,1047.852,-25.35,-11.85,-31.20,16.72
2441,-0.72,0.46,-15.73,552.246,-5.371,888.184,-25.35,-11.85,-31.20,16.62
2451,-1.71,-1.41,-15.20,100.586,-205.566,1289.551,-17.40,-10.05,-26.85,16.58
2461,-2.73,-4.60,-13.49,193.359,-166.992,879.395,-21.30,-10.95,-28.80,16.29
2473,-2.92,-0.24,-20.34,126.465,85.449,346.680,-21.30,-10.95,-28.80,16.58
2483,0.69,-4.66,-16.93,289.062,-143.555,996.094,-23.25,-12.45,-28.05,16.38
2493,-2.82,0.24,-19.15,86.426,-60.059,970.215,-19.50,-12.30,-25.95,16.58
2503,-3.08,-2.92,-20.27,250.488,-66.895,959.961,-19.65,-9.30,-28.05,16.38
2513,1.35,-1.23,-15.47,265.137,-198.730,966.797,-24.00,-10.05,-32.55,16.72
2523,-3.16,1.36,-15.08,375.000,-308.105,1237.793,-24.00,-10.05,-32.55,16.58
2533,-0.40,3.98,-16.20,228.516,-179.687,596.191,-20.25,-11.85,-26.40,16.77
2545,-0.28,0.68,-17.33,290.527,63.965,1071.777,-19.65,-10.05,-28.05,16.48
2555,1.45,1.21,-17.60,229.004,22.949,749.023,-24.00,-12.45,-29.55,16.62
2564,2.28,0.38,-17.24,41.016,-34.180,1211.426,-19.35,-11.70,-26.10,16.62
2574,1.67,2.40,-16.74,300.781,211.914,1080.078,-19.35,-11.70,-26.10,16.62
2583,0.13,4.19,-10.94,264.648,-535.156,1133.789,-20.25,-9.90,-29.70,16.62
2593,2.23,1.90,-14.31,41.992,-30.273,952.637,-24.75,-10.95,-32.55,16.77
2605,-0.47,-0.40,-13.40,135.742,-151.367,1626.953,-18.60,-12.15,-26.85,16.62
2615,1.68,-0.35,-9.93,194.824,91.797,1195.313,-18.75,-7.95,-30.45,16.77
2625,-2.56,-3.27,-21.50,226.074,20.996,804.199,-22.80,-9.75,-31.80,16.58
2635,-0.72,-1.09,-20.09,83.984,252.441,1478.516,-20.25,-11.55,-26.70,16.43
2645,-3.53,-3.11,-18.11,235.352,-116.699,1085.449,-16.80,-9.90,-27.15,16.58
2655,3.30,-1.79,-15.25,151.367,-126.953,1020.020,-21.45,-8.25,-30.45,16.48
2665,-2.90,-4.85,-11.21,95.215,-92.773,1285.156,-23.55,-10.95,-31.05,16.58
2677,-0.95,2.00,-18.02,107.910,109.375,1479.492,-23.55,-10.95,-31.05,16.72
2687,-5.04,5.02,-18.67,283.203,232.422,522.949,-17.40,-8.10,-28.05,16.62
2697,-5.82,2.88,-16.68,445.312,-78.125,1004.395,-22.05,-8.10,-31.05,16.48
2707,-3.66,3.31,-18.21,21.973,137.695,1288.574,-21.45,-10.65,-28.95,16.38
2717,-1.84,0.35,-20.43,332.031,-60.547,1258.301,-16.80,-11.10,-27.15,16.72
2727,4.37,-5.19,-16.85,45.410,-460.937,1048.828,-16.80,-11.10,-27.15,16.82
2737,-0.73,-4.15,-13.49,217.285,-450.684,1339.355,-22.65,-10.65,-31.20,16.72
2749,-3.68,-3.19,-17.27,344.238,-303.711,1245.605,-18.45,-12.75,-26.40,16.62
2759,-2.95,-3.68,-18.64,-50.293,199.707,1274.902,-18.45,-12.75,-26.40,16.72
2769,0.20,-4.63,-17.74,185.059,44.434,1028.320,-21.45,-10.65,-31.20,16.72
2779,-1.11,-2.40,-18.73,381.836,62.988,653.809,-19.65,-10.95,-27.30,16.38
2789,-2.53,-7.44,-17.47,315.918,-329.102,1077.637,-16.65,-9.30,-25.80,16.38
2799,-4.06,-8.44,-17.34,113.770,-397.949,1999.939,-20.25,-8.25,-31.65,16.58
2809,-3.79,-7.34,-21.71,58.105,-56.641,1224.609,-20.25,-8.25,-31.65,16.62
2821,2.03,-11.23,-18.75,261.719,-271.484,1143.066,-16.20,-10.50,-26.10,16.77
2831,5.53,-5.95,-19.67,118.652,-26.855,1794.434,-18.90,-7.65,-28.80,16.72
2841,4.62,1.48,-19.17,-192.871,117.188,1463.867,-18.90,-7.65,-28.80,16.72
2851,5.79,4.38,-18.37,322.266,-57.617,560.059,-16.50,-11.10,-24.45,16.48
2861,5.47,8.97,-21.48,208.496,-230.957,-51.758,-18.75,-7.95,-27.45,16.58
2878,-4.45,9.40,-15.85,215.820,-210.449,678.711,-17.25,-11.10,-25.20,16.58
2887,-7.33,7.30,-18.79,256.348,-189.453,1031.738,-17.25,-11.10,-25.20,16.72
2897,-7.18,5.44,-15.65,208.496,122.559,1403.320,-22.05,-8.85,-28.80,16.77
2907,-3.07,5.25,-16.40,269.531,-81.055,392.090,-18.60,-11.25,-23.55,16.58
2917,-5.15,-1.02,-19.84,145.996,-143.066,1367.676,-18.60,-11.25,-23.55,16.58
2927,1.35,-4.49,-26.45,441.406,-362.305,712.891,-22.65,-9.90,-29.40,16.58
2937,-0.16,-5.50,-16.21,202.148,-569.824,1367.676,-19.35,-11.70,-25.05,16.58
2949,-7.53,-5.47,-21.51,78.125,-260.254,1448.242,-17.25,-7.95,-25.20,16.48
2959,-3.10,-3.40,-27.00,253.418,-325.684,880.371,-22.35,-9.75,-29.10,16.43
2969,-2.59,-2.19,-29.40,-65.430,-77.637,1229.004,-22.35,-9.75,-29.10,16.62
2979,-1.76,-3.38,-25.97,292.969,150.391,1023.926,-18.15,-8.55,-26.10,16.58
2989,-1.16,-5.27,-30.87,-5.371,-73.242,1889.160,-22.95,-7.95,-30.45,16.58
2999,-3.03,-0.34,-29.94,93.750,-108.887,1176.270,-22.95,-7.95,-30.45,16.91
3009,6.19,-4.63,-26.60,193.848,-99.121,1189.453,-17.85,-7.35,-26.55,16.72
3021,4.18,-4.44,-29.73,320.801,-422.363,693.359,-22.80,-9.30,-30.75,16.77
3031,-4.19,-1.19,-31.98,60.547,-266.113,926.758,-18.60,-10.95,-25.35,16.58
3041,-6.69,6.15,-30.15,127.441,191.406,596.191,-18.60,-7.65,-28.05,16.48
3051,4.53,-0.31,-27.95,408.203,-321.289,999.512,-18.60,-7.65,-28.05,16.58
3061,-1.76,1.25,-26.50,-47.852,-9.766,1254.883,-17.40,-8.55,-26.10,16.58
3071,2.62,3.37,-26.59,202.148,-186.035,1438.477,-19.65,-8.55,-30.30,16.72
3081,4.06,-3.97,-22.95,357.910,-318.359,1752.441,-20.25,-9.90,-29.70,16.77
3092,9.09,-1.69,-28.85,179.687,-370.117,944.824,-16.65,-8.10,-25.80,16.72
3102,-1.63,-1.69,-19.51,183.594,43.945,1105.469,-21.45,-6.75,-30.15,16.38
3112,0.89,-1.92,-23.45,183.594,-312.988,524.902,-21.00,-9.90,-27.90,16.48
3122,6.41,-3.91,-29.76,419.434,-458.496,1116.699,-17.10,-7.65,-26.55,16.62
3132,1.81,-3.19,-17.44,286.133,-504.883,1425.293,-17.10,-7.65,-26.55,16.77
3142,-5.08,-1.88,-26.79,133.789,31.738,379.395,-18.00,-9.90,-26.70,16.72
3152,2.37,6.29,-30.36,-4.395,-13.672,520.996,-18.60,-6.90,-28.05,16.48
3164,-1.82,6.54,-30.48,-166.504,152.344,1347.168,-21.90,-7.95,-30.15,16.58
3174,-6.60,2.98,-19.95,101.074,20.996,1322.266,-15.75,-8.25,-25.95,16.48
3184,-5.86,0.85,-24.73,266.113,-358.398,914.062,-15.75,-8.25,-25.95,16.58
3194,-11.37,2.02,-28.55,219.238,-65.430,551.758,-18.90,-8.55,-28.35,16.38
3204,-12.09,-0.03,-30.02,328.125,54.199,1005.859,-15.90,-6.45,-28.05,16.82
3214,-5.52,-0.18,-28.85,163.574,-99.609,1199.219,-15.90,-6.45,-28.05,16.72
3226,6.58,-6.11,-36.10,354.004,157.715,337.891,-19.50,-5.55,-30.15,16.72
3236,8.32,-14.66,-26.82,169.922,-298.340,1651.855,-17.25,-8.25,-28.20,16.77
3246,-1.28,-16.02,-27.44,-50.293,-76.660,1073.242,-16.50,-4.35,-28.65,16.82
3256,-4.11,-12.98,-27.68,20.508,141.113,1214.844,-16.50,-4.35,-28.65,16.62
3266,-6.39,-8.82,-25.92,256.348,-274.414,926.270,-15.30,-5.85,-24.90,16.43
3276,-10.31,-0.67,-25.22,-149.902,671.387,1484.863,-19.35,-4.05,-31.80,16.77
3286,-0.24,-1.21,-25.36,-83.008,29.785,1078.125,-19.35,-4.05,-31.80,16.62
3298,1.22,9.10,-28.00,243.652,-411.133,816.406,-16.20,-2.55,-28.05,16.77
3308,4.00,6.56,-32.89,113.770,-418.457,840.332,-20.10,-4.95,-30.30,16.77
3318,5.53,10.10,-20.59,207.031,-215.820,1141.602,-15.30,-5.55,-27.15,16.77
3328,5.53,9.04,-31.95,380.371,-782.227,500.000,-18.75,-3.45,-29.70,16.82
3338,-1.19,6.21,-21.08,-32.227,-260.254,1476.074,-18.75,-3.45,-29.70,16.62
3348,-1.34,3.92,-24.31,284.180,-427.734,1369.629,-15.30,-3.45,-27.90,16.43
3358,-5.24,9.32,-33.40,163.086,-89.844,740.234,-18.75,-6.30,-29.70,16.77
3370,2.41,3.40,-30.28,317.383,-262.207,405.762,-18.75,-6.30,-29.70,16.48
3380,4.28,-5.64,-27.20,-1.465,-343.750,1669.922,-18.75,-4.65,-30.90,16.77
3395,3.47,-6.39,-34.30,226.074,-257.324,430.664,-15.15,-8.10,-26.55,16.77
3404,3.12,-6.50,-28.99,114.258,-182.617,1388.672,-17.40,-3.30,-29.55,16.72
3414,2.56,-5.47,-26.40,-75.684,-273.437,1289.063,-15.90,-7.65,-26.55,16.29
3424,-1.44,-8.27,-31.27,253.418,231.445,600.098,-15.90,-7.65,-26.55,16.48
3434,7.89,-10.48,-28.98,445.312,-492.676,1596.191,-18.45,-6.75,-28.20,16.62
3444,5.78,-11.16,-27.64,53.223,-202.637,966.309,-14.70,-5.25,-26.85,16.77
3456,0.79,-1.69,-28.02,306.641,-117.188,820.312,-16.20,-5.70,-26.85,16.77
3466,-14.79,3.84,-26.33,-179.199,318.848,539.062,-16.80,-3.15,-30.15,16.82
3476,-12.07,3.11,-24.78,613.281,-35.645,1139.160,-14.70,-3.15,-30.15,16.58
3486,-16.15,6.40,-30.56,207.520,78.613,242.676,-16.65,-2.85,-27.60,16.58
3496,-11.27,2.74,-28.34,87.891,318.848,729.980,-16.65,-2.85,-27.60,16.58
3506,-1.48,6.51,-27.82,128.418,-147.461,821.289,-13.80,-3.15,-27.45,16.62
3518,7.39,5.94,-26.11,122.559,-530.762,795.410,-17.10,-5.70,-28.80,16.62
3528,12.47,2.75,-24.21,531.738,-1039.551,1288.086,-14.55,-3.15,-27.15,16.62
3538,15.66,-1.23,-26.52,368.164,-712.891,1484.375,-15.75,-5.85,-28.95,16.77
3548,1.89,-1.50,-31.43,-158.691,-162.598,1999.939,-12.75,-4.05,-25.05,16.72
3558,-10.25,6.13,-33.25,239.746,-340.332,191.895,-18.15,-5.25,-29.55,16.62
3568,-0.82,1.95,-27.60,737.793,-536.621,25.879,-13.35,-5.55,-25.20,16.62
3578,0.03,-14.60,-24.57,317.383,-619.141,1861.328,-13.35,-5.55,-25.20,16.77
3590,1.82,-7.82,-31.18,535.645,20.996,736.328,-14.55,-6.75,-24.90,16.62
3600,10.15,-7.99,-27.21,167.480,-497.070,1878.418,-16.65,-1.65,-28.35,16.43
3610,2.60,-3.05,-35.01,323.730,-311.035,1914.551,-13.80,-5.85,-27.15,16.72
3620,8.41,-2.12,-27.72,-190.918,-265.137,866.211,-16.05,-1.50,-27.90,16.62
3630,0.26,8.79,-32.02,-88.379,-21.484,1086.426,-16.05,-1.50,-27.90,16.72
3640,-1.27,0.41,-24.76,159.180,-353.027,1021.484,-15.15,-1.35,-27.60,16.77
3650,-2.28,9.69,-32.08,457.520,-244.629,454.590,-15.15,-7.35,-28.35,16.82
3661,3.56,4.89,-33.41,359.375,-596.680,872.070,-15.15,-7.35,-28.35,16.72
3671,6.76,6.90,-43.12,233.887,-548.828,695.801,-16.50,-5.85,-29.70,16.43
3681,5.54,9.02,-26.89,466.797,-401.855,1276.367,-13.20,-3.30,-26.85,16.72
3691,0.24,-1.88,-33.29,-57.129,-116.699,1234.375,-16.20,-5.25,-31.05,17.01
3701,-1.89,0.23,-31.19,-221.191,-20.020,606.445,-12.45,-2.55,-27.30,16.82
3711,-3.02,1.02,-31.15,47.363,-487.793,307.129,-12.45,-2.55,-27.30,16.62
3721,-2.66,-8.03,-32.06,171.875,-595.703,930.664,-11.85,-3.45,-27.45,16.62
3733,-9.50,-2.65,-37.51,661.621,-571.289,664.551,-14.55,-1.95,-29.40,16.77
3743,4.79,-6.81,-26.80,555.176,-888.672,1583.984,-14.55,-1.95,-29.40,16.77
3753,-7.63,-7.56,-28.41,75.684,-446.777,1958.496,-14.10,-3.90,-29.40,16.38
3763,-13.54,-2.96,-40.44,-52.246,-253.418,1197.754,-12.45,-4.95,-25.80,16.82
3773,-15.68,-1.33,-37.76,-2.930,-183.594,502.441,-15.15,-2.10,-29.55,16.72
3783,-7.85,1.60,-36.25,209.473,-297.852,-388.672,-11.70,-4.50,-25.80,16.62
3795,1.85,1.02,-35.08,-187.012,139.160,735.352,-11.70,-4.50,-25.80,16.77
3805,5.55,-6.63,-46.43,91.797,-174.316,568.359,-12.00,-2.55,-25.80,16.77
3815,-4.80,-2.60,-31.01,-12.695,-259.766,506.348,-15.30,-2.70,-27.90,16.72
3825,-12.18,-5.87,-43.81,41.016,434.082,1032.227,-15.30,-2.70,-27.90,16.43
3835,1.74,-9.70,-34.60,121.094,-312.988,1364.746,-15.15,-2.55,-29.10,16.58
3845,-10.63,-9.55,-38.09,-7.324,-477.539,948.730,-10.65,-3.15,-26.40,16.62
3855,-4.95,-6.26,-34.13,425.293,-1288.086,1191.895,-14.10,-3.15,-30.45,16.72
3867,-20.28,1.63,-31.44,-367.676,627.930,922.852,-10.50,-2.10,-27.30,16.82
3877,-10.31,-2.59,-31.01,8.301,256.836,1319.824,-11.10,-0.30,-27.45,16.72
3887,-1.37,-1.34,-36.96,32.715,-25.879,1184.570,-13.95,-4.05,-29.10,16.77
3897,-0.63,0.31,-42.49,-29.785,-543.457,1089.355,-13.95,-4.05,-29.10,16.72
3912,8.56,3.79,-30.17,372.559,-541.016,902.344,-14.40,-3.75,-29.10,16.77
3921,3.80,5.47,-19.22,45.898,85.449,1134.277,-12.45,0.45,-28.35,16.77
3933,2.27,2.76,-40.44,209.961,-935.547,685.059,-11.70,-3.30,-28.05,16.77
3943,4.14,-0.85,-37.88,174.316,-334.473,1009.277,-11.10,-0.75,-28.65,16.77
3953,7.79,-1.44,-38.26,-111.816,60.547,1390.625,-11.10,-0.75,-28.65,16.77
3963,-4.06,-3.75,-35.01,-171.875,103.516,1316.406,-11.40,-0.30,-28.65,16.58
3973,-4.82,-16.88,-36.20,138.672,-395.020,1525.879,-10.65,-5.10,-27.45,16.77
3983,-4.98,4.53,-39.02,150.391,-255.371,392.578,-14.10,0.00,-30.45,16.48
3993,-21.41,7.21,-34.28,203.125,-444.336,1038.086,-11.10,-1.95,-27.45,16.77
4005,-21.51,4.83,-34.80,-381.348,290.039,1358.398,-12.00,-0.90,-29.10,16.62
4015,-11.01,-0.88,-45.67,-4.883,-673.340,496.094,-10.95,-0.45,-27.60,16.82
4025,-4.24,3.07,-41.74,-47.363,-384.277,1175.293,-11.85,-1.95,-28.65,16.91
4035,2.13,0.92,-40.21,244.629,-374.023,1002.930,-11.85,-1.95,-28.65,16.91
4045,9.49,7.63,-24.34,507.324,-158.203,1211.914,-8.40,-2.25,-27.90,16.62
4055,4.46,3.31,-42.18,346.191,-720.703,938.965,-11.70,0.45,-32.25,16.77
4064,-8.08,-1.85,-41.50,480.469,-281.250,1014.648,-7.80,-1.65,-28.80,16.62
4076,-7.91,1.83,-38.54,38.574,-362.305,875.488,-10.35,-0.30,-31.20,16.58
4086,-7.53,-4.18,-44.57,389.160,-362.305,1403.809,-10.35,-0.30,-31.20,16.91
4096,13.31,2.86,-41.15,401.855,-781.738,714.844,-9.75,-0.15,-31.05,16.82
4106,0.45,0.22,-38.85,-122.559,-23.926,1123.535,-7.35,1.35,-29.55,16.77
4116,4.96,-4.80,-38.29,197.266,-655.273,815.918,-7.35,1.35,-29.55,16.77
4126,8.29,6.69,-38.08,140.625,-612.793,803.223,-9.75,1.65,-30.75,16.72
4135,7.37,-4.92,-32.09,68.848,-736.328,1421.387,-7.95,-1.95,-30.45,16.77
4147,11.05,-1.95,-49.41,-52.734,-680.176,921.875,-7.20,-1.95,-28.95,16.62
4157,-4.21,2.34,-35.27,-299.805,259.277,1156.250,-7.20,-1.95,-28.95,16.72
4167,3.75,2.07,-32.40,183.105,-278.320,1083.008,-7.20,-1.95,-28.95,16.77
4177,18.50,-0.12,-41.27,305.176,-1062.500,1354.492,-7.80,0.45,-31.05,16.77
4187,4.25,8.73,-37.67,64.941,-402.344,1224.609,-7.80,0.45,-31.05,16.62
4197,-9.50,6.96,-38.93,-247.070,-231.934,635.254,-7.80,0.45,-31.05,16.82
4207,4.74,3.57,-46.97,-106.445,-342.773,407.227,-5.85,2.55,-31.80,16.43
4218,-4.32,0.93,-45.37,208.008,-291.016,517.578,-6.30,1.65,-31.50,16.72
4228,3.01,6.82,4.40,166.992,-433.594,1182.617,-6.15,1.50,-31.95,16.82
4237,5.37,4.08,-39.68,-95.703,-485.840,849.609,-6.15,1.50,-31.95,16.77
4247,22.47,5.21,5.27,-237.305,-843.750,704.102,-6.15,1.50,-31.95,16.77
4256,-4.89,2.74,-41.22,-222.656,-641.602,857.422,-6.15,1.05,-30.45,16.43
4266,-10.55,-3.91,-42.00,38.574,-629.883,1167.969,-7.05,3.30,-32.25,16.58
4276,-8.13,4.66,-44.27,-253.418,108.398,801.758,-7.05,3.30,-32.25,16.62
4288,-7.98,0.47,-39.11,-536.133,-21.973,1113.281,-6.15,1.95,-31.65,16.82
4298,3.55,3.53,-39.23,229.492,-368.164,597.168,-6.30,3.75,-31.80,16.77
4307,-1.33,0.81,-40.39,-174.805,-49.805,808.594,-6.30,3.75,-31.80,16.72
4317,5.83,-0.15,-40.40,-2.441,-173.828,1145.996,-5.70,2.25,-32.40,16.58
4327,11.92,2.27,-39.11,-142.090,-830.078,1427.734,-5.70,2.25,-32.40,16.77
4337,8.63,-0.35,-39.79,-394.043,-510.254,1654.297,-3.90,3.15,-32.40,16.91
4347,17.40,-7.38,-39.28,50.293,-857.422,1220.215,-3.90,1.35,-33.30,16.72
4359,2.44,-3.23,-38.65,1.953,-673.828,1264.160,-3.75,0.75,-33.90,16.72
4369,1.63,-8.89,-42.00,-222.656,-651.855,1274.414,-3.45,1.05,-33.45,16.72
4379,-6.23,-5.36,-39.74,-219.727,-493.652,1045.898,-4.20,2.70,-32.70,16.77
4389,2.34,-6.58,-37.51,-110.840,-588.379,909.180,-3.00,1.95,-33.15,16.77
4399,3.52,-0.79,-36.10,-150.879,-730.469,1496.094,-3.00,1.95,-33.15,16.62
4409,5.76,-0.89,-22.21,-175.781,-104.492,617.676,-3.90,0.90,-33.75,16.77
4425,2.37,6.02,-37.31,-206.543,248.535,1016.113,-2.40,1.65,-33.30,16.77
4435,6.65,-3.44,-34.57,-448.242,-40.039,1220.215,-3.00,1.95,-33.45,16.91
4445,-2.92,0.35,-39.98,-258.789,51.270,1083.008,-2.40,1.65,-33.00,16.77
4455,-6.86,1.09,-38.89,-127.441,-309.082,884.277,-2.40,1.65,-33.00,16.91
4465,-8.02,-4.66,-33.33,-58.105,-341.309,804.199,-3.00,2.70,-33.45,16.62
4475,-6.95,-1.34,-33.73,-215.332,-6.348,958.008,-3.00,2.25,-34.20,16.38
4485,0.27,-7.01,-40.25,15.625,-386.230,1027.344,-3.00,2.25,-34.20,16.72
4497,2.11,-15.04,-40.73,-273.926,-174.316,1030.762,-2.25,1.95,-34.20,16.72
4507,2.58,-10.11,-32.82,-154.785,-457.520,1161.621,0.15,1.35,-35.25,16.82
4517,1.44,-11.32,-44.02,-146.484,-663.574,1398.926,0.30,2.25,-34.95,16.77
4527,-1.65,-8.15,-38.45,-115.234,-449.219,770.996,0.30,0.75,-34.65,16.72
4537,-1.48,-8.13,-35.85,137.207,-643.555,955.566,0.30,0.75,-34.65,16.72
4547,-5.52,-6.68,-35.15,-121.094,-462.402,364.258,0.90,2.85,-34.05,16.43
4557,-5.29,-0.69,-32.19,14.648,189.941,794.434,0.75,1.05,-32.40,16.91
4569,1.77,2.60,-36.85,-193.848,-200.684,768.555,0.15,2.10,-33.00,16.58
4579,14.06,4.52,-30.02,-32.715,-582.520,950.195,0.00,1.95,-33.15,16.43
4589,8.11,3.50,-43.68,26.367,-220.215,1458.496,0.30,2.25,-32.40,16.91
4598,10.41,1.51,-44.27,6.836,-1064.453,908.691,0.00,1.05,-31.95,16.77
4608,23.97,9.62,-111.38,10.742,-517.578,526.367,0.00,1.05,-31.95,16.58
4617,16.60,-7.29,195.06,5.859,-787.598,1112.793,0.00,1.05,-31.95,16.62
4627,-5.66,-5.30,-16.17,-286.133,-253.906,1315.918,-0.15,1.65,-33.00,16.82
4639,1.66,-1.27,-32.03,62.500,-65.430,887.695,1.80,1.50,-32.70,16.72
4649,5.28,-4.43,-15.94,-169.434,-298.828,1220.703,-0.30,1.05,-32.40,16.96
4659,2.75,2.97,-28.08,-373.047,88.867,1120.605,0.90,3.30,-32.25,16.77
4668,14.46,3.49,-37.89,-212.891,-729.004,923.828,0.90,3.30,-32.25,16.82
4678,11.44,5.46,-34.92,-294.434,-575.684,980.469,0.15,2.55,-32.55,16.43
4687,6.36,13.21,-37.25,-315.430,-94.238,852.539,0.15,2.55,-32.55,16.72
4697,-4.31,3.21,-39.60,-150.391,-438.477,706.543,0.15,2.55,-32.55,16.96
4707,-14.77,0.56,-38.07,-262.695,85.449,738.281,0.75,3.90,-31.95,16.91
4718,-20.31,11.30,-29.37,-96.680,-38.086,1479.492,-0.30,2.70,-33.45,16.91
4728,-15.55,-2.98,-30.93,-435.059,175.293,1543.457,1.80,2.70,-31.95,16.72
4738,-10.48,7.32,-34.21,-120.605,-213.379,1089.844,1.50,3.45,-33.15,16.48
4748,-8.16,8.25,-35.30,32.715,63.965,891.113,1.50,3.45,-33.15,17.10
4757,-29.38,-2.37,-121.85,68.848,255.859,1016.602,1.50,2.25,-31.95,16.58
4767,-7.97,-8.09,-8.18,215.332,-37.109,557.129,2.55,1.95,-32.70,16.77
4777,-10.39,-2.14,-34.89,104.004,-532.715,723.633,2.55,1.95,-32.70,16.62
4789,-10.82,-0.36,-39.60,-61.523,-680.176,920.410,3.75,2.70,-32.40,16.62
4799,-5.77,7.02,-30.92,52.246,496.582,1241.699,1.65,2.10,-32.25,16.62
4808,-7.38,-1.70,-37.55,-293.945,-143.555,1203.613,1.65,2.10,-32.25,16.91
4818,-10.15,-4.84,-31.46,-195.312,417.969,979.492,4.50,1.05,-33.15,16.58
4828,-5.30,-15.74,-28.91,46.875,-7.812,1634.277,4.50,1.05,-33.15,16.77
4838,8.16,-10.16,-34.60,209.961,-189.453,596.680,2.55,1.05,-31.65,16.72
4847,14.24,-25.05,-36.64,122.559,7.812,630.859,2.55,1.05,-31.95,16.91
4859,16.71,-16.82,-30.31,-37.598,-528.809,1059.082,2.55,1.50,-31.20,16.58
4869,12.47,-10.55,-21.93,-56.641,-566.406,1831.055,2.40,2.55,-31.50,16.77
4879,-5.23,-0.71,-16.98,-49.805,-532.715,1397.949,2.85,3.30,-32.25,16.82
4889,-7.09,-10.61,-32.08,-178.711,-20.020,218.750,5.70,3.15,-32.70,16.91
4899,2.76,-12.92,-23.05,-109.863,-936.035,1141.602,5.70,3.15,-32.70,16.82
4909,3.60,-10.03,-27.31,-20.508,-390.625,918.457,3.75,1.50,-33.15,16.96
4921,3.66,-13.04,-22.96,-35.156,-620.605,1192.383,2.25,1.50,-33.90,16.82
4936,8.96,-46.41,-65.95,-565.918,-534.668,1125.977,2.25,1.50,-33.90,16.62
4945,6.62,-9.40,-30.05,-134.766,-130.859,185.059,2.40,1.65,-31.80,16.77
4955,4.78,-27.30,-30.87,251.465,-529.297,1032.227,1.65,2.55,-32.55,16.82
4964,-10.73,-23.79,-33.24,-83.984,-857.910,1042.480,1.80,1.95,-33.45,16.72
4974,-17.73,-24.31,-18.34,-183.105,-755.859,1273.926,2.85,2.55,-33.30,16.77
4984,-15.93,-21.42,-36.39,-22.949,-235.840,438.965,2.85,2.55,-33.30,16.77
4994,-24.62,-14.61,-40.63,-239.258,186.035,1824.219,3.15,0.90,-33.30,16.77
5006,-7.99,-16.31,-37.11,70.801,-451.660,667.480,2.55,2.25,-33.15,16.82
5016,-4.86,-11.82,-40.02,-192.871,-393.066,1483.398,2.55,2.25,-33.15,16.72
5026,-8.48,-13.36,-37.56,-270.508,-422.363,895.508,3.15,1.65,-33.00,16.82
5036,-6.27,-12.20,-35.04,-248.047,-44.434,586.914,1.50,1.05,-32.40,16.91
5046,-3.67,-5.98,-29.82,-650.879,-65.430,1390.137,3.15,0.90,-32.55,16.91
5056,2.35,2.52,-41.60,-494.629,129.883,1821.777,2.85,0.45,-32.25,16.58
5065,12.66,16.34,-37.60,1.953,-327.148,1677.734,2.85,0.45,-32.25,16.96
5077,-7.23,15.84,-31.78,-41.504,-124.023,672.852,3.00,0.30,-33.90,16.91
5087,-2.49,19.24,-18.39,-70.801,-196.289,499.512,4.20,1.95,-33.45,16.82
5097,4.01,19.46,-27.94,54.199,58.594,493.652,4.20,1.95,-33.45,16.96
5106,-9.66,17.85,-27.56,-51.758,-138.672,1070.313,3.75,1.95,-34.20,16.77
5116,-1.52,4.91,-35.47,-258.789,45.898,1999.939,4.95,2.25,-33.15,16.72
5125,-6.87,8.78,-34.42,-178.223,-131.348,663.574,3.90,2.10,-33.75,16.91
5135,2.40,14.63,-31.15,197.266,-25.879,385.254,3.45,0.75,-35.70,16.82
5147,10.63,9.32,-38.27,-367.676,47.363,944.336,3.45,0.75,-35.70,16.91
5156,24.75,9.49,-10.55,161.133,-195.312,859.375,4.95,1.50,-34.65,16.72
5166,11.24,-2.63,-26.44,163.574,-498.047,1013.672,4.35,1.65,-34.05,16.82
5175,-10.69,11.31,-26.37,-92.773,-357.422,406.738,5.70,2.70,-34.65,16.72
5185,-19.43,-1.05,-31.76,-146.973,-149.414,823.730,5.55,1.35,-33.75,16.82
5195,-14.18,9.53,-28.62,158.203,201.660,559.082,5.25,3.15,-34.20,16.77
5205,-0.13,8.39,-19.89,378.906,-6.348,455.566,6.45,1.95,-33.15,16.62
5217,2.09,10.09,-25.17,-90.332,-135.254,1031.738,6.60,2.55,-34.50,16.72
5227,8.44,-10.47,-31.47,-136.719,-453.125,372.070,6.60,2.55,-34.50,16.77
5237,1.79,-0.15,-11.02,20.508,-577.637,973.145,6.45,2.25,-34.20,16.43
5246,-0.58,1.80,-36.90,-269.531,-166.992,1535.645,6.30,2.85,-34.50,16.82
5256,-1.50,-4.39,-27.14,-205.566,-416.016,973.145,6.60,2.10,-35.25,16.82
5266,-6.82,4.31,-29.73,-169.922,48.340,487.793,6.60,0.45,-34.05,16.62
5276,-3.04,1.72,-36.29,-107.422,-259.766,531.738,6.60,0.45,-34.05,16.72
5288,4.21,11.07,-25.12,-93.750,-452.148,489.258,7.65,1.05,-33.90,16.72
5298,-0.30,5.56,-23.66,-22.461,-372.070,610.840,6.90,2.25,-35.70,16.62
5308,2.79,-3.13,-31.85,42.969,-576.172,1224.121,6.90,2.25,-35.70,16.58
5317,1.27,-6.34,-26.14,-170.410,-362.793,1230.957,6.90,3.15,-34.65,16.62
5327,1.95,3.18,-37.85,-283.691,-253.906,994.629,6.45,1.50,-33.90,16.82
5336,-1.17,-1.60,-34.91,51.758,-689.941,857.910,6.90,1.50,-34.20,16.82
5346,-1.98,2.70,-31.15,-55.176,-476.562,993.652,7.35,2.10,-35.25,16.43
5356,0.47,-2.35,-30.60,-118.164,-112.793,850.586,7.35,2.10,-35.25,16.82
5367,-1.85,-5.94,-34.95,-204.590,-323.730,1899.414,6.90,1.05,-34.20,16.72
5377,1.39,2.53,-33.00,-294.922,-86.914,1306.152,8.25,1.65,-34.05,16.82
5386,3.24,3.00,-33.63,84.961,-563.965,394.043,8.25,1.65,-34.05,16.82
5396,1.60,4.89,-33.42,-179.199,-229.980,927.734,8.25,2.10,-34.50,16.58
5405,-1.96,1.76,-25.71,-27.832,-392.578,1382.324,7.80,0.90,-35.55,16.77
5415,-5.35,6.22,-32.45,-64.453,-369.141,616.699,8.55,1.65,-34.05,16.72
5425,1.25,4.62,-31.57,88.867,-393.555,549.805,8.55,0.90,-33.75,17.10
5442,-5.11,-2.99,-35.74,-85.449,-545.410,1444.336,8.25,0.90,-34.05,16.58
5451,2.31,0.92,-26.85,-306.641,-65.430,1228.027,8.55,3.75,-33.75,16.91
5461,1.25,-1.92,-35.49,0.977,-643.555,1608.887,8.55,3.75,-33.75,16.77
5470,-5.72,5.63,-29.69,15.137,-352.051,573.242,10.95,0.90,-34.05,16.82
5480,8.72,-5.95,-31.97,215.820,-807.617,1065.430,9.00,0.90,-34.05,16.77
5489,-3.05,-3.82,-35.18,-409.668,43.457,1328.613,9.00,0.90,-34.05,16.91
5501,6.57,-3.57,-36.27,-50.293,-541.016,1875.000,9.00,2.10,-33.75,16.77
5511,-2.67,1.90,-43.92,-357.910,-179.687,1602.051,9.00,2.10,-33.75,16.82
5521,3.18,7.27,-35.79,62.988,-240.723,219.238,9.90,0.75,-34.95,16.58
5531,-1.24,1.53,-41.48,88.867,-550.293,569.824,9.15,1.50,-34.65,16.77
5540,-2.60,-1.67,-35.15,-374.512,-207.031,1401.367,9.15,1.50,-34.65,16.77
5550,5.91,1.28,-35.47,187.012,-23.437,970.703,11.10,0.00,-32.70,16.72
5559,-3.59,5.67,-32.82,-184.570,-274.414,846.680,11.10,0.00,-32.70,16.48
5571,-2.83,2.95,-35.37,106.934,-393.555,1575.684,11.10,0.30,-34.20,16.58
5581,-7.65,6.25,-37.34,217.285,-194.336,430.176,10.95,1.65,-34.05,16.43
5591,9.67,-2.85,-40.36,107.422,-149.902,1263.184,10.95,1.65,-34.05,16.82
5601,8.75,-2.18,-30.90,-84.473,-451.660,1510.742,10.05,1.35,-34.50,16.91
5611,3.05,-4.83,-34.14,-203.125,-144.043,1529.297,12.30,-0.75,-33.45,16.77
5621,1.25,4.24,-34.35,-102.051,-267.090,627.930,11.85,1.05,-34.95,16.77
5630,0.84,-1.34,-37.20,27.344,-556.641,985.352,12.45,0.15,-34.50,16.91
5642,-4.24,-3.73,-34.30,-8.789,-541.016,153.809,10.65,0.75,-34.95,16.72
5652,-1.10,-6.73,-36.25,199.707,-687.012,768.066,10.95,-0.15,-34.05,16.62
5662,-0.31,-1.12,-34.00,-147.461,162.598,454.102,13.20,0.90,-34.50,16.62
5672,6.01,-7.30,-41.92,-283.691,-1012.207,1999.939,13.20,0.90,-34.50,16.77
5682,-9.89,-3.92,-47.73,-47.363,-422.852,958.496,12.00,0.90,-34.50,16.82
5692,-4.45,4.48,-31.35,-83.008,-544.922,869.629,11.70,-0.45,-33.00,16.77
5702,-3.57,-0.34,-34.29,-18.066,-40.039,1297.363,12.60,0.00,-34.20,16.77
5714,3.52,-2.76,-32.89,-31.738,-201.660,271.484,13.05,-0.75,-33.45,16.77
5724,2.01,-0.51,-37.46,439.453,-633.301,854.492,13.05,-0.75,-33.45,16.43
5734,-5.47,-3.63,-49.44,147.949,-312.012,1813.965,13.20,-1.35,-34.50,16.62
5744,0.98,-2.95,-32.16,-286.133,280.762,1345.215,12.45,0.15,-35.25,16.77
5753,1.31,-11.40,-22.82,138.672,-954.102,942.871,12.45,0.15,-35.25,16.82
5763,-0.17,-4.30,-40.31,37.598,-514.160,1010.254,13.80,-1.05,-33.90,16.72
5773,-8.82,-5.21,-34.94,-241.211,-450.195,1999.939,13.80,-1.50,-34.95,16.58
5785,0.28,-2.59,-36.76,214.844,-260.742,1633.789,13.50,-1.65,-34.80,16.91
5795,-0.61,-0.21,-40.47,-501.465,-241.211,1813.965,15.30,-1.05,-34.65,16.38
5805,4.67,-3.87,-42.06,-169.922,-146.973,1279.297,15.30,-1.05,-34.65,16.77
5815,1.40,9.58,-35.21,-217.773,-525.879,416.504,13.95,-0.45,-34.80,16.77
5825,-6.96,7.61,-40.73,-64.453,-540.039,498.535,16.65,-0.15,-34.05,16.82
5835,2.22,7.26,-38.79,-37.598,-432.617,634.277,16.65,-0.15,-34.05,16.77
5849,-6.13,5.84,-40.66,-90.332,-837.402,940.430,15.15,-0.90,-34.05,16.96
5858,-2.11,2.00,-39.64,-1.465,-123.535,386.230,14.55,-2.25,-34.65,16.96
5868,6.24,-2.60,-38.85,-128.418,-405.273,1330.566,14.40,-0.90,-35.25,16.91
5878,-1.63,-3.15,-36.18,-395.508,133.301,1556.641,15.75,-1.95,-35.70,16.62
5888,3.56,4.00,-43.44,-84.961,-265.625,1169.922,15.75,-1.95,-35.70,16.77
5898,-1.53,2.07,-37.70,310.059,-517.090,465.332,15.75,-0.75,-37.35,16.72
5908,-3.91,3.67,-40.35,7.812,-478.027,1043.457,15.45,-0.90,-34.80,16.91
5919,-1.89,-4.76,-41.63,-171.875,-399.902,861.816,14.85,-1.95,-35.70,16.82
5929,3.36,-11.05,-44.50,-101.074,-241.211,1260.742,15.15,-2.55,-35.25,16.82
5939,16.82,-12.01,-35.31,-239.258,-54.688,1860.352,16.20,-0.90,-36.30,16.62
5961,-12.01,4.16,-39.55,-135.254,-486.328,1706.543,16.50,-1.05,-34.65,16.38
5970,-11.81,-4.54,-43.87,219.727,-437.012,746.582,16.50,-1.05,-34.65,16.38
5980,2.50,1.38,-44.23,261.230,-373.535,1120.117,14.70,-3.30,-35.25,16.77
5989,1.69,4.87,-47.37,102.051,343.262,1396.973,14.70,-3.30,-35.25,16.91
6001,3.66,-3.25,-38.76,-62.988,117.188,1359.863,16.05,-3.45,-34.95,16.82
6011,10.15,3.35,-45.59,-212.891,-417.480,930.664,16.05,-3.45,-34.95,16.91
6021,-0.27,4.76,-39.30,361.816,-511.230,497.559,16.65,-3.75,-35.25,16.77
6031,-12.83,-2.53,-41.68,72.266,-103.516,820.801,17.10,-2.55,-34.80,16.91
6041,-1.38,-2.17,-43.40,-27.344,-141.113,808.105,17.10,-2.55,-34.80,16.43
6051,-2.40,-8.85,-35.04,-286.133,32.715,1791.016,18.45,-2.25,-35.40,16.91
6061,2.89,-3.28,-41.53,-276.367,-262.207,791.992,16.20,-3.75,-36.30,16.82
6073,1.34,-3.36,-39.05,-344.238,-728.027,1458.008,17.85,-2.10,-34.80,16.72
6083,-4.76,3.13,-43.80,-184.570,-225.586,297.363,18.00,-3.90,-36.60,16.91
6093,-3.51,3.76,-34.66,-193.359,-707.031,-79.590,18.00,-3.90,-36.60,16.77
6103,-6.89,1.36,-37.54,57.617,-695.312,454.102,17.10,-3.75,-35.55,16.72
6113,-1.20,-2.68,-38.77,-253.418,-493.164,956.055,18.90,-4.95,-35.55,16.82
6123,-5.00,3.83,-31.40,-90.820,-192.871,1863.770,18.90,-4.95,-35.55,16.72
6133,1.99,4.06,-43.57,-75.195,-377.441,1093.750,16.80,-5.10,-34.65,16.82
6145,-0.92,2.45,-38.81,-88.867,69.824,1083.008,17.55,-3.90,-36.15,16.82
6155,-7.02,4.56,-44.28,-150.879,102.051,392.578,18.15,-5.70,-34.50,16.82
6165,2.34,5.39,-38.89,144.043,-309.082,570.312,17.55,-3.90,-36.15,16.91
6175,-1.00,5.21,-34.26,97.168,-531.738,752.441,17.55,-3.90,-36.15,16.77
6185,-7.05,-0.33,-34.76,232.910,-475.586,695.312,18.75,-4.35,-37.35,16.91
6195,-4.05,0.31,-43.16,77.148,-106.445,1396.484,20.25,-5.55,-34.95,16.48
6205,3.85,0.61,-45.85,-166.992,-102.051,1493.652,20.25,-5.55,-34.95,16.38
6217,0.69,1.24,-43.18,39.063,-197.754,1434.082,19.65,-6.90,-34.80,16.62
6227,0.62,2.57,-45.92,38.086,-407.715,1246.094,19.50,-4.65,-36.90,16.62
6236,-8.60,2.93,-39.15,108.398,-214.844,692.383,19.50,-7.05,-35.40,16.62
6246,-4.42,-1.27,-43.73,157.227,-167.969,751.465,20.10,-5.25,-37.80,16.77
6256,4.14,-5.76,-42.47,-5.371,-480.469,1368.164,20.10,-5.25,-37.80,16.77
6266,3.02,-9.02,-40.99,188.477,-465.820,1632.813,18.75,-5.55,-37.35,16.72
6278,4.97,-4.02,-43.70,410.156,-970.703,1101.074,19.65,-6.45,-35.25,16.91
6288,4.02,-4.40,-39.95,234.375,-866.699,1050.781,18.90,-5.25,-37.50,16.58
6298,-17.87,-1.12,-34.07,-292.969,-255.371,1409.180,20.10,-7.35,-35.55,16.77
6308,-10.95,-1.10,-45.53,-9.766,-194.336,895.508,19.95,-6.30,-36.60,16.96
6318,-7.76,-2.07,-37.37,-133.789,-57.129,171.387,19.95,-7.50,-35.40,16.82
6328,-8.93,-2.65,-40.24,236.328,-118.652,491.699,19.50,-6.75,-36.60,16.96
6338,-4.89,-7.15,-38.53,352.539,-513.672,571.777,19.50,-6.75,-36.60,16.91
6350,-0.92,0.99,-37.79,-132.324,-77.148,940.918,20.70,-6.30,-36.90,16.77
6360,1.05,2.45,-41.50,-49.316,197.754,988.770,21.00,-9.45,-35.70,16.91
6370,7.36,-4.09,-39.98,5.859,171.387,1159.668,20.70,-6.75,-36.15,16.43
6379,9.10,0.55,-36.50,215.332,-933.105,844.727,21.45,-8.25,-34.65,16.82
6389,-8.13,0.68,-35.24,-303.223,-459.961,758.789,21.45,-8.25,-34.65,16.91
6399,-2.74,3.67,-40.84,208.008,-651.855,1073.242,21.30,-9.75,-35.25,16.96
6409,-2.00,-0.05,-35.11,-187.500,-110.352,1391.602,19.95,-6.30,-36.60,16.91
6421,3.37,2.85,-41.42,76.172,-305.176,628.906,21.00,-7.05,-35.40,16.72
6431,10.85,-1.89,-39.21,240.723,-685.059,1175.781,22.05,-8.55,-34.50,16.77
6441,6.31,-2.35,-32.56,328.125,-997.070,1617.188,22.05,-8.55,-34.50,16.48
6451,10.86,-4.69,-39.76,99.121,-821.777,507.812,20.85,-9.30,-34.05,16.62
6461,13.48,1.69,-38.40,-11.719,-1113.770,1447.754,20.85,-9.30,-34.05,16.82
6477,0.02,-1.48,-35.70,66.406,-178.711,861.816,22.20,-11.10,-34.65,16.77
6486,6.53,-7.88,-40.50,421.875,-477.051,957.520,20.85,-8.10,-37.05,16.82
6497,1.54,0.69,-42.81,-52.734,-242.187,741.211,20.85,-8.10,-37.05,16.91
6507,6.73,1.80,-39.74,-22.949,-42.480,467.285,19.95,-9.15,-36.60,16.96
6517,1.62,2.99,-34.79,-20.020,223.633,700.195,21.45,-9.90,-34.65,16.96
6526,5.08,-1.13,-32.31,58.105,-528.320,788.086,21.45,-9.90,-36.90,16.77
6536,-0.88,14.15,-40.81,-298.828,-394.043,479.004,22.80,-8.85,-34.50,16.91
6546,1.76,13.82,-32.37,331.543,-432.129,884.277,22.80,-8.85,-34.50,16.72
6555,4.53,10.82,-39.42,336.426,-539.062,936.523,22.80,-8.55,-35.25,16.77
6567,-1.36,9.28,-40.07,394.531,-650.391,418.945,20.25,-10.65,-36.90,16.62
6577,0.82,8.45,-38.48,158.691,-553.711,948.242,23.25,-9.30,-34.05,16.72
6587,2.95,5.32,-35.27,57.617,-664.551,1071.777,22.35,-11.70,-37.05,16.62
6596,0.33,-0.35,-32.31,102.539,-515.137,1350.586,23.40,-10.65,-37.35,17.10
6606,0.18,-1.56,-40.60,5.859,-615.234,1370.117,22.20,-12.30,-36.90,16.96
6616,-2.26,-1.22,-36.19,71.777,-181.152,1734.375,23.25,-8.55,-37.80,16.58
6626,4.27,-3.75,-38.05,188.477,-341.309,1238.770,23.25,-8.55,-37.80,16.77
6638,5.28,2.02,-41.18,-15.137,-364.258,1262.695,22.65,-10.35,-36.90,16.77
6648,-0.63,1.92,-37.04,105.469,-217.285,967.773,22.35,-13.20,-35.55,16.82
6658,-2.91,2.10,-36.29,197.266,-602.539,1104.492,22.05,-11.25,-36.75,16.82
6668,-1.92,1.45,-39.73,43.945,-875.000,977.051,24.00,-12.45,-35.55,16.72
6678,-4.03,5.52,-30.88,22.949,-187.500,1082.520,24.00,-12.45,-35.55,16.72
6688,7.02,7.29,-24.05,-3.906,-235.352,998.535,23.55,-12.90,-36.30,16.82
6698,-1.67,13.98,-36.54,69.824,-162.598,1154.785,22.05,-10.95,-38.25,16.82
6710,-3.29,11.83,-36.28,-128.906,-128.418,1049.316,22.05,-10.95,-38.25,16.72
6720,-7.82,9.64,-37.42,234.375,-449.219,438.477,23.40,-11.85,-38.10,16.58
6730,-9.02,4.76,-30.79,-200.195,-711.426,778.320,26.10,-12.30,-36.60,16.82
6740,1.07,2.56,-39.01,-246.582,-850.098,791.504,22.95,-13.05,-37.35,16.77
6750,-8.31,-4.73,-58.78,55.664,208.984,881.836,24.15,-10.35,-37.65,16.62
6760,7.88,-9.24,-45.32,234.863,-814.453,931.641,24.15,-10.35,-37.65,16.77
6770,8.86,-6.68,-54.52,78.125,-464.355,1264.648,22.95,-13.50,-36.60,16.77
6782,0.06,-2.80,-48.08,320.801,-199.707,668.945,24.90,-12.30,-36.90,17.10
6792,1.72,-10.17,-45.34,240.234,-886.230,1615.723,23.55,-13.20,-38.55,17.01
6802,5.78,-5.95,-47.66,731.934,-415.527,586.426,25.65,-13.05,-36.90,16.38
6812,-10.96,-5.68,-60.67,-28.320,-384.766,1036.133,23.40,-15.45,-36.60,16.91
6822,5.40,-7.82,-37.66,-16.602,-459.961,615.234,24.90,-11.55,-37.35,16.77
6832,-5.34,-2.10,-42.50,-109.863,112.305,1602.051,24.90,-11.55,-37.35,16.82
6844,2.73,5.79,-34.86,204.590,-584.961,739.746,23.25,-12.15,-38.25,17.01
6854,-1.43,10.83,-38.09,-327.637,-731.934,1188.965,24.90,-15.00,-36.90,16.82
6864,-3.63,11.13,-39.03,-30.762,-452.148,794.922,24.90,-15.00,-36.90,16.91
6874,-13.60,5.32,-42.12,116.699,-272.949,1395.996,24.90,-14.70,-38.10,16.82
6884,-6.11,4.70,-31.55,38.086,-785.645,1042.480,24.00,-14.85,-39.30,16.82
6894,-2.26,8.54,-34.09,44.922,-500.488,1349.121,22.65,-13.50,-36.90,16.82
6904,-5.18,4.32,-43.05,-19.531,-428.223,1554.688,24.90,-17.10,-37.65,16.91
6916,-3.90,-2.30,-38.29,179.199,-40.527,776.367,24.90,-17.10,-37.65,16.91
6926,-2.41,-2.24,-40.23,48.828,-288.574,833.984,24.75,-16.05,-38.25,16.96
6936,7.60,-6.36,-52.10,400.391,-967.285,1053.711,24.60,-13.80,-39.60,16.91
6946,-2.84,6.60,-39.69,-138.184,-277.832,1133.301,25.80,-16.80,-38.55,16.82
6956,6.87,-3.69,-37.68,114.746,-881.836,1226.074,23.70,-14.25,-39.15,16.72
6966,1.86,-8.59,-41.43,-31.250,-640.137,1039.551,25.65,-16.20,-37.35,16.77
6976,-7.83,-3.16,-42.24,9.766,-511.230,792.969,24.00,-17.25,-39.00,16.82
6993,-4.77,-1.56,-46.93,185.547,-187.988,1037.109,26.10,-15.45,-38.10,16.77
7002,-8.27,0.30,-40.42,70.313,-231.934,755.859,23.70,-15.45,-38.10,16.91
7012,3.09,-5.82,-41.02,193.848,-500.977,1120.117,25.65,-18.60,-38.10,16.62
7022,-2.75,-1.19,-45.63,-194.824,-189.453,1392.090,25.65,-18.60,-38.10,16.82
7032,6.73,2.31,-36.47,205.566,-463.867,758.789,26.25,-18.45,-40.35,16.48
7041,2.58,1.10,-33.87,-234.863,-623.535,862.305,26.25,-18.45,-37.50,16.96
7051,0.82,1.38,-39.85,-138.672,-584.961,1284.668,26.25,-18.45,-37.50,16.91
7063,-4.02,3.23,-45.50,-253.418,-540.039,1406.250,25.35,-19.05,-38.40,16.96
7073,4.77,-3.35,-37.95,-59.082,-564.941,1637.695,25.35,-19.05,-38.40,16.77
7083,2.05,-1.28,-38.39,371.582,-498.047,644.043,25.35,-19.05,-38.10,16.91
7093,-3.13,0.25,-37.16,-363.770,-228.027,914.062,23.40,-18.30,-40.35,16.77
7103,-2.38,9.11,-39.91,427.246,-430.176,841.797,24.90,-17.40,-38.10,16.62
7113,-5.35,10.26,-35.27,-4.395,-254.883,833.008,24.30,-21.30,-38.25,16.77
7123,-11.37,-1.18,-41.05,-89.844,157.227,1131.836,24.30,-21.30,-38.25,16.91
7135,3.52,1.07,-41.10,304.199,-129.395,518.066,24.60,-19.80,-37.65,16.82
7145,-2.08,3.58,-40.98,129.883,-485.352,1042.969,24.90,-18.30,-39.15,17.01
7155,-6.11,-3.38,-39.86,-213.867,-522.461,986.816,24.90,-18.30,-39.15,16.77
7165,-2.31,-1.03,-35.53,-57.617,-135.742,887.207,25.35,-21.45,-38.85,16.91
7175,3.30,-1.22,-42.50,334.961,-498.535,555.176,25.35,-19.05,-39.15,16.77
7185,-1.56,5.33,-31.08,309.570,-827.148,1001.465,25.35,-21.90,-36.90,16.72
7195,-8.73,2.11,-40.33,286.133,-414.551,912.598,25.05,-19.65,-39.75,17.10
7207,-5.18,3.84,-34.34,248.535,194.336,695.312,25.05,-19.65,-39.75,16.77
7217,-3.06,-0.24,-32.07,-94.238,-330.566,1002.441,24.00,-21.30,-38.55,16.72
7227,-6.98,5.55,-45.13,-210.937,-273.437,1694.336,25.05,-20.10,-37.50,16.91
7237,-2.10,5.33,-37.61,50.781,-148.437,1307.129,25.05,-20.10,-37.50,16.77
7247,2.06,3.95,-34.32,364.746,7.812,907.715,24.30,-20.40,-39.75,16.77
7257,0.38,5.96,-46.27,166.504,-758.301,1031.738,25.35,-20.70,-38.10,16.72
7266,0.08,6.67,-47.22,-27.344,-269.531,701.660,24.15,-21.90,-38.40,16.96
7278,-6.60,3.34,-41.02,-10.254,-146.973,538.574,25.05,-20.85,-38.55,16.62
7288,-0.43,-14.27,-38.21,-204.102,-1075.684,1997.070,25.05,-20.85,-38.55,17.10
7298,6.21,-3.79,-40.38,586.426,-399.414,481.445,24.30,-23.25,-40.05,16.77
7308,-3.00,-3.12,-36.15,37.109,-968.750,1484.863,24.15,-21.45,-39.60,16.82
7318,13.41,-12.76,-43.42,374.023,-580.566,312.012,24.15,-21.45,-39.60,16.82
7328,-21.25,1.50,-40.59,-672.363,-170.410,1337.891,23.70,-23.10,-39.60,16.62
7340,-20.31,-5.27,-45.18,-520.508,-44.922,399.902,22.80,-20.40,-38.55,16.96
7350,-7.06,0.19,-39.21,113.281,-789.062,1329.102,24.00,-24.90,-37.50,16.72
7360,-10.76,-1.91,-34.72,241.699,-264.160,799.805,23.40,-21.45,-39.90,16.82
7370,-5.34,1.67,-43.34,-22.949,-730.957,867.187,23.40,-21.45,-39.90,16.96
7380,-8.78,2.21,-39.53,-189.453,-104.980,1819.336,22.35,-24.45,-39.30,16.91
7390,-1.18,-2.37,-36.11,206.543,-282.227,962.402,24.15,-21.45,-39.15,16.82
7400,-9.71,3.40,-35.82,-33.203,-394.531,1148.926,24.90,-25.80,-39.15,16.77
7412,-6.52,5.82,-45.28,-13.184,-685.059,544.434,23.55,-23.25,-40.80,16.72
7422,-10.76,-2.72,-46.87,-518.555,-514.160,1999.939,24.90,-22.65,-39.60,16.82
7432,16.44,-2.49,-38.91,638.672,-645.508,552.246,23.55,-25.95,-38.55,16.58
7442,-15.97,-1.02,-34.61,-427.246,-360.840,1999.939,22.95,-23.10,-41.10,17.01
7452,9.77,-5.30,-42.52,362.793,-749.023,680.664,22.95,-23.10,-41.10,16.77
7462,-6.88,3.30,-49.47,-317.383,-90.332,693.848,24.15,-25.80,-39.15,16.96
7472,1.47,-8.42,-26.37,813.965,-592.773,1719.727,23.40,-23.85,-40.35,16.96
7484,3.50,-8.73,-40.50,822.266,-784.668,738.281,24.90,-26.55,-37.65,16.91
7494,-1.53,2.32,-43.51,-554.687,-372.070,1024.414,23.40,-25.50,-39.90,16.62
7509,-4.73,-11.52,-38.25,172.852,-1271.484,1626.465,23.40,-23.85,-38.85,16.82
7518,2.24,-6.73,-39.32,-27.344,-629.883,670.898,23.70,-26.25,-39.60,16.77
7528,-10.89,1.29,-34.10,-650.879,122.070,1812.988,23.70,-26.25,-39.60,16.77
7538,21.35,6.02,-33.58,505.371,-924.805,634.277,24.15,-26.25,-39.90,16.96
7549,2.03,2.50,-26.27,-220.703,-515.625,1713.867,22.95,-27.00,-39.60,16.77
7559,17.88,-1.59,-38.18,537.109,-293.945,137.207,24.60,-25.05,-40.35,16.72
7569,-16.25,3.03,-39.39,-473.145,-866.699,1657.715,23.55,-26.85,-40.05,16.58
7579,3.61,-10.77,-38.50,-288.086,-566.895,1175.781,23.55,-26.85,-40.05,16.77
7589,-6.68,-5.39,-41.55,134.766,-490.234,571.289,22.20,-24.60,-39.90,16.82
7599,-12.32,-4.70,-33.31,-72.754,-499.512,1999.939,22.65,-27.75,-39.90,16.82
7611,-13.53,-4.42,-26.89,-710.937,-33.691,1999.939,22.65,-27.75,-39.90,16.96
7621,13.57,-0.92,-41.85,429.687,-1232.422,444.336,22.95,-25.50,-39.15,16.82
7631,-9.74,-2.22,-46.01,-187.012,-287.109,348.633,23.55,-28.05,-39.75,16.77
7641,8.69,-0.41,-33.05,126.953,-1068.359,1222.168,22.65,-26.25,-41.40,16.91
7651,-0.71,5.50,-34.73,278.320,-491.211,432.129,23.40,-27.45,-39.15,16.72
7661,-12.70,1.29,-32.69,-309.570,-521.484,1999.939,23.40,-27.45,-39.15,16.82
7671,6.22,-3.44,-37.66,634.277,-715.820,298.340,22.35,-26.85,-41.25,16.96
7683,4.69,-7.70,-41.02,46.875,-971.680,126.953,22.20,-27.75,-39.60,16.77
7693,-4.69,-1.02,-41.90,-326.660,-252.930,405.762,22.20,-27.75,-39.60,16.91
7703,8.45,-8.09,-34.96,389.160,-621.582,1358.887,22.95,-28.95,-38.10,16.91
7713,5.15,3.90,-36.76,-43.945,-370.605,888.672,22.95,-28.95,-38.10,17.01
7723,-5.58,-8.05,-40.80,-189.453,-806.152,1999.939,21.30,-29.25,-39.30,16.91
7733,8.24,-4.24,-46.63,295.410,-523.437,185.059,22.35,-28.05,-39.75,16.72
7743,-12.61,-1.15,-71.74,-309.570,106.445,1790.039,22.35,-28.05,-39.75,16.96
7755,-8.72,9.37,-31.68,10.254,-1314.941,1999.939,22.80,-27.60,-39.75,16.48
7765,10.56,1.06,-36.61,511.719,-672.852,202.637,22.80,-27.60,-39.75,16.96
7775,-29.12,2.37,-31.38,-509.277,-543.945,1716.797,22.65,-28.95,-41.10,16.91
7785,18.73,-8.95,-55.78,176.758,-293.457,499.512,21.60,-27.60,-40.80,16.91
7795,-19.81,-4.49,-45.07,-375.000,-234.863,391.113,21.60,-29.55,-39.00,16.77
7805,10.68,-0.74,-45.85,138.184,-7.812,580.078,21.60,-31.65,-40.80,16.77
7815,-21.35,-1.05,-16.72,-547.363,349.609,1037.109,21.60,-31.65,-40.80,16.58
7827,-7.32,4.11,-36.74,-350.586,-854.492,771.484,22.20,-29.85,-40.65,16.91
7837,13.66,3.53,-44.66,243.164,-683.594,777.832,21.45,-30.15,-40.35,16.48
7846,-5.92,4.66,-41.57,-326.660,-333.008,808.105,21.45,-28.95,-41.10,16.96
7856,-5.50,-5.96,-42.80,385.254,-780.273,1958.984,22.35,-29.55,-40.50,16.96
7866,-14.17,8.87,-68.74,216.309,-63.965,762.695,21.30,-30.45,-42.00,16.82
7876,-0.83,-4.13,-37.62,-77.637,-1081.543,1999.939,21.90,-28.65,-41.10,16.77
7888,-7.18,-0.69,-36.76,-100.586,-541.992,1999.939,22.20,-30.60,-39.90,16.82
7898,13.37,-5.43,-37.72,270.508,-859.863,955.078,22.20,-30.60,-39.90,16.96
7908,-4.71,-0.76,-41.70,-179.199,-254.395,1604.980,20.55,-28.05,-41.25,16.62
7918,24.39,-2.59,-29.40,367.676,-684.570,-51.758,21.30,-30.75,-41.25,16.91
7928,-18.28,5.88,-38.77,-253.418,-326.172,1187.988,21.30,-31.20,-41.55,16.77
7938,22.34,2.69,-29.24,244.629,-621.094,78.613,19.95,-28.95,-39.90,16.62
7947,-3.84,1.35,-41.74,-25.879,-125.977,1141.602,20.10,-32.40,-40.80,16.77
7959,-8.25,9.27,-43.25,-77.637,87.891,256.836,19.65,-31.95,-40.80,16.91
7969,1.06,-8.67,-31.92,-154.785,-612.793,1638.184,19.35,-29.25,-41.25,16.96
7979,5.08,-2.33,-44.64,251.953,-163.574,581.543,19.35,-29.25,-41.25,16.48
7989,1.85,-8.18,-38.98,-163.086,-812.500,1570.801,19.50,-32.25,-41.10,16.77
7999,7.92,2.85,-37.98,-367.676,-345.215,1237.305,19.35,-29.55,-40.50,16.91
8009,5.34,2.87,-36.22,-306.152,-708.008,1723.145,19.50,-30.60,-41.40,16.77
8026,-4.16,4.21,-52.40,-632.324,-357.422,1999.939,20.10,-30.00,-41.55,16.62
8035,-0.93,-0.43,-55.48,-272.461,-756.836,1606.445,21.00,-31.80,-41.40,16.91
8045,1.73,-1.72,-36.08,-71.289,-719.238,1022.461,20.10,-31.65,-42.00,16.43
8055,2.70,7.68,-38.63,190.918,-157.715,813.477,20.10,-31.65,-42.00,17.10
8065,5.61,3.79,-35.45,17.578,-481.445,929.199,19.20,-30.60,-41.40,16.77
8074,4.33,-1.76,-37.13,-145.508,-594.238,1095.215,20.85,-30.75,-42.75,16.82
8084,7.67,-0.60,-32.43,-393.555,-341.309,1122.559,20.85,-30.75,-42.75,16.77
8096,-4.85,6.85,-29.18,-149.414,-87.891,1341.309,19.65,-29.55,-42.00,16.91
8106,2.70,-1.53,-34.94,-36.621,-542.969,1139.648,19.65,-29.55,-42.00,17.01
8116,4.12,0.20,-33.85,-87.891,-553.223,824.707,19.35,-32.85,-41.55,16.77
8126,-4.53,-0.51,-33.44,-239.258,-407.715,269.531,20.10,-31.20,-41.25,16.82
8136,-6.16,3.69,-34.92,23.437,-114.258,397.461,20.10,-31.20,-41.25,16.91
8146,-2.32,-2.22,-29.00,-98.145,-795.410,1516.113,18.45,-30.60,-41.40,16.91
8156,5.69,5.12,-28.56,-32.715,-536.133,431.641,18.60,-31.20,-41.25,16.77
8167,3.44,-3.64,-32.99,-73.242,-249.512,862.793,18.75,-32.25,-41.40,16.96
8177,3.06,-4.16,-40.06,-62.988,-270.508,1412.598,18.00,-32.25,-42.60,16.72
8187,6.89,-5.26,-31.15,-64.453,-244.141,922.852,18.00,-32.25,-42.60,16.43
8197,5.89,-4.87,-33.43,-39.063,-586.914,1108.887,18.60,-32.85,-40.80,16.91
8207,2.85,2.57,-31.29,24.902,-616.699,994.629,18.75,-32.55,-41.10,16.82
8217,-2.08,1.02,-36.95,-93.750,-443.848,1533.691,18.75,-32.55,-41.10,17.01
8227,2.86,-3.19,-37.49,-111.816,-327.148,1090.332,18.60,-32.40,-41.55,16.96
8239,3.11,0.66,-27.14,-6.836,-515.625,856.934,18.60,-33.60,-39.30,16.91
8249,5.86,-2.63,-33.54,-111.328,-640.137,1352.051,17.85,-31.95,-41.25,16.72
8259,0.21,1.87,-36.03,-154.785,-138.672,1330.078,18.45,-32.55,-41.85,16.58
8269,1.04,-1.56,-33.38,155.273,-1088.379,1068.848,18.45,-32.55,-41.85,16.48
8279,-7.16,-1.37,-31.08,-165.527,-255.371,1095.215,17.25,-33.00,-41.40,16.96
8289,-4.41,0.19,-24.00,-62.500,-334.473,588.379,17.10,-33.15,-39.00,17.01
8299,-10.16,4.44,-38.40,-155.762,85.449,330.078,17.10,-33.15,-39.00,16.82
8311,-4.81,6.78,-31.95,-403.320,-299.805,196.289,17.25,-33.75,-39.90,16.77
8321,2.79,0.69,-35.06,-38.086,-577.148,891.602,17.40,-33.15,-39.75,16.62
8331,-1.91,1.08,-28.15,44.922,-48.340,1402.832,16.20,-34.05,-39.75,16.96
8341,-3.33,-8.27,-41.32,-100.098,-554.687,1457.520,16.20,-33.15,-39.75,16.48
8351,-5.49,-3.17,-24.07,-144.043,-253.418,1053.711,16.20,-33.15,-39.75,16.72
8361,-2.40,-5.21,-16.60,-404.785,-576.660,1163.086,17.10,-34.05,-39.75,16.82
8373,0.44,-3.92,-32.55,-69.336,-504.395,1554.688,16.50,-33.75,-39.90,16.77
8383,-0.50,-0.09,-29.47,-200.684,12.695,751.953,16.20,-34.35,-39.75,16.82
8393,3.30,0.25,-23.78,95.703,-382.324,1389.160,17.55,-34.65,-40.35,16.58
8402,11.44,-10.95,-26.74,18.555,-813.477,877.441,17.10,-34.80,-39.75,16.91
8412,3.59,-1.47,-30.31,-230.469,-571.777,543.945,16.05,-35.85,-39.90,16.62
8422,0.68,-7.91,-29.53,-206.055,-539.062,1389.648,13.80,-34.95,-39.60,16.82
8432,-2.61,2.73,-31.44,166.016,-148.926,611.816,13.80,-34.95,-39.60,16.82
8444,6.22,1.71,-9.07,-2.930,-428.223,741.699,17.10,-34.35,-40.50,16.96
8454,-2.49,4.66,-29.36,-29.297,-472.168,993.164,16.65,-32.85,-38.55,16.77
8464,-4.21,1.65,-29.73,96.191,-640.137,572.266,16.20,-35.25,-39.00,16.91
8474,-13.95,4.49,-32.07,-46.387,-280.273,633.301,15.30,-35.40,-39.60,16.91
8484,-3.43,0.18,-37.69,-295.898,4.395,908.691,14.70,-33.60,-39.30,17.01
8494,15.34,4.32,-27.15,69.336,-276.855,859.375,16.50,-35.85,-38.85,16.72
8503,18.17,3.86,-35.21,89.355,-414.551,270.020,14.55,-34.20,-39.90,17.01
8515,5.72,-1.76,-35.72,141.113,-558.105,1104.492,15.15,-35.25,-38.25,16.77
8525,3.62,1.30,-24.38,298.828,-770.508,1225.586,13.35,-33.45,-39.60,16.91
8539,0.51,3.81,-18.30,-391.113,-450.195,1217.285,14.85,-36.15,-38.85,16.77
8549,9.49,5.10,-12.53,268.066,-573.242,988.770,14.85,-33.45,-39.15,16.62
8559,3.63,-1.20,-39.25,122.559,-335.449,1005.371,14.85,-33.45,-39.15,16.91
8569,13.06,-2.92,-140.64,-104.980,-582.031,1312.500,15.15,-36.00,-39.00,16.82
8579,1.45,2.26,-8.21,-241.211,-301.270,789.551,15.90,-34.80,-38.55,16.96
8589,-0.60,-1.82,-21.54,-316.895,-382.324,1038.574,15.90,-34.80,-38.55,16.82
8601,0.08,-2.84,-26.05,-182.129,-88.379,1999.939,14.10,-35.40,-39.15,16.77
8611,4.08,-1.12,-29.70,-166.016,-271.484,774.902,15.30,-34.95,-38.40,16.62
8621,11.77,1.63,-23.85,-186.523,-602.051,108.887,14.70,-33.60,-39.75,16.72
8631,2.98,9.62,-31.16,-184.082,-700.195,1206.543,14.40,-36.75,-37.50,16.58
8641,-7.20,4.49,-32.05,79.102,91.309,1098.633,14.40,-36.75,-37.50,16.77
8651,2.75,-3.82,-27.35,92.773,-420.898,955.566,13.95,-35.55,-37.80,16.77
8663,-2.05,-6.20,-6.72,86.426,-231.445,151.855,14.40,-34.80,-38.55,16.62
8673,0.60,-11.24,-32.05,235.840,-511.719,1994.629,14.40,-34.80,-38.55,16.91
8683,1.71,6.71,-27.95,-416.504,-169.922,1196.777,15.30,-34.95,-38.40,16.82
8693,16.15,-0.98,-21.37,102.051,-479.980,233.398,12.60,-35.40,-38.40,16.82
8703,2.55,2.01,-37.17,-87.891,-462.891,1444.824,13.50,-35.25,-39.30,16.58
8713,13.23,5.42,-28.67,34.180,-846.191,587.891,13.80,-36.60,-39.15,16.72
8722,4.01,-7.14,-27.95,-72.266,-157.715,131.348,13.80,-36.60,-39.15,16.77
8733,2.44,-4.26,-26.39,-120.605,-407.715,1917.480,14.10,-33.75,-37.65,16.77
8743,1.11,0.76,-36.29,6.348,-417.480,996.094,14.70,-35.55,-38.25,17.01
8753,5.66,-3.31,-24.15,-236.816,-322.754,1109.375,14.70,-35.55,-38.25,16.82
8763,6.84,-0.42,-29.35,-189.453,-415.527,1360.352,12.75,-36.75,-38.25,16.96
8773,12.65,-0.27,-31.98,-70.801,-823.730,1106.934,14.85,-35.40,-38.85,16.58
8783,-5.97,-2.97,-33.20,-245.117,-376.465,1623.047,13.80,-34.95,-38.85,16.77
8793,2.34,-4.79,-38.15,66.895,-351.562,966.309,13.80,-36.15,-37.35,16.77
8805,4.34,-3.11,-30.67,-83.008,-332.031,991.699,13.80,-36.15,-37.35,16.72
8815,5.24,-1.95,-28.11,-20.508,-612.305,1000.977,12.60,-36.15,-38.85,17.01
8825,0.88,-5.82,-40.80,-16.602,-675.781,1378.418,12.60,-36.15,-38.85,16.72
8835,0.98,-5.31,-35.21,108.887,-169.922,1003.418,13.20,-34.35,-39.30,16.77
8845,3.36,-7.66,-41.92,-179.199,-616.699,1063.477,13.35,-35.85,-38.85,16.91
8855,-5.76,-6.21,-42.59,-92.773,95.215,1540.039,13.35,-35.85,-38.85,16.72
8865,4.83,-3.71,-32.55,-237.305,-528.809,605.469,12.00,-34.95,-37.35,16.82
8877,3.69,-0.71,-37.98,151.367,-237.793,1103.516,12.00,-35.55,-37.50,16.72
8887,-5.98,5.95,-23.63,-317.383,-163.574,636.719,11.85,-34.65,-38.10,17.01
8897,-0.80,1.03,-37.93,65.430,-265.625,694.824,12.30,-35.85,-38.10,16.91
8907,3.23,3.79,-31.23,-40.039,-501.953,405.762,12.00,-36.00,-37.50,16.72
8917,1.67,10.09,-36.87,-34.668,-15.625,441.406,12.75,-36.45,-38.25,16.77
8927,-19.80,6.52,-15.98,-121.094,-18.555,1158.203,12.75,-36.45,-38.25,16.91
8939,1.41,9.47,-43.91,-190.918,-535.156,922.852,12.30,-34.95,-37.65,17.10
8949,0.05,0.85,-54.89,-217.285,-647.949,857.422,11.10,-36.15,-37.65,16.77
8959,10.85,-1.26,-33.69,38.086,-760.254,737.793,11.10,-36.15,-37.65,16.96
8969,8.16,2.45,-33.00,-147.949,-455.078,1009.766,11.85,-36.15,-38.10,16.82
8979,7.43,-1.39,-39.89,-89.355,-842.773,886.719,12.30,-35.85,-36.90,17.01
8989,4.41,-0.78,-37.14,-233.398,-554.687,1417.480,12.60,-37.35,-38.10,16.77
8999,-1.24,-3.31,-32.73,-117.188,-528.320,1642.578,12.75,-36.00,-37.80,16.91
9011,-2.09,1.60,-40.81,-279.297,-555.664,972.656,12.75,-36.00,-37.80,17.01
9021,4.86,-3.38,-38.23,-240.723,-463.379,554.199,11.40,-35.40,-37.35,16.96
9031,2.00,7.85,-32.28,241.699,-325.195,470.215,10.65,-36.60,-36.60,16.91
9040,-10.08,10.51,-29.94,-94.727,12.695,976.074,10.65,-36.60,-36.60,16.82
9055,1.21,-3.76,-44.97,39.551,-1011.230,1425.781,12.30,-36.60,-37.65,16.96
9064,-8.44,1.96,-33.41,-14.160,-267.090,686.523,12.45,-36.00,-37.05,16.91
9076,-4.66,2.51,-36.53,98.633,-644.043,712.402,11.85,-35.85,-36.60,16.62
9086,-1.48,1.02,-42.17,72.754,-451.172,974.121,11.85,-35.85,-36.60,16.62
9096,-0.85,3.05,-26.86,-77.148,-332.031,1193.359,12.60,-35.40,-37.65,16.77
9106,-5.06,-4.32,-47.83,-108.398,-371.582,1389.160,11.85,-37.05,-36.90,16.91
9116,2.45,-4.81,-35.56,8.789,-732.422,976.074,11.85,-37.05,-36.90,16.82
9126,5.28,1.47,-39.92,-306.641,-235.840,860.840,10.65,-37.35,-37.65,16.82
9136,14.54,-2.31,-40.92,32.227,-649.902,680.664,11.10,-37.35,-35.70,16.91
9148,16.89,3.68,-30.45,-157.227,-1029.785,1215.820,9.90,-36.60,-37.65,16.77
9158,9.21,3.73,-34.00,60.547,-383.301,873.047,10.35,-35.85,-36.15,16.77
9168,3.74,1.37,-43.05,265.137,-863.281,1315.430,10.35,-35.85,-36.15,16.82
9178,2.64,-5.99,-27.34,-98.145,-603.027,433.105,9.90,-36.60,-38.10,16.38
9188,-3.19,-2.34,-46.88,-121.094,-408.691,950.195,10.05,-37.65,-35.55,16.77
9198,-1.52,-0.31,-43.31,-212.891,-101.074,1661.621,10.05,-37.65,-35.55,16.77
9208,-1.00,-5.46,-50.47,-17.578,19.531,1352.051,9.90,-37.35,-36.60,16.91
9220,-5.24,-2.11,-42.06,89.844,-697.754,1025.391,9.90,-37.35,-36.60,16.82
9230,2.63,-7.82,-49.95,-228.516,-735.840,1103.516,8.70,-38.25,-36.60,16.82
9240,10.32,-3.87,-25.80,-186.523,-787.109,1313.477,9.30,-35.55,-38.25,16.91
9250,1.57,-6.64,-54.59,18.555,-853.516,1280.762,9.30,-35.55,-38.25,16.96
9260,-5.60,-0.67,-42.32,215.332,-209.961,407.227,9.00,-36.45,-36.30,16.48
9270,-3.09,-1.17,-57.93,-453.125,-420.898,1291.992,10.50,-37.65,-36.30,17.01
9280,-0.47,-0.27,-40.47,-316.406,-147.461,529.297,9.30,-39.15,-35.25,16.91
9292,0.33,7.76,-37.95,-330.566,-827.148,1761.719,9.60,-36.60,-37.35,16.96
9302,2.85,8.46,-49.40,-86.426,-643.555,1200.684,9.30,-38.40,-35.55,16.72
9312,5.63,8.93,-36.11,-110.352,-839.355,1383.789,9.00,-38.40,-36.00,17.10
9322,-1.08,7.15,-46.75,-201.172,-938.965,1467.285,8.40,-37.05,-37.65,16.77
9332,-2.50,5.07,-53.79,127.930,-859.863,930.664,8.40,-37.05,-37.65,16.77
9342,-1.62,3.17,-39.23,60.059,-320.801,924.316,8.55,-37.95,-36.30,16.82
9354,2.99,1.85,-45.19,-0.977,-852.051,1000.000,8.40,-36.60,-36.60,16.58
9364,6.39,2.29,-38.59,66.406,-670.410,1356.934,8.55,-38.40,-36.00,16.77
9374,3.73,-0.56,-45.99,-8.789,-655.273,862.305,9.30,-37.95,-36.30,16.62
9384,6.75,-4.07,-46.29,181.641,-869.141,976.074,9.30,-37.95,-36.30,16.82
9394,0.72,-4.69,-55.38,-60.059,-410.156,1077.148,7.20,-38.25,-36.15,16.77
9404,-3.07,3.35,-44.82,114.258,-396.484,1102.539,7.35,-36.75,-36.30,16.96
9414,2.05,-0.82,-48.94,30.273,-345.215,1286.133,7.35,-36.75,-36.30,16.91
9426,-1.37,-5.01,-44.76,-166.992,-645.508,743.164,7.65,-39.30,-34.65,16.82
9436,-12.41,-1.87,-46.15,-301.758,-80.078,1681.152,7.65,-39.30,-34.65,16.91
9446,6.74,-1.92,-41.73,-218.262,-25.879,1071.289,7.20,-39.75,-35.40,16.62
9456,8.41,1.04,-41.51,52.246,-496.582,150.879,6.90,-39.75,-35.70,17.01
9466,-5.98,6.97,-45.94,26.855,-377.441,1297.852,6.90,-39.75,-35.70,17.01
9476,4.22,-1.06,-48.74,20.996,-652.832,1319.824,7.65,-38.55,-36.90,16.82
9486,15.31,-5.05,-44.52,-34.668,-644.043,457.031,7.65,-38.55,-34.20,16.91
9498,2.84,-2.23,-51.43,82.031,-601.562,791.992,5.85,-38.70,-36.00,16.77
9508,-0.84,1.63,-39.13,351.562,-234.375,475.098,6.30,-37.95,-35.25,16.96
9518,-9.81,-6.78,-46.53,-518.555,-565.918,1305.176,5.70,-39.75,-35.40,16.58
9528,-7.98,-4.79,-50.25,-15.137,-822.754,1023.437,5.10,-37.95,-35.55,16.72
9538,-6.56,-3.47,-36.44,40.527,-866.211,571.777,5.10,-37.95,-35.55,16.91
9548,-7.50,1.85,-38.80,-476.074,-234.375,1643.555,5.55,-39.60,-35.55,17.01
9558,15.34,-0.52,-48.19,196.777,-249.023,1159.668,5.70,-39.75,-35.40,16.82
9575,5.24,9.15,-39.34,-371.582,-155.762,813.965,5.70,-39.75,-35.40,16.96
9584,12.50,2.35,-44.82,188.477,-936.035,1389.160,6.30,-39.60,-34.80,16.77
9594,-5.06,2.98,-58.55,214.355,-988.281,1012.207,4.95,-39.75,-34.20,16.48
9604,-0.78,-2.54,-47.41,-345.703,-696.777,1253.906,4.80,-41.55,-35.55,16.77
9614,12.73,1.49,-46.69,-134.277,-521.484,768.555,4.80,-40.80,-35.25,16.91
9624,-0.97,-7.83,-47.46,-26.855,-383.789,1531.738,4.80,-40.80,-35.25,16.77
9634,-0.41,0.00,-45.29,-376.465,-276.855,1444.336,4.35,-41.10,-34.50,16.77
9646,5.36,-7.35,-51.07,-162.109,-1103.516,1625.000,2.85,-37.95,-35.25,16.77
9656,5.82,-5.40,-57.34,27.832,-875.488,690.918,4.20,-40.50,-34.65,16.72
9666,-10.81,-4.51,-40.47,68.848,-554.199,261.719,2.55,-40.20,-36.15,16.38
9676,-16.76,-0.29,-51.67,-315.918,-290.039,1362.793,3.60,-39.15,-34.05,16.48
9686,-0.56,-2.92,-48.50,-165.039,-539.551,765.625,3.75,-40.95,-34.65,16.72
9696,-6.82,-9.81,-58.02,-163.574,-482.910,1432.129,3.60,-40.35,-36.00,16.77
9706,-5.89,-0.66,-51.25,-189.941,-443.848,1671.875,3.60,-40.35,-36.00,16.58
9718,6.76,1.37,-41.24,-118.652,-546.387,1115.234,3.15,-41.10,-34.80,16.77
9728,-1.77,-2.38,-49.96,-295.898,-865.723,963.867,2.85,-41.55,-34.50,17.01
9738,2.74,1.05,-45.96,-152.344,-667.969,817.383,0.30,-41.40,-34.95,16.77
9748,6.05,4.89,-52.86,144.531,-1385.742,1683.594,0.30,-41.40,-34.95,16.77
9757,-3.26,-2.08,-42.64,144.043,-509.766,1158.203,0.30,-42.60,-34.20,16.96
9767,-1.25,4.86,-37.96,-174.805,-508.789,1361.816,1.20,-41.10,-34.05,17.01
9777,17.15,6.83,-47.52,-33.691,-462.402,261.230,1.20,-41.10,-34.05,16.82
9789,0.53,6.49,-52.50,122.070,-738.281,826.660,1.65,-41.10,-35.55,16.91
9799,-5.57,2.15,-39.30,-63.965,-495.117,918.457,0.15,-39.90,-33.75,16.82
9809,7.50,5.57,-46.16,-176.270,-766.602,1009.766,0.15,-41.55,-33.75,16.82
9819,2.27,2.33,-48.58,-32.715,-367.187,810.059,-0.75,-41.40,-36.15,16.72
9829,-5.40,0.42,-39.75,-17.090,-823.242,1501.953,-0.75,-41.40,-36.15,16.77
9839,5.62,-5.79,-40.56,-242.676,-662.109,976.562,0.15,-42.00,-35.25,16.91
9849,-1.62,-5.60,-51.93,118.164,-307.129,337.891,0.15,-40.80,-36.00,16.77
9860,-7.57,0.52,-57.60,-305.176,-548.828,1465.820,0.15,-40.80,-36.00,16.82
9870,3.08,-1.92,-47.38,6.836,-1098.633,1070.801,-0.75,-41.40,-34.95,16.96
9880,-4.18,2.31,-47.08,-345.215,-452.637,231.445,-0.90,-40.80,-35.55,16.77
9890,-9.47,3.32,-64.74,-94.727,-434.570,1034.668,-1.20,-40.80,-34.50,16.48
9900,-12.10,-3.58,-53.53,185.547,-384.277,524.902,-2.85,-40.80,-36.30,16.82
9910,-3.53,1.38,-44.64,-45.898,-145.996,983.887,-2.85,-40.80,-36.30,16.77
9922,-5.86,1.26,-44.05,-322.266,-164.551,1167.969,-1.65,-40.80,-35.55,16.77
9932,10.70,8.86,-57.56,-308.594,-600.586,1070.801,-1.50,-39.75,-34.95,16.82
9942,16.78,0.89,-42.56,-105.469,-830.078,1896.484,-1.50,-39.75,-34.95,16.82
9952,3.70,6.69,-41.34,31.250,-1164.551,613.770,-4.20,-40.95,-34.65,17.15
9962,3.17,4.17,-55.30,145.508,-527.832,1257.324,-2.55,-39.75,-34.20,16.91
9972,0.92,1.34,-51.50,231.934,-1084.473,1859.863,-2.85,-41.10,-34.05,16.72
9982,-8.44,-7.24,-42.38,-140.137,-555.176,1153.809,-3.15,-40.80,-35.55,17.10
9994,-8.44,-3.82,-56.81,-257.812,-145.508,1186.035,-3.15,-40.80,-35.55,16.72
10004,-1.05,-5.94,-48.05,160.645,-77.637,951.660,-3.15,-40.80,-34.80,16.72
10014,8.13,-3.37,-58.64,153.320,-807.129,1323.242,-3.90,-40.35,-36.30,16.77
10024,-3.79,-2.10,-46.46,10.254,-1067.383,1750.488,-3.90,-40.35,-36.30,16.82
10034,-8.56,2.51,-55.55,-288.086,-82.520,676.270,-4.80,-40.35,-34.80,16.91
10044,6.17,1.52,-50.25,-159.668,-901.855,46.387,-5.10,-41.10,-35.25,16.82
10054,0.27,-0.50,-44.76,-120.605,-1046.387,1270.508,-3.90,-41.10,-34.50,16.58
10066,-1.64,3.77,-48.41,26.855,-478.027,379.883,-4.95,-38.55,-34.65,17.01
10076,1.11,1.06,-52.04,-204.590,-276.367,411.621,-4.95,-38.55,-34.65,16.48
10091,-1.26,0.18,-47.73,-100.098,-812.500,1066.895,-5.10,-39.90,-34.05,16.91
10100,8.43,0.79,-46.95,11.719,-808.105,789.551,-6.30,-40.80,-36.00,16.82
10110,-8.36,4.95,-47.76,-324.707,34.180,822.754,-4.50,-39.75,-33.90,17.01
10120,3.20,8.06,-45.27,-134.277,-338.867,1231.934,-4.80,-39.60,-34.50,16.38
10130,7.68,11.23,-53.31,240.234,-166.504,51.270,-6.90,-39.30,-33.90,16.82
10140,4.78,6.09,-49.23,-310.059,-808.105,346.680,-6.15,-39.00,-33.90,17.01
10152,2.94,-11.29,-33.12,-181.152,-930.176,1385.742,-6.15,-39.00,-33.90,16.96
10162,-5.71,1.63,-41.78,-278.320,-940.430,1791.504,-6.45,-38.25,-34.20,16.77
10172,-9.42,11.15,-79.07,22.461,-522.461,868.164,-7.05,-39.15,-33.30,17.10
10182,-3.47,9.89,-45.37,-41.504,-332.520,1190.430,-7.35,-38.70,-34.80,17.01
10192,1.25,1.63,-47.77,-76.660,-137.207,1236.816,-6.60,-37.95,-34.80,17.01
10202,9.32,-2.18,-51.98,-179.199,-749.512,507.324,-6.60,-37.95,-34.80,16.48
10214,-3.38,0.48,-56.19,-322.266,-320.312,562.988,-7.35,-38.70,-34.05,16.77
10224,5.27,2.02,-42.31,246.094,-1291.504,1288.086,-7.05,-37.95,-32.55,16.77
10234,-8.08,-0.50,-52.37,-99.609,-664.062,1305.176,-7.05,-37.95,-32.55,16.77
10244,-6.73,-1.76,-63.05,-284.180,-23.437,1464.844,-8.55,-38.40,-32.55,16.91
10254,8.12,-5.11,-50.36,-142.090,-196.289,704.590,-7.95,-39.00,-33.45,17.10
10264,2.28,5.13,-52.31,-32.715,-1014.160,1028.809,-7.95,-38.55,-34.20,16.77
10274,-19.26,4.31,-63.46,-395.508,-189.453,1451.660,-8.55,-38.70,-33.30,16.72
10286,0.62,8.24,-65.79,-342.285,-294.434,913.574,-8.55,-38.70,-33.30,16.91
10296,10.28,6.89,-44.29,194.336,-323.242,1247.070,-9.30,-38.40,-33.30,16.77
10306,18.15,-8.80,-52.34,-6.348,-458.984,47.363,-8.55,-39.15,-33.30,16.58
10316,-6.66,-4.53,-57.67,-167.480,-869.629,-164.551,-8.55,-39.15,-33.30,16.62
10326,7.98,-16.05,-53.20,206.055,-344.238,1177.734,-9.15,-37.35,-33.90,16.91
10336,-4.24,2.96,-49.15,-41.016,-437.012,40.527,-8.55,-38.70,-33.75,16.82
10350,-5.99,-11.72,-40.82,15.625,-727.051,437.988,-10.35,-36.60,-32.40,16.82
10359,-4.91,-6.02,-54.53,-81.543,-439.941,776.855,-10.35,-36.60,-32.40,16.77
10369,9.00,-8.45,-55.44,-124.512,-357.422,966.309,-9.15,-37.35,-33.15,16.77
10379,3.10,-8.89,-60.40,-21.484,-336.426,1084.473,-10.35,-37.35,-31.95,16.96
10389,11.60,-9.58,-50.42,-147.461,-881.348,1999.939,-10.35,-37.35,-31.95,16.91
10399,4.91,-6.89,-49.73,-309.570,-838.867,1389.160,-10.95,-35.55,-33.75,16.77
10409,0.87,-0.52,-47.97,-211.914,-1078.613,571.777,-11.70,-38.70,-32.55,16.77
10421,-3.73,1.51,-45.41,-190.430,-303.711,1488.281,-12.00,-36.00,-34.05,16.62
10431,3.79,4.34,-46.77,141.113,-812.988,912.109,-12.45,-36.00,-33.30,16.77
10441,-6.06,0.48,-46.95,-3.906,-819.824,965.332,-12.45,-36.00,-33.30,16.96
10451,-6.44,0.45,-54.11,-304.199,-638.184,1374.023,-13.20,-36.75,-33.30,16.96
10461,0.86,5.01,-42.77,10.254,-442.383,588.379,-10.95,-36.45,-32.55,17.01
10471,2.60,1.11,-49.18,117.188,-618.164,928.223,-12.30,-37.05,-33.90,16.91
10481,6.12,-0.26,-48.27,-140.137,-519.531,1725.098,-11.40,-35.40,-31.95,16.72
10493,1.51,-4.67,-45.26,-90.820,-695.312,970.215,-11.10,-36.60,-31.95,16.82
10503,5.35,-3.95,-52.18,-133.301,-721.680,1530.273,-12.00,-34.80,-31.80,16.58
10513,2.08,-3.37,-46.18,217.773,-592.773,730.469,-12.45,-35.25,-32.25,16.91
10523,-3.85,-0.70,-51.88,-241.699,-399.902,687.988,-12.45,-35.25,-32.25,16.96
10533,-6.15,-0.37,-46.89,-117.676,-239.746,1234.375,-12.30,-34.20,-33.15,16.77
10543,11.79,-9.26,-56.92,290.039,-347.656,447.266,-12.75,-34.80,-32.55,16.96
10555,4.68,-2.61,-46.09,-136.719,-583.984,622.070,-13.20,-34.05,-32.55,16.77
10565,1.23,3.22,-48.71,146.484,-200.195,424.805,-12.45,-35.25,-32.25,16.77
10575,1.38,4.37,-50.85,-299.805,-685.547,1254.395,-15.15,-34.80,-30.75,16.77
10585,6.40,5.56,-42.10,-355.469,-374.023,1001.465,-13.05,-34.20,-32.40,16.91
10595,-0.72,-0.51,-40.23,200.684,-585.937,674.805,-13.35,-33.75,-32.70,16.77
10620,-12.91,2.52,-42.27,-389.160,-126.953,1492.676,-13.95,-35.55,-32.55,16.72
10629,3.71,5.25,-50.75,67.383,-481.934,1050.781,-14.10,-31.80,-33.15,16.48
10639,-13.30,-17.56,-58.44,143.066,-68.359,1084.473,-13.80,-33.00,-32.40,16.82
10649,-11.97,-0.28,-43.56,-939.453,209.961,1189.941,-13.80,-33.00,-32.40,17.01
10659,6.62,2.47,-55.01,102.051,-990.723,593.262,-13.80,-32.25,-33.15,16.96
10669,4.40,-2.72,-41.98,-87.891,-717.773,1032.227,-13.95,-33.15,-31.50,16.77
10679,-7.91,-7.18,-54.23,-367.187,-94.727,1708.496,-13.95,-33.15,-31.50,16.77
10691,-1.76,1.10,-50.96,-283.203,-128.418,795.410,-13.95,-30.45,-33.30,16.91
10701,2.45,3.77,-42.89,-112.305,-355.957,639.648,-13.35,-31.80,-32.40,16.82
10711,8.87,6.29,-52.74,100.098,-1175.781,723.633,-14.10,-31.35,-33.15,16.58
10721,-16.76,9.80,-40.50,-441.406,8.789,292.480,-13.95,-29.55,-31.50,16.82
10731,-5.85,6.86,-47.63,-20.020,-237.305,925.781,-13.95,-29.55,-31.50,16.82
10741,-11.46,17.69,-49.98,628.418,242.187,-10.742,-15.15,-31.65,-33.00,17.01
10751,-10.21,11.65,-48.19,-335.937,-264.648,1221.680,-13.20,-31.65,-31.05,16.77
10763,2.18,-31.56,-41.61,-715.332,-631.836,1591.309,-13.20,-31.65,-31.05,16.82
10773,-0.21,-17.53,-56.39,-642.090,-41.016,1897.461,-13.05,-28.95,-30.90,16.82
10783,20.68,6.66,-26.95,-64.453,-1276.367,1867.188,-13.95,-31.95,-29.85,16.82
10793,10.80,7.73,-67.39,402.832,-586.914,358.887,-14.10,-29.85,-31.20,16.77
10803,20.51,-2.53,-52.65,-679.687,-666.504,289.062,-13.80,-29.40,-30.15,16.72
10813,10.91,-2.24,-57.50,512.695,-307.617,48.828,-13.80,-29.40,-30.15,16.96
10825,-1.53,2.18,-40.92,150.391,-1379.883,861.328,-13.80,-29.40,-30.15,16.82
10835,-11.08,11.84,-48.54,-389.160,-329.102,1999.939,-15.15,-28.80,-29.55,17.10
10845,8.19,2.51,-27.47,-417.969,-794.434,1999.939,-15.15,-28.80,-29.55,16.82
10855,12.24,-1.53,-44.81,226.074,-619.141,1733.887,-14.10,-28.65,-30.15,16.91
10865,5.72,-0.11,-52.24,-98.145,-99.609,1185.059,-13.80,-28.65,-30.15,16.82
10875,23.15,-18.81,-44.24,50.293,-719.727,691.895,-14.70,-30.00,-29.55,16.48
10885,10.71,-12.47,-56.26,50.293,-978.027,1198.730,-15.15,-28.35,-29.85,16.82
10897,14.89,-21.31,-66.10,14.648,-1261.719,980.469,-15.15,-28.35,-29.85,16.72
10907,1.48,-38.63,-47.24,-231.445,-984.375,1999.939,-16.80,-28.95,-27.45,16.91
10917,-9.95,-29.24,-43.57,233.887,-929.687,18.555,-15.90,-26.40,-27.60,16.91
10927,-32.83,-22.58,-46.02,-426.758,657.227,1906.250,-16.80,-29.85,-27.45,17.10
10937,-8.60,-40.93,-39.83,81.055,-1200.684,20.996,-17.25,-27.75,-27.90,16.82
10947,-15.18,-24.65,-63.80,-138.184,-374.512,-7.812,-17.85,-27.15,-27.60,16.91
10959,3.77,2.42,-37.44,-37.598,148.926,403.320,-18.90,-26.40,-28.05,16.77
10969,-16.67,-4.25,-54.98,-730.957,-23.926,1523.438,-18.90,-26.40,-28.05,16.62
10979,9.78,-17.89,-65.93,394.043,-803.711,-358.398,-18.45,-29.40,-27.15,16.62
10989,-35.81,-8.89,-55.95,-681.641,-279.785,394.531,-18.45,-25.80,-27.15,16.62
10999,-20.39,-17.98,-64.33,-1.953,113.770,293.945,-18.45,-25.80,-27.15,16.77
11009,7.78,-26.41,-53.76,-296.387,-749.023,524.902,-18.60,-28.80,-26.10,16.77
11019,18.50,-1.33,-32.58,90.820,544.922,306.641,-20.25,-27.45,-27.45,16.91
11031,40.64,-3.78,-73.04,-229.492,-591.797,1999.939,-18.45,-27.75,-27.45,16.91
11041,11.18,5.51,-89.54,-401.855,-1805.176,1999.939,-19.65,-27.60,-26.85,16.77
11051,24.63,5.24,-17.02,-22.461,-1347.656,-277.832,-19.65,-27.60,-26.85,17.01
11061,9.66,1.82,-47.20,-383.301,-770.020,1708.496,-19.50,-25.80,-26.70,16.62
11071,21.15,-0.59,-48.53,-140.137,-277.344,1999.939,-20.10,-27.60,-27.60,16.91
11081,-1.73,25.09,-52.80,61.035,-626.465,770.996,-21.00,-24.60,-28.65,16.82
11093,-3.95,-11.83,-73.18,-357.422,-152.344,923.340,-21.30,-25.95,-28.35,16.62
11103,32.28,9.27,-28.63,753.906,-1291.016,1247.070,-21.30,-25.95,-28.35,16.96
11113,-9.10,-8.96,-50.81,-168.457,-731.445,933.105,-20.85,-24.45,-29.10,16.91
11123,-16.11,-0.38,-57.52,297.363,-1427.734,1566.895,-20.70,-25.80,-27.45,16.77
11139,-25.37,-5.78,-61.24,-606.934,-382.812,1999.939,-20.70,-25.80,-27.45,17.01
11148,-3.97,-10.56,-54.02,454.590,187.500,1176.270,-20.25,-23.40,-28.65,16.82
11158,-6.69,-8.06,-59.37,-241.699,53.223,720.703,-19.65,-26.40,-27.30,16.82
11168,27.70,-17.50,-43.51,609.863,-1013.672,1359.375,-20.25,-25.80,-26.70,16.82
11180,18.46,-15.95,-40.25,579.102,-843.750,207.520,-21.45,-23.85,-28.65,16.91
11190,-14.13,-5.61,-46.78,-829.590,-159.180,1292.969,-20.70,-26.25,-27.45,16.82
11200,4.95,-9.34,-54.82,236.328,-1529.297,133.301,-21.30,-23.70,-28.35,16.91
11210,-27.77,0.73,-52.11,-188.477,3.906,226.562,-21.30,-23.70,-28.35,16.58
11220,-1.69,-6.91,-47.73,450.684,-963.379,784.668,-21.45,-26.55,-28.20,16.62
11230,-12.82,-1.79,-61.00,-142.090,21.973,358.398,-21.00,-24.60,-28.20,16.77
11242,22.34,3.22,-40.87,78.613,-591.309,372.559,-21.60,-25.95,-26.10,16.77
11252,0.36,-6.04,-48.65,-341.309,-814.453,1585.938,-22.05,-25.65,-28.35,17.10
11262,25.69,-7.40,-51.71,384.277,-1183.594,38.086,-22.05,-25.65,-28.35,16.82
11272,-10.43,11.17,-49.88,-786.621,-61.523,1226.074,-22.05,-24.90,-25.80,16.77
11282,18.86,1.66,-47.69,631.348,-1854.004,451.660,-22.65,-24.60,-28.95,16.82
11292,-13.86,17.53,-37.79,-411.133,16.113,329.102,-22.65,-24.60,-28.95,16.77
11302,-0.54,0.12,-42.98,344.727,-523.437,768.555,-22.35,-24.45,-26.85,16.48
11314,0.89,-7.79,-44.40,502.930,-855.469,1464.355,-22.35,-23.70,-27.60,16.77
11324,6.78,1.37,-44.56,-187.500,51.270,473.633,-22.20,-21.90,-27.45,16.82
11334,17.10,-12.75,-31.27,282.227,-706.055,1012.695,-21.45,-25.50,-26.70,16.62
11344,6.44,2.87,-33.08,-783.203,120.605,875.000,-21.45,-25.50,-26.70,16.77
11354,36.82,-0.13,-54.34,1067.383,-1211.426,1126.465,-22.20,-21.45,-25.65,16.82
11364,7.57,7.52,-38.82,-146.484,-738.281,1293.945,-21.45,-23.85,-26.40,16.58
11376,-12.17,4.56,-45.37,-41.016,-682.129,1696.289,-23.40,-23.40,-28.20,16.77
11386,8.09,-8.08,-39.56,338.867,-907.227,627.930,-23.55,-19.65,-28.05,16.82
11396,-14.17,6.30,-48.17,-546.387,85.938,1612.305,-23.25,-22.50,-26.10,16.77
11406,26.09,8.11,-36.17,402.344,-778.320,366.211,-24.00,-22.05,-28.35,16.58
11416,-21.90,-9.00,-44.74,-734.375,852.051,1245.117,-22.65,-20.70,-27.90,16.77
11426,17.54,-13.63,-45.46,470.703,-445.312,246.094,-22.65,-20.70,-27.90,16.96
11436,-13.99,2.78,-45.71,-395.020,-927.246,1999.939,-22.80,-20.40,-28.05,16.77
11448,-13.95,-4.12,-49.11,-308.105,162.598,1703.613,-22.35,-19.65,-27.60,16.82
11458,6.43,-17.00,-56.18,353.516,-694.824,281.738,-22.95,-21.90,-27.90,16.91
11468,-39.03,-10.98,-64.66,-443.848,-615.234,1999.939,-24.00,-21.60,-28.35,16.72
11478,2.60,-2.23,-63.16,226.074,-222.656,681.152,-25.05,-20.10,-28.05,16.72
11488,-27.93,1.05,-38.61,-465.332,-525.391,1789.063,-22.65,-21.45,-27.15,16.62
11498,5.31,8.02,-43.22,199.707,-523.926,-25.391,-23.55,-21.60,-28.80,16.77
11510,14.47,9.21,-51.14,282.227,-289.551,220.703,-21.90,-20.70,-27.45,16.77
11520,-19.24,10.60,-54.24,-34.180,-357.422,575.684,-22.05,-21.60,-27.30,16.82
11530,10.78,-8.31,-41.12,-18.066,208.984,819.336,-24.15,-19.80,-27.30,16.77
11540,14.41,2.14,-44.78,-192.871,-574.707,1216.797,-23.25,-19.20,-27.60,16.82
11550,14.73,-5.50,-49.75,891.602,-500.488,1540.039,-23.25,-19.20,-27.60,17.01
11560,15.05,-5.85,-36.67,326.660,-1048.828,820.801,-24.15,-21.45,-28.65,16.72
11570,-22.80,-6.00,-39.42,-445.801,-444.824,1668.945,-24.15,-18.60,-27.15,16.77
11582,-19.48,-1.09,-48.05,-452.637,-515.625,1939.453,-24.15,-18.60,-27.15,16.58
11592,9.55,-2.53,-32.84,258.301,-585.449,51.758,-22.95,-20.70,-27.15,16.58
11602,-12.83,-8.10,-47.77,-253.418,289.062,1905.273,-24.15,-18.30,-28.20,16.91
11612,-5.26,-7.97,-54.28,-585.449,724.609,974.121,-22.95,-18.30,-27.15,16.77
11622,12.67,4.31,-31.20,844.727,-737.305,652.832,-22.65,-20.70,-27.90,17.01
11632,-2.42,11.48,-32.35,-355.469,-237.793,-223.145,-22.65,-20.70,-27.90,17.01
11644,-10.87,3.05,-41.99,-294.434,-208.008,214.355,-24.15,-18.60,-27.90,16.91
11659,10.86,-1.97,-40.63,531.250,-1277.832,826.660,-23.55,-21.30,-27.60,16.72
11668,-28.19,2.92,-36.06,-541.504,-390.625,1937.988,-23.55,-21.30,-27.60,16.91
11678,8.73,0.13,-27.73,-99.121,-340.332,221.191,-24.90,-19.50,-25.95,16.77
11688,-10.66,2.30,-52.61,389.648,-624.023,1999.939,-23.70,-21.90,-27.15,16.96
11698,-8.64,10.89,-31.43,-45.898,291.016,842.773,-24.90,-19.80,-27.90,16.82
11710,-8.92,7.50,-41.75,-155.273,117.188,72.754,-23.70,-18.30,-27.15,16.62
11720,12.20,-8.44,-42.02,688.965,-669.922,1403.320,-23.70,-18.30,-27.15,16.96
11730,3.40,0.68,-44.25,-36.621,-796.875,585.449,-23.70,-17.40,-28.20,16.96
11740,-2.92,-1.11,-43.32,-405.762,-210.449,126.953,-23.70,-17.40,-28.20,16.62
11750,4.40,-9.66,-47.70,502.930,-845.215,1706.543,-23.70,-17.40,-28.20,16.91
11760,-11.98,0.16,-31.72,-153.320,-1179.199,1298.828,-23.70,-16.65,-27.90,16.82
11770,-23.54,0.45,-34.11,-303.223,210.449,873.047,-23.70,-16.65,-27.90,16.96
11782,-12.97,-7.77,-31.66,-710.449,205.566,1287.598,-22.65,-17.10,-26.40,16.77
11792,14.82,-4.58,-23.92,536.621,-860.840,421.387,-22.65,-17.10,-26.40,17.01
11802,19.10,0.95,-40.26,651.367,-1610.840,1878.418,-24.75,-15.60,-28.35,16.96
11812,-9.53,-2.91,-44.18,-398.437,-132.324,911.133,-22.80,-17.25,-26.55,16.62
11822,-1.72,-5.93,-35.53,-51.270,-371.582,1272.949,-22.80,-17.25,-26.55,16.62
11832,20.39,-8.95,-36.38,698.242,-546.875,1176.270,-23.25,-16.80,-26.85,17.01
11844,14.71,-6.03,-40.15,626.953,-566.895,635.254,-22.80,-14.85,-28.35,16.77
11854,-8.53,-4.47,-39.95,-62.012,-643.066,885.742,-24.00,-16.05,-26.55,16.82
11864,-42.98,-0.01,-138.00,-407.227,-428.711,1057.617,-24.30,-16.05,-28.35,16.82
11874,-3.47,-3.92,-7.39,225.098,-375.488,799.805,-24.30,-16.05,-28.35,16.77
11884,-10.95,7.49,-40.37,351.562,-299.316,993.164,-22.65,-15.90,-26.70,16.62
11894,-15.75,10.79,-30.40,-590.332,-406.738,1644.043,-23.70,-17.10,-26.40,16.62
11904,-8.22,4.81,-24.14,-90.332,-175.781,625.000,-24.30,-15.30,-28.05,16.72
11916,2.48,8.07,-17.80,-256.836,175.293,1059.082,-23.40,-14.25,-27.90,16.58
11926,3.56,4.41,-41.15,232.910,-495.605,838.379,-21.60,-16.80,-26.85,16.38
11936,-3.97,-1.69,-47.13,-355.957,-828.613,985.840,-24.30,-15.60,-28.35,17.01
11946,-8.07,4.09,-33.84,-231.445,-215.820,1136.719,-22.95,-13.50,-29.40,16.96
11956,10.14,-0.24,-38.53,125.488,-1233.887,1054.688,-22.95,-13.50,-29.40,16.82
11966,-13.84,0.19,-45.05,242.676,-8.301,975.586,-23.40,-15.00,-28.65,16.96
11976,6.14,-3.40,-38.59,5.371,-332.520,1310.547,-22.95,-11.85,-28.20,16.77
11988,8.40,-8.76,-37.70,-178.711,-625.977,1108.398,-22.65,-12.75,-28.20,16.82
11998,-3.00,5.34,-44.37,205.566,146.973,973.145,-22.35,-13.65,-27.30,16.48
12008,7.02,-4.03,-33.19,-75.684,-1251.465,830.078,-22.35,-14.10,-28.05,16.82
12018,-1.84,-7.41,-34.13,416.992,-1003.906,991.211,-22.20,-11.55,-28.20,16.91
12028,-21.47,-13.49,-34.82,-331.543,270.020,1229.980,-22.65,-11.10,-28.65,16.72
12038,-4.85,-2.83,-42.98,-209.473,-242.187,307.617,-22.65,-11.10,-28.65,16.82
12050,-17.24,-8.90,-29.10,-286.133,-246.094,1202.637,-23.70,-13.05,-29.70,17.01
12060,1.76,-6.79,-36.40,-249.512,-164.551,288.086,-22.35,-11.70,-28.80,16.77
12070,15.76,-9.37,-32.68,113.281,-1238.770,904.297,-22.95,-13.80,-27.45,16.82
12080,-5.45,-1.33,-37.32,-126.953,-839.355,1265.137,-23.25,-12.15,-30.30,16.58
12090,-4.66,7.25,-40.18,-412.598,-7.812,683.105,-23.25,-12.15,-30.30,16.82
12100,-2.79,4.95,-31.82,402.344,-285.156,1877.930,-22.05,-11.70,-28.05,16.91
12110,4.22,-5.82,-36.79,-180.664,-746.094,1448.242,-22.80,-12.45,-29.10,17.10
12122,12.60,-0.18,-29.40,-68.359,-502.930,1004.883,-22.05,-10.95,-30.75,16.82
12132,9.67,-3.98,-28.86,-13.672,-661.621,1473.633,-22.95,-11.55,-30.90,16.58
12142,-12.79,1.10,-44.40,-332.520,-233.398,984.863,-20.85,-10.95,-31.80,16.82
12152,-4.94,9.27,-67.82,329.590,-437.988,979.004,-21.60,-10.50,-30.30,16.72
12162,6.53,-11.08,-45.02,-245.117,-173.340,956.543,-21.60,-10.50,-30.30,16.58
12179,5.53,-4.69,-43.42,-73.730,-753.906,1034.180,-21.00,-10.65,-29.40,16.91
12188,13.10,5.24,-38.11,422.363,-1841.797,1344.727,-22.05,-10.95,-29.55,16.91
12198,-6.88,-9.69,-54.95,-437.500,-615.234,1297.852,-22.05,-10.95,-29.55,16.77
12208,-16.78,-1.52,-25.15,-108.887,-203.125,903.809,-19.50,-10.65,-28.95,16.77
12218,7.76,-3.37,-35.82,-3.418,-1148.438,457.520,-20.85,-10.95,-28.80,16.62
12228,-12.34,14.41,-24.29,257.812,-562.500,620.117,-20.85,-10.95,-29.55,16.72
12238,-13.10,7.11,-55.32,-564.453,-688.477,1002.441,-21.45,-9.45,-28.65,16.62
12250,-11.06,3.27,-70.67,-234.863,-212.891,1280.273,-21.45,-9.45,-28.65,16.48
12260,1.60,-7.85,-55.69,-208.008,-779.297,486.816,-20.25,-10.35,-28.65,16.72
12270,0.36,-8.12,-44.21,45.898,-265.137,1258.301,-20.70,-9.90,-28.95,16.91
12280,6.83,-4.51,-34.00,-535.156,-1459.473,1187.012,-20.70,-9.90,-28.95,16.82
12290,-13.78,6.37,-50.92,-273.437,-343.750,1002.930,-20.10,-8.10,-31.05,16.62
12300,-1.51,8.84,-44.56,-730.957,-526.855,483.398,-20.25,-9.45,-29.70,16.77
12310,8.13,9.13,-22.40,121.094,-666.992,1288.574,-20.25,-7.95,-28.65,16.77
12322,-0.71,13.82,-50.10,-364.746,-427.246,438.477,-20.55,-8.10,-29.55,16.77
12332,10.34,12.05,-53.86,350.586,-458.496,1391.602,-20.55,-7.65,-29.10,16.58
12342,14.61,14.98,-53.50,-155.762,-858.398,1021.973,-20.55,-6.90,-30.75,16.72
12352,3.30,-1.37,-50.33,184.570,-700.195,1601.074,-20.55,-6.90,-30.75,16.77
12362,-8.34,-6.85,-67.93,194.336,-626.465,614.746,-19.65,-6.15,-31.05,16.82
12372,-15.81,-3.05,-45.69,-661.133,-376.953,1131.836,-18.75,-7.05,-31.65,16.82
12384,-4.05,-5.37,-35.56,-124.023,-555.664,881.348,-18.90,-7.35,-32.25,16.62
12394,-15.07,-0.11,-60.61,-299.805,-60.547,496.582,-18.15,-6.45,-31.50,16.82
12404,18.34,-6.75,-42.69,-206.543,-771.484,544.434,-18.15,-6.45,-31.50,16.77
12414,2.13,-2.18,-50.50,-332.031,-626.953,1377.930,-18.60,-6.45,-31.80,16.72
12424,12.95,-6.37,-50.23,-3.418,-478.027,180.176,-16.80,-5.85,-31.20,16.58
12434,2.38,0.94,-44.55,-216.797,-622.070,1205.566,-17.25,-5.10,-31.65,16.91
12444,0.24,2.73,-36.79,-293.457,-951.660,908.691,-17.85,-4.50,-31.80,16.72
12456,-5.04,-1.07,-44.66,-227.539,-758.789,689.941,-16.50,-5.85,-30.90,16.77
12466,-7.68,-3.69,-39.33,-95.215,-547.852,912.598,-16.50,-5.85,-31.20,16.96
12476,-3.56,0.85,-46.50,-175.293,-221.680,1704.102,-16.50,-4.35,-30.45,16.82
12486,2.61,-2.27,-39.36,23.926,-435.547,778.809,-16.50,-4.35,-30.45,16.82
12496,8.06,-0.31,-44.29,243.164,-395.508,895.020,-16.20,-4.05,-29.55,16.48
12506,2.12,4.80,-31.74,-240.234,-417.969,659.668,-17.40,-5.70,-29.55,16.72
12518,4.09,-7.60,-38.20,-246.582,-772.461,789.551,-17.10,-4.05,-29.10,16.48
12528,-7.83,3.27,-43.79,-365.723,-893.555,771.973,-17.10,-6.45,-28.05,16.77
12538,2.73,6.12,-34.66,157.715,-937.012,-1.465,-17.25,-6.30,-28.20,16.91
12548,-3.98,2.05,-30.71,125.000,-304.687,1999.939,-17.55,-5.85,-27.90,16.72
12558,-1.00,0.67,-51.40,-215.820,-503.418,1291.504,-17.85,-4.95,-28.35,16.77
12568,11.76,-3.17,-43.95,-182.129,-776.367,499.023,-17.85,-4.95,-28.35,16.72
12578,5.75,-4.97,-34.27,-304.199,-97.168,1563.965,-16.20,-4.95,-30.30,16.48
12590,4.80,-0.46,-40.59,-148.926,-370.605,803.711,-16.80,-5.85,-29.70,16.77
12600,4.37,-3.86,-36.40,-317.383,-580.566,1418.945,-17.55,-5.55,-30.15,16.77
12610,12.12,-6.92,-46.19,-133.301,-718.750,1111.816,-16.05,-5.10,-30.15,16.91
12620,-0.68,-3.38,-36.92,-69.336,-666.504,943.359,-16.05,-5.10,-30.15,16.82
12630,-2.73,3.02,-40.85,-189.453,-285.645,927.246,-16.80,-4.65,-30.90,16.96
12640,1.24,-3.50,-34.62,-52.246,-866.211,1565.918,-15.75,-3.90,-31.65,16.96
12650,3.92,-0.44,-38.83,-62.500,-148.926,864.258,-15.75,-3.90,-31.65,16.91
12662,7.64,5.52,-36.69,-4.395,-303.223,742.187,-17.40,-2.85,-31.05,16.96
12672,-7.09,1.87,-46.53,-95.215,-627.930,989.258,-15.90,-1.65,-30.30,16.91
12682,-10.44,-6.42,-36.02,-9.766,-702.637,851.562,-14.70,-2.55,-30.30,16.72
12697,-5.38,-2.63,-35.66,-259.277,187.500,765.137,-14.70,-2.55,-30.30,16.96
12706,14.95,-10.38,-52.82,185.547,-629.395,356.445,-15.90,-1.65,-29.85,16.96
12716,6.01,-12.54,-44.92,107.910,-147.949,1155.762,-14.40,-2.10,-29.55,16.77
12726,9.32,5.15,-43.89,49.805,-488.770,54.688,-14.40,-2.10,-29.55,16.77
12738,-4.44,-10.20,-48.68,-304.687,-586.914,831.543,-15.75,-2.25,-29.40,16.77
12748,-11.63,-5.60,-42.57,-75.195,-780.273,808.594,-15.45,-1.65,-30.30,16.58
12758,-11.80,-1.12,-38.27,-211.426,-349.609,919.922,-14.70,-2.55,-29.55,16.77
12768,-2.27,4.45,-39.30,-138.672,-652.832,895.508,-15.45,-1.65,-29.85,16.91
12778,1.15,10.83,-28.28,152.832,-611.816,1941.895,-15.45,-1.65,-29.85,16.77
12788,-2.02,15.27,-30.60,-319.336,-327.148,526.367,-15.30,-0.75,-29.40,16.72
12800,-0.35,3.07,-34.56,-99.121,113.770,1092.773,-15.45,-0.90,-30.30,16.77
12810,9.28,3.76,-35.02,125.000,-936.523,1238.281,-15.45,-0.90,-30.30,16.96
12820,-1.69,4.26,-38.08,-126.465,-321.777,1043.457,-15.15,-2.10,-31.05,16.91
12830,1.82,0.38,-39.58,-97.656,-1246.582,398.437,-13.50,-1.35,-30.75,16.77
12840,-13.16,-4.82,-34.89,-68.359,-1035.645,1734.863,-14.55,-0.75,-31.20,16.96
12850,-12.91,-2.27,-39.64,-164.062,-354.492,130.859,-14.40,-1.35,-30.30,17.01
12860,-9.94,-2.56,-36.66,-315.430,-579.102,902.344,-14.40,-1.35,-30.30,16.82
12872,-2.84,-9.87,-42.12,-354.004,-41.504,1546.875,-13.20,-1.35,-29.85,16.82
12882,12.63,-1.59,-47.05,-224.609,-630.371,677.246,-13.20,-1.35,-29.85,16.82
12892,8.77,-1.57,-42.19,-204.590,-847.656,842.285,-12.45,-0.90,-29.85,16.77
12902,13.18,4.23,-46.66,314.453,-1201.660,1007.324,-13.95,-1.35,-30.30,16.91
12912,-4.89,-3.50,-48.38,-13.672,-325.195,1201.660,-13.95,-1.35,-30.30,16.58
12922,1.73,-1.47,-37.85,-395.996,-984.863,863.770,-13.50,-1.65,-29.55,16.96
12932,-9.55,-4.32,-51.95,-213.379,-328.125,1288.574,-13.50,-1.65,-29.55,16.91
12944,-11.44,-4.51,-46.44,-365.234,-526.367,1470.703,-13.95,-0.45,-30.30,16.77
12954,1.88,-4.87,-48.98,-136.230,-673.828,1619.141,-13.50,-1.35,-31.80,16.77
12964,11.07,-6.73,-45.39,84.473,-290.039,1331.543,-12.30,-0.75,-30.45,16.91
12974,9.92,4.44,-45.53,-465.332,-377.441,817.871,-11.10,-0.30,-30.15,16.82
12984,14.21,-3.61,-44.36,-278.320,-715.332,957.520,-11.70,-0.45,-30.75,16.77
12994,3.39,4.17,-44.31,133.301,-522.949,898.926,-12.00,0.15,-31.05,16.43
13006,-11.87,0.44,-43.19,-107.910,-884.277,591.309,-11.85,0.30,-30.45,17.10
13016,-17.87,-4.86,-47.89,-413.086,-782.715,659.668,-11.85,0.30,-30.45,16.82
13026,-17.62,-6.83,-45.11,-84.961,114.258,1744.141,-11.10,0.30,-31.65,16.77
13036,-5.66,-9.37,-44.52,-115.234,-271.484,820.312,-10.35,-1.05,-30.15,16.96
13046,-3.58,-3.72,-57.66,-326.172,-125.488,1408.203,-11.85,0.30,-28.95,16.91
13056,4.69,2.66,-44.95,-223.145,-439.941,791.016,-11.70,0.90,-29.85,16.82
13066,9.39,-4.37,-43.02,61.523,-397.461,1041.016,-11.70,0.90,-29.85,16.77
13077,19.98,-0.63,-41.56,-135.742,-568.359,557.129,-10.95,-0.45,-30.30,16.91
13087,12.63,9.99,-46.83,-93.262,-701.172,445.312,-10.50,0.15,-29.55,16.72
13097,-1.71,8.33,-45.06,-163.086,-516.113,1685.547,-10.50,0.15,-29.55,16.62
13107,4.25,4.43,-43.25,-78.613,-595.215,1359.375,-10.05,1.35,-29.85,16.77
13117,-13.25,7.83,-43.36,-290.039,-683.594,880.859,-9.60,0.00,-29.70,16.96
13127,-14.09,-0.75,-46.11,-120.605,-1.953,1242.188,-10.05,-0.15,-31.05,16.62
13137,-5.77,-7.11,-42.53,99.121,-210.449,1741.211,-9.30,0.15,-30.75,16.62
13148,-8.90,-3.87,-41.42,-443.848,-18.555,1389.160,-9.30,0.15,-30.75,16.58
13158,14.66,-2.07,-18.05,-48.828,-863.770,816.406,-8.55,1.35,-31.05,16.48
13168,4.98,-1.93,-51.77,-145.020,-50.293,1696.289,-10.50,0.90,-31.05,16.96
13178,12.93,1.36,-40.92,-139.648,-688.965,260.254,-10.50,0.90,-31.05,16.77
13188,-4.50,2.21,-40.50,-146.973,-894.043,1637.207,-8.40,2.25,-31.20,17.01
13198,-1.81,-1.03,-38.56,-61.035,-848.633,764.648,-9.60,1.50,-30.90,16.82
13215,-7.37,1.24,-39.29,-102.539,-145.508,787.109,-8.70,2.70,-31.20,16.72
13224,-8.15,-9.13,-27.27,125.488,-369.629,1669.922,-8.70,2.70,-31.20,16.82
13234,-0.80,1.29,-47.12,229.004,-192.871,915.527,-9.30,0.45,-30.30,16.77
13244,4.31,-5.08,-46.00,-24.414,-673.340,1293.457,-8.40,2.25,-31.20,16.91
13254,-0.87,-4.40,-44.42,-256.836,170.410,1064.941,-8.40,2.25,-31.20,16.96
13264,15.04,-5.46,-33.65,228.027,-825.195,767.578,-7.20,1.95,-32.40,16.77
13274,-4.07,-2.83,-46.76,-256.348,-380.859,1652.832,-7.95,2.25,-30.15,16.91
13286,-11.39,-4.21,-44.52,-44.434,-344.238,1156.250,-7.20,2.70,-31.95,16.72
13296,5.33,-10.02,-41.82,-273.926,-636.719,729.004,-6.90,0.75,-30.90,16.77
13306,-7.34,-4.47,-44.34,-354.004,252.441,1123.535,-6.90,0.75,-30.90,16.43
13316,19.38,-8.59,-42.79,-120.605,-868.652,732.422,-8.40,2.70,-30.45,16.77
13326,15.76,-2.79,-34.64,-204.102,-598.633,924.316,-7.95,1.50,-32.40,16.77
13336,10.16,-1.68,-51.69,-101.563,-536.621,869.629,-7.95,1.50,-32.40,16.96
13346,-0.60,6.71,-52.39,-251.465,-99.609,1290.039,-6.15,1.50,-31.65,17.01
13358,-0.93,8.31,-46.22,3.906,-593.262,1670.898,-7.20,1.50,-31.20,16.82
13368,1.83,1.10,-57.80,273.437,-687.500,314.453,-5.70,2.70,-32.40,16.72
13378,-13.01,4.31,-34.44,-41.504,-497.559,1989.258,-5.70,1.95,-31.65,16.58
13388,-0.06,2.55,-45.99,-34.668,-777.832,90.332,-5.70,1.95,-31.65,16.72
13398,-15.82,-0.63,-41.19,-84.961,31.250,1480.469,-5.55,2.55,-30.75,16.91
13408,5.51,-5.95,-45.53,255.859,-71.289,733.398,-6.30,2.85,-31.05,16.77
13418,-0.24,-2.45,-38.01,-208.496,-257.812,1453.125,-6.15,2.25,-30.45,16.91
13430,1.47,0.16,-48.99,-51.758,-342.773,1875.488,-7.20,2.70,-31.95,16.82
13440,13.86,-3.88,-41.31,219.238,-651.855,529.297,-7.05,2.55,-29.85,16.91
13450,-1.05,-2.12,-44.18,-296.875,-757.812,1278.320,-5.85,2.10,-31.80,16.82
13460,1.97,-2.06,-35.40,-247.070,-268.066,1264.648,-6.90,2.70,-31.95,17.01
13470,-2.93,-1.56,-46.34,232.422,-910.645,1706.055,-6.90,2.70,-31.95,16.62
13480,-5.58,-2.43,-46.73,-49.805,-389.648,780.273,-4.95,3.45,-32.70,16.77
13490,-4.27,1.40,-45.31,97.168,-441.406,1224.609,-3.75,1.95,-32.40,16.82
13502,7.23,-3.19,-37.17,123.535,-490.234,1801.758,-3.75,2.25,-32.40,16.77
13512,6.04,6.02,-42.97,142.578,-71.777,664.551,-4.95,3.15,-32.40,16.72
13521,2.73,-4.53,-48.50,-213.379,-391.602,1464.844,-4.95,3.15,-32.40,16.91
13531,9.61,-7.04,-37.29,110.840,-610.352,450.195,-3.15,2.85,-33.00,16.72
13541,-10.50,-4.27,-40.37,-134.766,-19.043,1452.637,-2.40,3.30,-32.25,16.58
13551,4.99,-10.49,-46.87,121.582,-679.687,931.641,-2.40,3.30,-32.25,16.91
13561,-2.65,-14.32,-39.53,-119.141,-1003.906,1999.939,-4.20,3.90,-33.45,16.72
13573,-6.98,-9.85,-27.03,221.191,-424.805,1999.939,-4.80,3.75,-31.80,16.91
13583,-3.82,-3.18,-37.20,10.742,-416.504,299.316,-2.85,3.75,-33.30,16.72
13593,-3.11,-11.70,-37.19,-254.883,-465.332,1722.656,-1.80,4.35,-34.20,16.82
13603,3.65,-1.58,-43.45,-182.129,-268.555,327.148,-1.80,4.35,-34.20,16.77
13613,5.61,-1.03,-29.78,78.125,-372.070,1186.035,-0.30,1.65,-33.00,16.43
13623,10.35,1.80,-38.21,-76.172,-501.465,494.141,-0.30,4.35,-33.45,17.01
13635,10.98,0.24,-28.88,-333.984,-224.609,904.297,-1.05,2.25,-31.65,16.77
13645,11.62,-8.54,-39.19,235.840,-1143.066,1444.336,-0.75,3.15,-32.40,16.58
13655,-9.26,6.48,-44.02,-92.773,-240.234,607.422,-1.20,2.55,-30.75,16.91
13665,-1.43,1.54,-34.08,-33.691,-1106.445,310.059,-0.75,3.45,-30.90,16.96
13675,-20.39,6.63,-36.03,-342.285,328.125,969.238,-0.75,3.45,-30.90,16.91
13685,4.84,-2.56,-44.69,196.777,-565.918,1059.570,-1.50,3.45,-31.20,16.96
13695,-9.79,6.08,-54.66,-621.582,303.711,733.887,-0.30,2.25,-32.40,16.38
13707,7.24,4.85,-45.24,-493.164,-176.758,853.027,-0.30,2.25,-32.40,16.91
13717,25.24,13.53,-37.60,173.828,-759.766,668.457,-0.30,1.95,-31.20,16.48
13732,-17.89,2.26,-51.96,-297.363,-590.820,1536.133,-1.65,2.55,-32.25,16.72
13741,-20.83,1.78,-45.72,-176.270,-813.965,1999.939,-0.75,4.35,-30.45,16.82
13751,-30.00,6.01,-41.44,-330.566,-574.707,-213.379,0.75,2.25,-30.90,16.72
13761,-17.45,-1.18,-37.58,236.816,-372.070,916.504,0.75,2.25,-30.90,16.72
13771,-26.26,5.59,-39.47,-44.434,244.629,524.414,0.00,2.70,-30.45,16.82
13780,-15.18,0.20,-48.87,-443.848,-84.961,1999.939,0.00,2.25,-31.65,16.82
13792,-5.17,-0.62,-39.08,106.445,-102.051,1440.918,0.00,2.25,-31.65,16.82
13802,-5.60,9.40,-48.64,-577.148,169.434,247.559,1.20,2.55,-31.05,16.77
13811,-10.15,8.37,-43.26,-162.598,-80.078,616.699,1.65,1.65,-31.05,16.96
13821,-15.27,-3.17,-41.77,70.313,-253.418,937.012,0.15,1.65,-30.75,16.62
13831,-15.54,-15.93,-39.13,42.480,-416.016,1999.939,1.05,3.90,-32.70,16.58
13841,-26.04,15.53,-72.79,-171.387,-84.473,1085.449,1.05,3.90,-32.70,16.77
13853,10.55,-0.32,-53.67,-223.145,-967.773,1587.402,1.05,0.75,-33.15,16.77
13863,-0.95,-21.52,-38.47,-668.457,136.230,1999.939,2.25,0.75,-31.65,16.62
13873,7.27,-7.09,-49.26,66.895,-543.945,757.812,2.25,0.75,-31.65,16.96
13882,9.02,-27.96,-18.34,171.387,-972.168,1999.939,1.20,0.15,-30.75,16.77
13892,-7.61,-29.89,-49.96,36.133,-1104.492,1038.086,2.25,1.50,-31.20,16.58
13902,-22.22,-22.53,-44.11,415.039,-546.875,834.473,0.90,2.55,-31.05,16.82
13912,2.32,-26.19,-55.67,24.902,297.363,1367.188,1.65,3.30,-31.80,16.96
13924,13.41,-24.06,-59.72,118.652,-1301.270,1737.793,1.50,2.25,-31.20,16.77
13934,-0.30,-22.37,-49.58,-75.195,-982.910,1409.668,0.30,2.70,-30.15,16.91
13944,-6.51,-24.21,-33.64,16.113,-1309.570,985.352,0.30,2.70,-30.15,16.91
13954,-21.62,-19.55,-36.38,-440.430,-89.355,582.520,1.20,1.35,-31.50,16.77
13964,-12.08,-21.45,-51.97,489.258,-1406.738,1999.939,0.15,1.65,-31.80,16.91
13974,-23.05,-22.12,-47.53,-353.516,-274.902,267.090,1.20,1.65,-31.80,16.38
13984,-5.02,-16.50,-56.80,-232.422,-1039.063,269.043,0.15,0.90,-30.75,17.10
13996,-3.82,-5.32,-38.06,67.871,-751.953,616.211,0.15,0.90,-30.75,16.48
14006,-8.99,4.85,-38.54,-652.344,-33.691,1186.035,1.65,1.35,-29.85,16.82
14016,18.20,17.06,-38.34,-633.301,-271.973,464.355,0.90,1.35,-31.05,16.96
14026,5.78,30.89,-53.41,-163.574,-94.727,1367.188,1.50,3.45,-31.65,16.96
14035,3.99,32.34,-54.24,-63.965,580.078,597.656,3.00,1.95,-30.90,16.82
14045,18.96,30.50,-88.53,-53.223,-854.004,996.582,3.00,1.95,-30.90,16.58
14054,-15.05,26.04,-70.31,59.570,-657.227,1303.711,3.00,1.95,-30.90,16.91
14066,-15.49,20.67,-52.33,-182.617,-873.535,1999.939,2.85,1.35,-33.30,17.01
14076,-6.12,15.44,-60.78,-585.937,-701.660,788.086,2.85,1.35,-33.30,16.82
14086,-9.49,20.40,-44.99,-8.789,-73.730,1345.703,3.75,3.90,-33.15,16.96
14096,12.50,-1.15,-47.64,-194.824,-297.363,1999.939,4.50,1.05,-31.95,16.82
14106,11.05,7.69,-50.91,241.211,-1314.941,-266.602,4.35,1.35,-33.00,16.72
14116,2.93,1.47,-53.64,84.961,-271.484,1407.227,4.50,1.50,-31.95,16.77
14125,9.37,-3.17,-56.30,127.930,-629.883,729.980,4.50,1.50,-31.95,16.82
14137,12.42,0.21,-40.77,167.969,-726.562,344.727,5.70,1.95,-33.90,16.91
14147,-16.50,-1.53,-51.86,-483.398,-214.355,1352.539,5.85,2.85,-33.30,16.91
14157,9.19,-6.58,-57.08,-71.289,-791.992,232.422,5.85,2.85,-33.30,16.82
14167,-0.31,-8.79,-55.70,-244.141,-303.223,984.375,6.30,0.90,-33.30,16.72
14177,12.97,-9.51,-47.13,-279.297,-1360.352,729.980,6.15,2.25,-32.70,16.82
14187,-6.90,3.82,-56.08,-513.184,-112.793,846.191,6.30,0.90,-31.50,16.72
14197,18.51,-3.46,-50.57,86.914,-1310.059,771.973,6.30,2.10,-33.00,16.77
14208,3.79,-7.74,-37.73,-471.680,-310.547,1750.488,6.30,2.10,-33.00,16.91
14218,5.56,-5.93,-45.87,112.793,-1156.250,1102.539,7.35,0.45,-32.55,16.82
14227,5.24,1.50,-48.26,145.020,-881.836,716.797,6.90,1.50,-33.45,16.77
14242,-11.36,6.08,-47.53,-474.609,-408.203,917.480,6.90,1.50,-33.45,16.82
14251,-1.22,5.99,-58.35,72.266,-1117.676,244.629,7.65,0.75,-33.45,16.82
14262,2.45,5.79,-41.95,31.738,-650.391,883.301,8.40,1.95,-33.90,16.82
14271,9.01,-1.88,-47.84,-247.559,-1031.738,819.336,7.20,2.25,-33.90,16.82
14281,-8.13,9.24,-53.15,113.281,-287.598,1386.719,8.55,1.65,-33.75,16.72
14290,-3.83,-4.26,-50.33,-218.262,-309.082,1786.621,8.55,1.65,-33.75,17.10
14300,14.81,-4.02,-55.09,-339.355,-946.777,382.324,8.40,0.75,-32.70,16.91
14310,0.68,1.50,-50.85,-61.523,-425.293,814.453,8.70,0.75,-33.90,16.62
14319,-13.49,-1.34,-50.29,-274.902,-121.094,1855.957,8.70,0.75,-33.90,16.48
14331,-6.24,-0.35,-57.61,-269.043,-294.922,937.012,10.50,1.35,-33.00,16.72
14341,5.79,-1.69,-43.55,119.629,-677.734,916.016,8.40,1.05,-34.20,16.62
14351,-2.69,-3.40,-42.51,-171.387,-548.828,777.344,10.35,1.50,-33.90,16.96
14361,2.52,-7.70,-51.43,-467.773,-333.984,1008.789,9.75,0.90,-32.55,16.91
14371,11.76,-3.31,-48.86,39.063,-382.324,455.566,9.75,0.90,-32.55,16.82
14381,3.95,-3.54,-47.90,132.324,-779.297,1633.301,10.95,1.65,-33.00,16.96
14390,10.71,-3.88,-52.85,14.648,-1031.738,897.949,10.50,0.90,-33.00,16.58
14402,-0.44,-0.11,-47.88,-140.137,-961.914,1056.641,10.35,1.05,-33.45,16.82
14412,5.99,-1.21,-45.47,299.316,-385.742,922.852,11.70,0.90,-33.00,16.72
14422,-1.48,-5.14,-49.11,-534.668,-499.512,1250.488,10.50,0.90,-33.30,16.91
14432,8.33,-4.49,-53.53,258.789,-362.793,827.148,10.95,1.65,-34.05,16.96
14441,-1.21,-1.69,-45.40,8.789,-349.121,1236.328,12.30,0.00,-31.95,16.91
14451,-2.98,-5.99,-43.66,-165.039,-591.309,1670.898,12.30,0.00,-31.95,16.82
14461,3.81,2.76,-43.40,338.867,-417.969,555.664,12.00,0.15,-34.05,16.62
14473,11.03,-0.89,-35.22,281.738,-899.414,464.844,12.75,0.45,-34.05,16.77
14483,-11.40,-12.28,-53.64,-615.723,-118.164,1856.934,11.25,0.45,-33.75,16.62
14493,13.18,-14.19,-57.52,-63.477,-1265.137,1586.914,12.00,0.45,-34.05,17.01
14503,8.88,-11.48,-45.62,87.402,-177.734,1467.285,12.00,0.45,-34.05,16.77
14512,-7.05,2.92,-34.69,-25.879,-179.687,616.699,13.20,-0.15,-33.30,16.82
14522,-5.87,-5.73,-45.95,-33.691,-85.938,1298.828,13.95,0.90,-34.50,16.77
14532,-0.84,-4.29,-40.73,-237.793,-838.867,941.895,13.95,0.90,-34.50,16.58
14544,-7.37,-17.50,-86.11,170.410,-671.875,628.418,13.35,1.05,-33.45,16.43
14554,-8.19,10.08,-59.75,-174.805,-540.527,925.781,13.20,-0.15,-34.80,16.72
14564,7.35,-7.36,-51.32,53.223,-956.055,745.605,13.50,-0.45,-34.05,16.96
14574,-13.37,2.25,-51.24,-627.441,-176.758,80.566,13.05,-0.30,-34.20,17.01
14584,14.18,-8.98,-42.31,-64.941,-1494.629,1142.090,13.05,-0.30,-34.20,16.77
14594,-3.77,4.44,-53.08,89.844,-474.609,740.234,13.80,-1.50,-33.15,16.82
14606,12.16,3.45,-47.55,-250.977,-472.656,366.699,14.10,-1.05,-34.65,17.01
14616,4.36,1.75,-45.63,-168.945,-647.461,1566.406,14.85,-1.05,-33.45,16.82
14626,7.78,0.50,-55.72,192.383,-662.598,474.121,14.55,-0.75,-34.65,16.91
14635,2.93,8.82,-44.44,332.031,-554.687,1048.340,14.55,-0.75,-34.65,16.91
14645,-9.90,7.20,-60.53,-278.320,-588.867,1127.441,15.15,-0.90,-34.50,16.82
14655,-3.56,2.62,-41.81,51.758,-835.937,794.434,15.15,-0.90,-34.50,16.82
14665,-13.36,-3.38,-53.57,-469.238,-311.523,1606.445,15.15,-0.90,-34.50,16.91
14677,8.58,6.53,-45.75,-228.516,242.676,1204.590,14.85,-3.45,-33.90,16.96
14687,23.05,7.53,-47.93,26.367,-1154.297,1551.270,14.85,-3.45,-33.90,16.72
14697,-10.43,7.60,-55.89,-15.625,-910.156,758.301,16.05,-3.15,-33.90,16.58
14707,-16.26,-1.78,-49.63,-503.418,-723.145,667.969,15.75,-2.70,-34.65,16.58
14717,0.64,8.07,-52.29,128.906,-128.418,792.969,16.05,-2.25,-33.45,16.91
14727,5.78,0.14,-42.89,-158.691,-896.973,1707.520,15.45,-2.85,-33.75,16.96
14737,-9.02,-5.78,-61.95,-76.660,-604.492,1124.512,15.45,-2.85,-33.75,17.01
14763,2.71,-13.11,-58.95,-229.004,-812.012,1388.672,16.50,-4.35,-33.15,16.96
14772,3.67,2.78,-53.63,186.035,-871.094,247.559,16.05,-2.25,-33.15,16.72
14782,-5.65,2.52,-55.31,-227.539,-131.836,1345.215,16.05,-2.70,-34.65,16.91
14792,10.50,6.79,-40.84,153.320,-759.766,610.352,16.65,-2.55,-34.50,16.96
14802,-5.43,5.62,-54.94,-381.348,-537.109,1617.188,18.00,-2.25,-35.40,16.77
14812,4.66,-8.27,-52.80,-211.914,-357.910,1052.734,18.45,-4.35,-34.95,16.96
14822,0.79,6.08,-63.63,-264.160,-724.121,1245.605,18.45,-4.35,-34.95,16.48
14834,-4.36,5.79,-50.36,9.766,-1017.578,722.656,18.00,-3.45,-34.95,16.77
14844,-1.71,15.41,-54.90,-87.402,-717.285,796.875,18.75,-4.35,-35.70,16.58
14854,3.04,6.43,-55.11,-119.141,-774.414,781.250,18.60,-4.05,-35.55,16.77
14864,-11.47,8.99,-51.11,-141.113,-1061.523,1118.164,17.85,-4.05,-35.25,16.82
14874,-2.11,0.31,-68.08,-188.965,-843.262,1379.395,17.85,-4.05,-35.25,16.96
14884,4.73,3.21,-54.32,7.812,-433.105,-8.301,18.60,-3.75,-35.55,16.96
14894,-2.85,0.44,-58.54,-209.961,-532.715,1848.145,19.35,-3.75,-34.80,16.43
14906,2.50,-0.71,-53.53,-215.820,-551.270,1163.574,17.55,-4.35,-35.40,16.91
14916,0.47,-2.73,-55.66,5.371,-711.914,1999.939,20.25,-3.90,-35.40,16.82
14926,2.79,-3.15,-54.98,22.949,-399.902,917.969,19.95,-5.55,-35.70,16.77
14936,-9.98,-3.21,-62.79,-39.063,-551.758,577.637,20.70,-4.65,-35.70,16.77
14946,0.31,-7.80,-48.60,-98.633,-732.422,1228.516,20.70,-4.65,-35.70,16.77
14956,1.53,-10.95,-52.29,-428.223,-498.535,1143.555,20.10,-5.70,-36.00,16.96
14966,-4.83,-10.74,-59.12,-398.437,-728.516,1368.652,21.90,-5.10,-35.40,16.96
14978,-4.58,-5.69,-53.52,87.891,-830.078,1279.297,21.90,-5.10,-35.40,16.91
14988,-2.40,-9.04,-58.98,-28.320,-591.309,770.996,20.55,-6.15,-37.05,16.96
14998,-2.62,-6.16,-45.73,-273.437,-154.297,545.410,20.10,-6.45,-36.75,16.77
15008,1.88,-1.62,-55.95,-188.965,-406.738,749.023,20.85,-6.90,-36.00,16.77
15018,-0.13,-9.56,-51.17,49.316,-102.539,489.746,20.70,-5.85,-36.15,16.82
15028,-4.24,-9.00,-53.65,20.020,-476.562,938.965,20.70,-5.85,-36.15,16.77
15040,12.47,-0.19,-51.23,62.012,-1007.812,837.891,20.85,-8.85,-35.55,16.91
15050,8.23,4.09,-60.63,-107.422,-682.129,1410.645,22.65,-6.30,-35.70,16.96
15060,16.65,-0.95,-42.31,-87.891,-1268.066,1058.594,22.65,-6.30,-35.70,16.91
15070,2.75,-0.04,-45.23,-188.477,-917.480,889.648,21.00,-7.05,-36.60,16.91
15080,-1.69,-6.93,-55.95,-145.996,-312.500,1820.313,21.60,-7.35,-36.00,16.62
15090,7.92,-2.76,-53.10,175.293,-412.109,154.785,21.30,-8.10,-36.30,17.01
15100,5.58,0.50,-51.41,-119.141,-826.172,1154.297,21.90,-7.50,-36.60,16.91
15112,1.46,2.37,-42.06,175.293,-458.008,871.582,21.90,-7.50,-36.60,16.96
15122,-6.23,-6.34,-57.66,-81.543,-350.098,1535.156,20.55,-9.75,-36.75,17.15
15132,-0.03,-6.92,-56.24,-374.023,-580.078,507.812,22.95,-7.50,-36.15,16.96
15142,3.44,10.89,-42.05,-164.062,-773.437,139.648,20.70,-8.70,-35.70,16.62
15152,-1.21,5.99,-44.07,-334.961,-842.773,1630.859,20.85,-9.75,-37.05,16.96
15162,3.11,0.26,-44.21,217.773,-208.496,982.422,23.40,-8.70,-35.40,16.58
15171,-3.77,8.66,-51.84,164.551,-348.145,523.437,20.85,-9.75,-36.30,16.91
15183,0.68,4.32,-46.11,75.684,-869.629,845.215,22.95,-8.70,-36.60,16.91
15193,-1.57,6.25,-45.84,-134.277,-654.297,932.617,22.95,-8.70,-36.60,16.96
15203,-14.06,11.93,-43.61,-290.527,-1138.184,1753.418,23.55,-10.50,-37.50,17.10
15213,3.12,3.47,-46.08,162.598,-320.801,725.098,22.20,-8.70,-37.35,16.82
15222,10.24,3.58,-39.35,379.883,-777.832,438.965,23.55,-10.50,-37.05,16.72
15232,-0.50,6.47,-61.73,-80.078,-376.465,1101.563,23.25,-12.45,-37.80,17.15
15242,4.71,2.36,-47.61,-501.465,-681.641,679.199,23.25,-12.45,-37.80,16.82
15254,-2.32,-0.58,-47.12,-420.410,-312.988,1727.051,23.40,-10.65,-37.35,16.72
15264,17.45,4.15,-41.70,393.555,-637.207,817.383,24.15,-9.45,-37.65,16.96
15280,11.27,1.50,-52.57,-169.434,-746.094,1741.699,22.80,-12.15,-37.50,16.91
15289,7.21,1.25,-56.20,588.867,-867.676,556.641,24.15,-9.45,-37.65,17.01
15299,-34.72,3.87,-46.73,-600.098,-329.590,1294.434,24.00,-11.70,-37.05,16.58
15309,-3.73,2.27,-46.67,289.062,-894.043,234.375,23.25,-12.90,-38.25,16.96
15321,-18.52,-1.27,-48.88,-293.945,-167.969,1228.516,23.25,-12.90,-38.25,16.72
15331,-3.40,-1.50,-46.71,216.797,-74.707,735.840,23.70,-13.50,-37.65,16.77
15341,-16.31,-2.86,-60.53,-201.660,-689.941,601.074,23.70,-12.75,-38.10,16.82
15351,10.59,-6.33,-59.60,-181.641,-568.848,1050.781,23.70,-12.75,-38.10,16.91
15361,2.03,1.34,-53.69,159.180,-459.473,1755.371,24.30,-12.15,-36.30,17.01
15371,0.24,5.36,-46.71,207.031,-246.094,260.254,24.60,-13.50,-39.15,16.77
15382,18.69,-1.03,-51.16,138.672,-954.102,436.035,24.75,-11.70,-37.50,16.91
15392,-9.23,-4.34,-49.40,-529.297,-292.969,1197.754,24.15,-13.80,-36.90,16.62
15402,4.32,-6.87,-46.58,172.363,-548.828,313.965,24.15,-13.80,-36.90,16.82
15412,-7.77,4.41,-50.00,145.508,-871.094,457.520,23.55,-12.45,-39.00,16.91
15422,-12.72,3.74,-42.02,-258.789,-786.133,1619.629,24.60,-14.70,-36.60,16.91
15432,-7.93,1.82,-41.47,-289.062,-480.469,54.199,24.00,-15.30,-38.55,16.77
15442,-0.92,3.74,-41.93,-327.148,-682.617,1764.648,24.75,-14.10,-37.80,16.91
15454,-5.04,7.31,-42.66,119.141,33.203,951.172,24.15,-16.65,-37.65,16.77
15464,6.53,-1.89,-48.02,-37.109,-845.215,1572.754,24.60,-15.00,-37.35,16.96
15474,6.35,2.31,-41.50,375.000,-910.156,35.156,24.75,-14.85,-37.80,16.43
15484,-12.85,-1.95,-45.52,-352.539,-241.699,1690.918,24.75,-14.85,-37.80,16.91
15494,7.97,-4.15,-38.04,249.023,-731.934,866.211,25.05,-15.30,-38.25,17.01
15504,-0.54,2.55,-46.73,115.234,-443.359,1359.375,24.15,-14.25,-38.85,17.01
15514,6.82,0.37,-41.53,217.773,-1000.977,1266.602,24.75,-17.25,-38.25,17.01
15526,-2.68,-4.92,-37.34,-373.535,-658.203,1770.020,24.00,-15.60,-38.55,17.01
15536,7.12,-9.34,-38.50,426.270,-96.191,1083.984,24.75,-18.00,-38.25,16.91
15546,-2.08,0.62,-31.08,-250.977,-233.887,1999.939,25.50,-17.70,-38.25,16.77
15556,11.11,0.18,-46.92,-34.668,-780.273,909.180,25.65,-15.45,-39.15,16.62
15566,6.06,-4.78,-38.95,-150.391,-476.562,964.355,25.65,-15.45,-39.15,16.91
15576,3.90,-10.45,-40.61,-360.352,-329.102,1147.461,24.00,-18.45,-37.50,16.91
15588,3.88,-4.13,-34.54,-82.520,-800.293,1434.082,26.10,-18.30,-36.60,16.82
15598,5.53,3.30,-30.53,321.289,-765.625,71.289,24.30,-18.45,-37.80,16.91
15608,-22.08,10.48,-32.72,-702.637,95.703,1165.039,24.30,-18.45,-37.80,16.82
15618,14.41,-5.19,-37.56,386.719,-990.723,370.117,25.35,-19.50,-37.65,16.96
15628,-13.42,14.33,-34.64,-43.945,-452.148,100.586,23.55,-18.90,-38.55,16.91
15638,7.63,-3.44,-31.89,97.656,-978.516,1486.816,23.55,-18.90,-38.55,16.58
15648,5.09,8.11,-38.89,142.578,-541.504,945.801,24.75,-19.65,-36.30,16.91
15660,5.12,9.31,-34.69,270.996,-435.547,432.617,24.75,-20.10,-37.80,16.72
15670,-14.72,7.90,-32.21,-434.082,-284.180,1512.207,24.60,-19.50,-38.10,16.91
15680,8.66,5.66,-44.40,412.598,-868.652,212.402,24.75,-20.85,-38.25,16.77
15690,-16.51,1.25,-41.79,-670.410,135.742,1240.723,24.75,-20.85,-38.25,16.82
15700,12.10,2.70,-35.81,296.875,-310.547,1091.797,25.05,-17.70,-38.25,16.91
15710,-15.02,2.15,-42.15,-148.926,-287.598,651.367,25.65,-21.00,-38.40,16.91
15720,1.49,-4.44,-39.80,-124.023,-1215.820,1102.539,25.65,-21.00,-38.40,16.43
15732,1.95,-5.33,-31.95,246.582,-1081.055,1397.949,25.50,-19.65,-38.55,16.62
15742,-12.58,6.75,-38.11,66.895,59.082,720.703,24.60,-21.90,-38.40,16.72
15751,-13.01,5.18,-38.00,-403.320,27.832,1289.063,23.40,-19.05,-38.40,16.96
15761,1.10,4.27,-46.83,244.141,-1183.594,690.918,24.75,-20.10,-38.55,16.91
15770,8.60,6.05,-41.06,89.844,-437.988,999.023,24.75,-20.10,-38.55,16.62
15780,-8.21,5.53,-39.55,-533.203,-446.777,1610.352,24.75,-19.65,-39.30,16.72
15797,-21.24,5.32,-43.04,-925.781,253.906,805.664,24.60,-20.25,-37.65,16.77
15806,24.27,7.06,-29.21,509.277,-1562.500,894.531,24.60,-20.25,-37.65,16.91
15816,-16.51,12.65,-49.92,-229.492,124.512,-139.160,25.05,-20.40,-39.30,16.82
15826,4.40,-2.27,-36.85,515.137,-956.055,1389.160,24.60,-21.00,-38.10,17.01
15836,-1.10,4.86,-40.21,357.422,-337.891,1620.117,24.60,-21.00,-39.90,16.77
15846,-6.15,0.93,-52.37,-107.910,-945.801,352.051,25.35,-21.45,-39.60,16.62
15856,-1.91,-9.71,-48.69,51.270,-956.543,1120.605,25.35,-21.45,-39.60,16.77
15868,0.80,-10.63,-47.40,284.180,-1115.723,1356.445,24.90,-21.00,-39.90,16.62
15878,-18.38,-0.04,-51.80,-208.008,210.937,775.391,25.50,-21.60,-37.80,16.72
15888,10.44,-0.51,-45.27,283.203,-1454.102,779.297,24.60,-24.30,-38.85,16.82
15898,-20.58,-1.44,-36.95,-903.320,48.340,1411.621,22.95,-23.40,-39.90,17.10
15908,9.07,-9.72,-40.50,514.160,-731.934,138.672,24.90,-23.10,-38.85,16.96
15918,-26.09,4.61,-40.83,-723.633,167.480,-237.793,23.55,-24.90,-39.75,16.77
15928,19.14,-6.57,-28.21,317.383,-1265.137,187.988,23.55,-24.90,-39.75,16.62
15939,-20.92,-4.81,-48.50,276.367,-451.660,1999.939,22.80,-23.25,-39.30,16.58
15949,-1.33,5.56,-37.54,-24.902,-340.332,1028.809,24.15,-25.50,-39.15,16.77
15959,-4.99,-0.47,-40.98,-421.387,-820.312,1999.939,24.15,-23.40,-39.15,16.77
15969,2.95,7.47,-42.30,228.027,-105.469,888.672,25.05,-24.00,-39.00,16.91
15978,-26.89,7.73,-29.72,-825.195,377.930,679.199,25.05,-24.00,-39.00,16.48
15988,18.84,-4.58,-46.37,257.324,-1169.434,-162.598,22.65,-24.60,-39.15,16.72
16000,17.38,-1.98,-41.59,110.352,-1145.508,-176.758,22.95,-24.60,-39.15,16.48
16010,-3.72,1.15,-50.89,-53.223,-632.812,908.691,22.95,-24.60,-39.15,16.58
16020,4.23,0.08,-46.44,400.879,-426.270,261.230,24.60,-25.05,-39.60,16.96
16029,-22.88,3.44,-61.06,126.465,-750.000,470.215,23.55,-24.00,-39.75,16.77
16039,-0.79,-20.62,-48.07,-251.465,-695.312,501.953,24.15,-26.25,-38.40,16.77
16049,-5.46,-16.76,-33.70,84.961,-339.844,1999.939,24.15,-26.25,-38.85,16.58
16059,17.45,2.24,-32.07,71.777,-905.273,490.234,24.15,-26.25,-38.85,16.72
16071,7.71,3.51,-41.98,-378.418,-152.344,244.629,23.55,-26.40,-38.25,16.48
16081,12.44,-11.44,-52.06,570.312,-1117.188,1992.676,23.70,-27.00,-39.90,16.58
16091,-5.09,9.95,-35.69,-42.480,-193.848,330.566,23.70,-27.00,-39.90,16.82
16101,11.06,4.85,-47.63,249.512,-1102.051,1999.939,22.80,-27.15,-38.25,16.96
16110,21.67,0.76,-45.12,65.918,-704.590,134.766,22.95,-27.00,-39.90,16.72
16120,-27.27,7.17,-41.15,-487.305,-1301.270,1999.939,22.35,-24.90,-39.75,16.72
16130,19.57,1.73,-44.66,131.348,-603.027,692.871,23.40,-27.45,-38.85,17.10
16142,8.63,7.88,-11.98,121.582,-473.145,764.160,23.40,-27.45,-38.85,16.82
16152,-7.73,8.34,-33.69,147.949,-675.293,1999.939,21.60,-25.65,-37.80,16.96
16162,8.62,3.61,-42.11,-173.340,-176.758,840.820,22.05,-28.80,-39.30,16.77
16172,20.76,-12.02,-50.26,249.512,-1341.309,1538.086,22.05,-28.80,-39.30,17.10
16182,-15.53,1.17,-47.77,-243.652,-31.738,756.836,21.60,-27.15,-40.05,16.82
16192,19.58,-4.83,-40.48,849.121,-1150.391,992.676,21.60,-28.35,-38.25,16.91
16204,19.17,-4.44,-30.24,822.266,-1416.992,93.750,21.60,-30.00,-39.30,16.82
16214,-24.14,-0.19,-48.65,-1112.305,268.066,661.621,22.65,-26.25,-38.85,16.91
16224,14.89,-3.31,-42.40,520.508,-787.598,220.703,22.65,-26.25,-38.85,16.48
16234,-8.89,6.21,-55.49,-192.383,-1299.316,1765.625,21.30,-30.00,-38.25,16.91
16244,19.16,-3.02,-51.73,-166.992,59.570,188.965,20.25,-29.40,-38.40,16.82
16254,0.27,-1.40,-39.90,325.195,-514.648,1999.939,20.25,-29.40,-38.40,16.96
16264,11.05,-1.18,-27.24,-318.848,-287.109,851.562,21.60,-29.25,-39.00,16.77
16276,5.11,0.02,-48.08,-548.828,-291.992,791.016,20.85,-30.00,-38.55,16.82
16286,7.67,-0.34,-30.97,327.637,-1500.000,1560.547,20.25,-27.75,-38.85,16.91
16296,-8.62,1.06,-59.85,-264.648,105.957,1152.832,21.45,-30.60,-38.10,17.10
16311,25.60,-12.16,-26.42,103.027,-687.500,482.910,21.00,-28.20,-39.15,16.77
16320,-35.27,8.09,-16.05,-711.914,302.246,1295.898,21.90,-29.85,-37.65,16.77
16330,3.14,-3.08,-44.24,-145.020,-316.895,240.723,20.85,-30.45,-39.30,16.82
16340,-14.21,-0.37,-30.34,512.695,-675.293,1999.939,21.00,-29.40,-39.90,16.72
16352,0.54,-9.02,-18.90,336.914,-1278.320,1999.939,20.25,-29.40,-38.85,16.91
16362,-7.85,15.40,-33.69,-533.203,-174.316,418.945,20.10,-30.45,-39.00,16.77
16372,8.31,-3.66,-25.64,681.641,-1312.012,1214.844,19.95,-30.15,-39.15,16.48
16382,-7.19,10.54,-50.63,-704.102,-48.828,699.219,19.95,-30.15,-39.15,16.82
16392,10.85,-6.70,-39.16,-43.457,-780.273,54.199,19.65,-31.20,-39.30,17.10
16402,-20.37,4.90,-45.18,46.387,358.398,599.121,20.55,-31.20,-39.00,16.96
16413,7.90,3.34,-33.52,-169.922,-448.242,684.570,20.55,-30.00,-39.30,16.72
16423,-1.85,-9.56,-34.42,779.297,-929.199,1999.939,20.70,-32.25,-39.15,16.77
16433,-14.55,-5.88,-50.86,-838.867,-49.805,1895.508,20.70,-32.25,-39.15,16.91
16443,7.59,-5.32,-44.15,42.480,-373.535,758.789,19.95,-31.05,-38.85,16.62
16453,-20.43,-3.89,-38.13,224.609,-140.137,891.113,19.35,-31.95,-38.25,16.77
16463,4.07,-0.37,-30.52,-701.660,-140.137,783.691,19.35,-31.95,-38.25,16.91
16473,-8.04,3.02,-29.63,390.137,-391.602,1999.939,18.60,-29.25,-39.75,16.91
16484,8.07,3.66,8.84,303.711,-947.754,1253.906,20.55,-32.40,-39.00,16.77
16493,23.98,1.88,-29.14,712.891,-770.996,337.402,18.90,-32.40,-39.00,16.77
16503,-1.95,-0.39,-33.27,-145.996,-704.590,1949.707,18.75,-30.60,-39.60,16.82
16513,21.09,0.03,-18.95,95.215,-398.926,417.480,18.75,-30.60,-39.60,16.77
16522,-19.69,1.24,-51.50,-412.109,-69.824,638.672,18.15,-31.95,-38.25,16.91
16532,0.88,5.33,-35.50,-198.242,-449.707,205.566,18.45,-31.05,-39.60,16.91
16542,-2.50,1.18,-33.07,462.891,-389.160,1999.939,18.45,-31.05,-39.60,16.72
16554,8.02,-10.69,-44.24,489.746,-1136.230,569.824,17.40,-32.85,-37.50,16.77
16564,1.35,5.90,-32.60,-470.703,-149.414,-401.367,19.50,-31.05,-38.85,16.77
16574,11.16,-7.62,-28.08,247.070,-1365.234,1539.063,18.45,-32.25,-38.40,16.72
16584,3.49,-2.54,-34.95,82.031,-550.293,761.719,18.45,-32.55,-38.40,16.96
16594,-2.59,12.21,-41.38,-376.465,-359.375,574.219,18.45,-32.55,-38.40,16.82
16604,10.66,-0.02,-36.69,1366.699,-1078.613,905.273,18.75,-32.55,-39.60,16.96
16616,5.40,2.72,-25.21,69.824,-536.133,825.195,19.50,-33.00,-38.10,16.77
16626,3.34,2.56,-35.11,133.789,-348.145,1333.496,19.50,-33.00,-38.10,16.62
16636,-5.10,-7.93,-30.20,-371.094,410.156,661.621,18.60,-33.15,-37.50,16.91
16646,-1.61,-9.40,-37.35,134.766,-787.109,701.660,18.90,-34.05,-36.75,16.77
16656,0.18,-4.43,-28.55,127.441,-544.922,729.980,17.85,-35.25,-39.00,16.82
16666,-9.84,-6.11,-49.45,-211.914,94.727,1197.754,16.80,-33.00,-37.35,16.82
16676,0.32,-12.22,-29.82,-52.734,-645.996,601.562,16.80,-33.00,-37.35,16.77
16688,6.89,-2.87,-32.53,102.539,-1000.977,1784.668,16.80,-33.45,-38.85,16.91
16698,-5.69,-4.65,-38.82,-345.215,-618.652,1284.180,18.15,-32.85,-39.75,16.96
16708,-10.24,7.22,-42.60,-310.547,-67.871,416.016,17.25,-32.25,-39.15,16.91
16718,7.07,6.60,-24.27,560.059,-471.680,1565.918,17.85,-32.40,-37.05,16.62
16727,-7.73,7.70,-33.47,-394.043,-222.656,1244.141,16.80,-34.20,-38.40,16.58
16737,3.94,-0.03,-47.75,382.324,-678.711,1148.438,17.25,-33.00,-39.15,16.91
16747,2.51,0.43,-26.95,-242.676,-802.734,1234.863,17.25,-32.55,-38.10,16.96
16759,4.27,-1.08,-22.63,290.527,-1180.176,1999.939,16.05,-33.75,-38.10,16.96
16769,-2.02,0.73,-41.12,-66.895,-275.391,-67.383,17.25,-32.25,-37.65,16.72
16779,10.19,-4.95,-27.99,768.555,-1141.602,1497.070,16.05,-32.25,-37.65,16.82
16789,-6.12,-5.69,-32.05,-135.742,-760.254,1151.855,15.30,-35.40,-38.40,16.82
16799,-2.46,-6.85,-44.55,-395.996,-207.520,459.473,15.30,-35.40,-38.40,16.62
16809,6.36,-2.57,-28.20,418.945,-125.000,1945.801,16.50,-32.55,-36.90,16.82
16826,8.66,-5.47,-12.95,-58.594,-246.094,1325.684,16.05,-36.60,-38.10,16.91
16835,9.69,-9.68,-48.11,87.402,-924.316,798.828,16.05,-36.60,-38.10,16.82
16845,-7.20,0.24,-43.16,-359.863,-495.605,927.246,15.90,-34.05,-36.75,16.96
16855,-6.13,-1.01,-38.37,118.652,25.879,1302.246,14.70,-35.25,-36.75,16.96
16865,0.76,-1.62,-40.39,75.195,-962.891,1595.215,14.70,-34.35,-38.55,16.58
16875,-3.58,1.89,-34.93,-599.609,-635.742,1169.434,15.90,-34.05,-37.80,16.72
16885,4.40,-6.18,-30.50,382.324,-476.074,1741.699,15.90,-34.05,-37.80,16.91
16897,1.23,4.08,-36.68,-362.305,-36.621,676.270,15.15,-34.80,-38.25,16.91
16907,16.40,-3.94,-41.02,286.133,-595.703,1240.723,14.85,-33.75,-37.65,16.62
16917,2.89,10.37,-36.18,-610.840,-910.645,772.461,14.85,-33.75,-37.65,16.91
16927,3.23,4.58,-40.89,31.250,-561.035,295.410,14.70,-35.55,-37.80,16.91
16937,0.08,6.60,-38.13,555.664,-713.379,1845.703,13.80,-34.65,-36.90,16.82
16947,-8.85,1.30,-47.76,-405.273,-56.152,608.887,13.50,-34.05,-37.05,16.62
16957,11.39,3.33,-31.23,-400.391,-725.098,787.109,15.45,-35.55,-36.00,16.62
16970,4.03,8.91,-27.02,-192.871,-786.133,538.574,13.35,-34.95,-36.90,16.82
16980,-4.60,-9.82,-64.85,-46.875,-303.711,920.898,13.80,-34.20,-38.10,16.62
16990,-8.63,2.02,-31.88,274.414,162.109,1656.250,13.80,-34.20,-38.10,16.58
17000,1.10,2.79,-27.11,-233.887,-579.102,819.336,12.45,-34.80,-37.50,16.77
17010,-6.08,-1.20,-46.59,-479.004,-416.504,654.785,13.95,-35.55,-37.05,16.91
17020,4.74,4.05,-33.36,23.437,-180.176,1367.676,15.30,-35.40,-36.90,16.82
17029,-7.61,0.21,-40.44,-112.793,82.031,1638.184,13.80,-35.40,-36.90,16.58
17040,7.60,3.56,-27.18,-234.375,-183.594,318.359,13.80,-35.85,-38.40,16.38
17050,9.13,3.27,-35.02,82.520,-743.652,1391.602,13.95,-35.25,-37.50,16.72
17059,-3.08,3.74,-38.98,-168.945,65.430,1200.684,12.60,-35.40,-37.50,16.91
17069,3.85,1.60,-26.89,-19.531,-1114.258,1585.938,12.60,-35.40,-36.90,16.77
17079,-5.39,9.02,-31.98,-136.719,-372.070,266.113,13.20,-35.55,-37.50,16.77
17089,-3.59,0.29,-39.05,91.309,-1117.676,1557.617,12.75,-36.00,-37.05,16.48
17101,-5.88,0.57,-48.02,-306.641,-272.949,1307.129,13.20,-35.55,-37.50,16.91
17111,0.90,3.89,-45.62,576.660,-340.332,1241.211,11.85,-35.85,-37.65,16.48
17121,9.31,5.18,-28.90,34.180,-1095.215,855.957,11.85,-35.85,-37.65,16.91
17130,-3.38,-0.81,-40.33,9.277,-479.980,1353.027,12.45,-36.00,-37.80,16.96
17140,11.53,6.27,-29.67,195.312,-637.695,1300.293,12.30,-35.85,-38.10,16.77
17150,-10.83,-2.40,-35.27,-583.984,-94.727,606.934,13.20,-34.35,-36.00,16.72
17160,6.90,3.71,-15.60,124.512,-845.703,1047.363,12.00,-37.20,-37.05,16.58
17172,7.93,-14.54,-43.02,-9.766,-731.934,1504.395,11.40,-35.85,-37.65,16.72
17182,-0.29,-6.50,-52.36,-132.324,-904.297,980.469,12.30,-35.85,-36.90,16.72
17192,4.88,-5.96,-49.50,-234.375,-287.598,772.949,12.00,-36.45,-36.75,16.82
17202,9.47,-8.22,-34.85,-42.480,-661.133,1035.645,12.00,-36.45,-36.75,16.96
17212,4.34,0.90,-48.38,-185.547,-1111.816,928.223,12.75,-35.25,-36.75,16.82
17222,3.96,-8.83,-53.93,-204.102,-55.664,919.434,12.60,-36.60,-36.90,16.82
17232,12.59,-2.50,-40.56,459.473,-829.102,1947.266,12.00,-36.75,-37.50,16.62
17244,-11.73,-6.25,-41.30,-584.473,-113.770,451.660,11.40,-35.40,-36.90,16.77
17254,-1.00,-5.98,-33.72,623.047,-274.902,1582.031,11.40,-35.40,-36.90,16.82
17264,-1.62,-3.99,-43.24,133.301,-615.723,1116.699,11.40,-37.80,-36.15,16.91
17274,-8.60,-4.98,-34.86,-432.617,556.641,953.613,10.95,-37.20,-36.30,16.77
17284,6.50,-4.91,-56.27,591.309,-316.895,344.727,10.95,-37.20,-36.30,16.91
17294,-1.80,6.00,-11.26,128.418,-1385.742,738.770,11.70,-37.20,-35.55,16.91
17306,3.77,6.03,-21.92,226.562,-315.430,1174.316,11.40,-37.05,-34.65,16.91
17316,17.26,0.45,-31.40,-97.656,-299.805,384.766,12.30,-34.95,-35.70,17.01
17326,2.56,-6.19,-44.11,-457.031,-232.422,1229.980,12.60,-36.15,-36.60,16.96
17341,-4.55,13.63,-43.57,191.406,-631.836,781.738,10.95,-36.00,-35.55,16.77
17350,-6.63,14.44,-16.05,-275.391,53.223,716.309,10.95,-35.25,-36.00,16.82
17360,-6.70,-1.11,-46.65,-255.859,219.238,895.508,10.95,-35.25,-36.00,16.91
17370,1.16,-1.33,-40.20,131.836,-395.996,706.055,10.95,-37.20,-35.55,16.82
17382,-1.10,2.85,-43.05,-608.398,182.129,1411.133,10.95,-37.20,-36.30,16.62
17392,12.67,5.59,-46.04,-1.465,-1321.777,741.211,12.00,-36.00,-36.30,16.82
17402,4.98,-1.08,-33.88,-556.152,-696.777,1347.656,11.25,-37.65,-34.80,16.91
17412,-1.46,5.11,-47.92,-151.855,-254.883,1245.117,11.25,-37.65,-34.80,16.58
17422,6.39,3.54,-43.95,-110.352,-986.816,666.016,10.65,-36.60,-35.70,16.62
17432,0.24,-1.70,-51.34,-55.176,-383.301,670.898,10.05,-34.80,-35.25,16.72
17442,-16.11,6.82,-44.30,-240.234,118.164,836.914,10.05,-34.80,-35.25,16.96
17454,-10.15,4.69,-38.65,-619.629,122.070,577.148,9.75,-37.20,-35.25,16.82
17464,8.09,10.45,-37.02,287.598,-557.617,1208.008,10.50,-34.80,-36.30,16.72
17473,-0.72,-1.69,-44.79,-75.684,-786.133,819.824,10.05,-37.20,-34.50,16.91
17483,-13.50,1.31,-61.58,-243.164,-632.324,888.672,10.35,-37.05,-34.65,16.62
17493,2.53,-1.02,-38.31,443.848,-271.973,1763.672,10.35,-37.05,-34.65,16.77
17503,6.90,7.47,-50.17,98.145,-1397.949,898.437,10.05,-37.65,-34.50,16.91
17514,9.97,-1.89,-68.41,474.121,-843.262,750.000,9.75,-37.95,-37.05,16.91
17524,5.11,0.33,-60.34,-829.590,-897.461,34.668,8.70,-37.80,-35.70,16.82
17534,3.97,1.90,-57.31,186.523,-744.141,1363.770,10.95,-37.20,-35.55,16.77
17543,10.89,-2.02,-35.82,471.680,-709.961,965.820,10.50,-37.20,-34.50,16.62
17553,3.43,-9.98,-47.10,-145.020,-404.297,1166.504,10.35,-39.75,-36.15,16.77
17563,2.98,-9.29,-51.90,160.645,-1146.484,867.187,9.60,-38.55,-34.95,16.77
17573,5.44,-1.19,-43.69,220.703,-791.504,1039.551,9.60,-38.55,-34.95,16.91
17584,7.66,-1.69,-39.72,3.418,-860.840,598.145,8.40,-37.35,-35.40,16.91
17594,-19.73,-1.56,-63.05,-458.496,-581.055,462.891,8.25,-38.40,-35.25,16.91
17604,-5.29,-2.22,-40.91,-8.301,-404.785,958.496,9.15,-37.05,-35.40,16.72
17614,16.63,5.02,-45.72,109.863,-1153.320,815.918,8.70,-38.25,-34.95,16.62
17623,-6.57,-8.56,-52.21,-50.781,-88.379,380.371,8.70,-38.25,-34.95,16.91
17633,4.02,-9.99,-48.31,203.125,-443.848,1590.820,7.35,-37.20,-34.50,16.82
17643,7.60,-3.05,-48.41,-52.734,-763.184,898.437,8.70,-37.80,-35.40,16.91
