Time_ms,GyroX_degps,GyroY_degps,GyroZ_degps,AccelX_g,AccelY_g,AccelZ_g,MagX_uT,MagY_uT,MagZ_uT,Temp_C
1320,-0.67,-3.33,-0.92,8.301,73.730,1002.930,-21.45,-11.85,-32.40,17.01
1335,0.22,-2.08,3.06,38.574,54.199,1015.625,-22.65,-12.30,-32.40,16.91
1345,0.72,1.09,0.52,-0.977,86.426,984.375,-22.65,-12.30,-32.40,17.15
1355,-0.94,0.92,-0.69,70.801,20.508,1062.988,-21.00,-11.10,-30.45,16.91
1365,0.70,-0.27,0.93,127.930,21.973,903.809,-19.65,-12.15,-29.55,17.10
1374,-0.61,0.41,0.79,90.820,44.434,1072.266,-19.65,-12.15,-29.55,17.10
1384,-0.88,-0.27,0.42,86.426,15.137,956.543,-20.10,-11.70,-30.75,17.10
1394,1.15,-0.23,-3.73,55.176,51.270,1115.723,-20.55,-12.15,-30.75,17.29
1406,1.86,-1.30,0.09,37.598,35.645,997.559,-18.75,-11.55,-30.90,17.44
1416,-0.68,-1.45,-1.67,13.184,-0.977,1050.781,-21.30,-13.65,-29.85,17.34
1426,-1.30,-0.02,0.40,145.508,15.625,1009.277,-21.30,-13.65,-29.85,16.96
1436,-0.60,-0.42,-1.22,97.168,1.465,1041.504,-18.90,-14.40,-28.80,17.01
1446,0.87,-0.85,-0.94,126.953,-28.320,1083.496,-19.20,-12.30,-29.40,17.25
1456,-0.58,-2.80,-2.13,108.887,-1.953,961.914,-19.20,-12.30,-29.40,17.29
1466,-2.09,-0.12,-1.66,14.160,30.762,1009.766,-17.85,-12.45,-28.80,16.96
1478,-0.03,-0.52,-2.76,96.191,-21.484,1022.949,-17.85,-10.50,-29.55,17.25
1488,-1.00,0.33,-0.24,132.324,59.570,968.750,-18.75,-11.85,-30.45,17.25
1498,0.22,0.08,-1.72,108.398,68.359,958.984,-18.15,-12.15,-31.05,17.34
1508,-0.14,1.24,0.17,62.012,10.254,1133.789,-18.15,-12.15,-31.05,17.25
1517,-0.16,-0.11,0.27,38.574,20.996,951.172,-19.95,-10.65,-30.15,17.25
1527,0.29,0.18,2.19,130.859,-17.578,1015.625,-19.35,-12.90,-31.05,17.15
1536,0.84,2.84,-4.62,164.062,26.367,1001.465,-21.90,-11.85,-31.95,16.91
1548,1.24,-1.17,-0.82,30.762,15.137,1019.043,-21.00,-12.75,-32.70,17.25
1558,-2.47,1.50,-0.52,75.684,47.852,1040.527,-22.05,-11.70,-31.80,17.25
1568,0.65,-1.41,0.09,109.863,24.414,1014.160,-22.05,-11.70,-33.00,17.10
1578,0.53,1.77,-6.88,151.367,6.836,970.215,-24.15,-11.10,-33.90,17.25
1587,0.70,-0.05,-1.82,44.434,38.574,994.629,-24.15,-11.10,-33.90,17.10
1597,-1.68,-0.19,-1.59,40.039,36.133,1083.496,-23.25,-12.90,-32.25,17.29
1607,-0.44,-0.26,0.69,202.637,-28.320,996.582,-23.70,-11.55,-32.40,17.01
1619,-0.24,-2.06,-1.34,24.902,86.426,988.281,-23.40,-11.55,-30.45,17.34
1629,-0.63,-0.82,-0.85,-8.789,1.953,1078.125,-22.05,-12.15,-30.75,16.91
1639,-2.52,-1.37,0.54,175.781,44.922,1027.832,-22.05,-12.15,-30.75,16.96
1649,-0.57,0.51,-0.74,173.828,18.555,1012.695,-20.70,-11.55,-29.70,17.10
1659,1.26,-1.03,-2.82,-18.066,38.574,1009.766,-19.20,-12.75,-29.70,17.25
1669,0.35,-1.02,-2.31,134.277,32.227,1022.461,-19.20,-12.75,-29.70,17.25
1679,0.07,1.34,-2.81,208.496,55.176,964.844,-18.75,-13.05,-28.95,17.29
1691,0.63,0.04,-0.41,-27.344,-32.227,1087.891,-19.35,-12.45,-28.80,17.25
1701,0.59,0.48,-0.05,156.250,2.441,965.332,-18.45,-11.55,-28.65,17.25
1711,-1.65,-0.27,-6.58,145.508,3.906,855.957,-17.85,-11.70,-29.85,17.01
1721,-1.11,-2.24,-0.99,-24.902,16.113,1087.891,-17.85,-11.70,-29.85,17.29
1731,-0.02,0.85,-3.12,183.594,22.461,991.211,-20.85,-12.90,-31.80,17.34
1741,-0.72,-1.38,-0.31,77.148,17.090,1005.859,-20.70,-11.85,-32.70,17.25
1751,-0.29,0.62,0.68,-23.926,77.148,1140.625,-22.35,-10.50,-31.50,17.10
1763,-1.30,-0.73,-2.82,289.551,22.949,758.789,-24.75,-12.45,-31.80,17.10
1773,-1.16,0.72,-1.53,-41.504,103.516,1181.641,-24.75,-12.45,-31.80,17.29
1783,1.33,-0.58,-2.36,181.641,46.387,1234.863,-23.70,-12.30,-30.90,17.25
1793,-0.92,1.85,-2.08,113.770,-51.270,803.711,-23.70,-12.30,-30.45,16.91
1803,1.40,-1.37,-3.13,71.777,1.953,1199.707,-23.70,-12.30,-30.45,17.44
1813,2.91,0.68,-1.27,250.977,-39.063,669.434,-19.50,-11.85,-28.95,17.29
1823,-1.30,1.60,-3.94,58.105,55.664,1185.547,-19.50,-11.85,-28.95,17.25
1847,-1.12,-1.66,-3.14,6.348,56.641,1258.301,-18.90,-12.45,-27.30,17.25
1856,0.05,-0.38,-3.12,173.340,-2.441,967.285,-18.75,-11.55,-28.95,17.29
1866,1.69,-0.85,-2.59,21.484,38.574,1251.953,-21.00,-13.05,-29.40,17.34
1876,-1.95,-1.73,-4.07,203.125,6.836,947.266,-21.00,-13.05,-29.40,17.29
1886,-0.90,3.11,-2.63,13.184,86.426,1063.965,-24.30,-11.25,-31.05,16.96
1896,-3.46,-0.47,-7.26,299.316,-21.973,1075.195,-23.25,-12.15,-32.25,17.29
1908,1.76,1.89,-0.18,54.688,83.008,1204.590,-24.75,-13.20,-32.55,16.96
1918,-3.43,0.64,-3.47,229.492,58.105,962.891,-24.00,-13.20,-30.75,17.44
1928,-0.57,3.99,-1.90,27.344,85.449,1054.688,-24.00,-13.20,-30.75,17.25
1938,-1.92,0.33,-1.43,247.559,62.012,1145.508,-20.55,-14.10,-27.60,17.29
1948,-1.51,0.31,-3.78,149.414,138.672,1129.395,-19.20,-12.75,-28.20,17.44
1958,-0.28,0.61,-1.86,145.020,-65.918,979.492,-18.90,-12.15,-27.60,17.34
1968,-0.37,1.19,-5.40,155.762,50.781,1105.469,-19.35,-12.90,-28.80,17.01
1979,-3.52,2.39,1.77,82.520,52.246,806.641,-19.95,-12.30,-29.40,17.10
1989,0.20,2.42,-3.87,220.215,-27.832,1175.293,-22.65,-11.85,-31.95,17.49
1999,0.54,-1.12,-2.67,167.480,96.680,982.422,-25.50,-9.75,-33.00,17.25
2009,-1.69,-0.92,-1.75,214.844,-33.203,1027.344,-25.50,-9.75,-33.00,17.25
2019,0.53,-0.52,-1.03,165.039,-12.207,1032.715,-24.30,-12.15,-33.30,17.34
2029,0.77,0.07,-4.01,145.020,-22.461,805.176,-23.55,-11.25,-29.85,17.25
2039,2.18,1.79,-4.31,263.672,-119.141,1212.402,-20.70,-12.75,-28.65,17.10
2051,-0.58,-0.84,-3.07,255.371,178.223,913.086,-20.85,-13.20,-27.30,16.96
2061,-0.91,0.34,-1.64,120.117,9.766,951.172,-20.85,-13.20,-27.30,17.01
2071,2.00,-0.78,-6.47,195.801,-14.160,1039.551,-20.25,-12.30,-28.20,17.15
2081,2.69,-0.11,-3.69,203.125,103.027,911.133,-21.00,-10.65,-30.45,17.29
2091,0.66,-1.87,-3.60,148.926,16.113,938.965,-21.00,-10.65,-30.45,17.44
2101,1.02,0.27,-5.08,134.766,8.301,1150.879,-25.80,-11.70,-31.80,17.34
2110,1.03,-0.23,-6.29,209.961,11.230,1015.137,-25.80,-12.15,-32.25,17.10
2122,3.47,-0.79,-5.95,130.859,25.391,1124.512,-23.55,-12.45,-29.85,17.01
2132,3.95,-1.40,-3.69,132.812,31.738,984.375,-21.30,-12.90,-28.05,17.15
2142,3.49,-1.37,-5.20,98.633,-77.637,1025.391,-21.30,-12.90,-28.05,17.25
2152,1.18,-0.76,-5.17,259.277,-9.766,1008.789,-18.00,-11.55,-28.20,17.25
2162,-0.42,2.61,-4.96,196.777,-32.715,1100.098,-21.30,-11.70,-30.75,17.29
2172,-0.25,-4.27,-5.49,189.941,-3.906,923.340,-23.25,-11.25,-33.30,17.44
2182,1.69,-1.96,-5.88,99.121,91.309,1086.426,-24.90,-11.10,-33.15,17.44
2194,0.25,0.21,-9.05,286.133,53.223,826.172,-26.40,-11.85,-32.70,17.34
2204,3.96,-0.27,-8.85,239.746,4.395,1003.906,-19.50,-12.30,-28.20,17.34
2214,0.20,-2.18,-5.75,202.148,-1.465,957.031,-19.50,-12.30,-28.20,17.25
2224,-2.47,-1.90,-7.89,220.215,-57.617,1075.684,-19.50,-12.30,-28.20,17.25
2234,-3.72,-2.27,-6.15,226.562,12.207,1019.531,-24.15,-10.35,-33.15,17.34
2244,-4.61,-0.73,-9.59,195.312,30.273,989.258,-24.15,-10.35,-33.15,17.34
2256,-4.28,-3.65,-7.82,80.078,21.484,1274.902,-25.35,-11.85,-32.40,17.34
2266,0.01,-3.90,-8.44,151.855,35.156,1238.770,-25.35,-11.85,-32.40,17.44
2276,1.60,-2.51,-12.60,280.273,74.707,979.492,-21.30,-12.15,-28.80,17.25
2286,2.12,-4.03,-6.60,46.387,-2.441,805.664,-18.90,-10.05,-28.35,17.44
2296,0.33,-1.96,-7.89,286.621,-92.285,957.520,-18.90,-10.05,-28.35,17.34
2306,1.99,0.03,-6.98,229.004,-91.797,1031.738,-24.15,-11.10,-33.15,17.25
2316,-1.68,-2.27,-8.89,128.418,-16.113,1015.137,-25.50,-10.95,-33.75,17.44
2328,0.73,2.66,-6.74,133.301,-25.879,832.520,-24.30,-11.25,-30.30,17.25
2338,-1.05,0.30,-8.53,199.219,60.547,898.437,-19.50,-12.30,-28.20,17.29
2348,0.60,-2.28,-7.76,174.316,11.719,1229.492,-19.50,-12.30,-28.20,17.63
2364,-0.06,0.11,-8.56,263.184,-159.180,974.121,-19.50,-10.65,-31.95,17.25
2373,-1.98,-0.10,-9.01,221.680,-23.926,1084.473,-24.75,-10.50,-34.50,17.01
2383,-3.11,-0.50,-7.37,151.855,-75.684,1064.941,-25.80,-10.95,-35.25,17.49
2393,-1.02,0.56,-11.57,208.496,-152.344,886.719,-24.30,-13.20,-30.30,17.34
2405,-0.89,2.43,-11.44,228.516,0.977,920.898,-18.75,-11.10,-29.70,17.34
2415,-2.62,-1.13,-8.79,187.988,-166.504,1060.547,-20.25,-11.10,-33.15,17.49
2425,-3.04,2.26,-11.21,288.574,42.969,954.590,-20.25,-11.10,-33.15,17.25
2435,3.24,2.10,-9.54,41.504,-6.836,999.512,-25.35,-11.85,-34.20,17.53
2445,-3.24,3.40,-8.54,209.961,-40.039,1230.957,-20.85,-12.15,-30.30,17.29
2455,0.69,3.00,-8.09,554.199,27.344,1039.551,-17.55,-11.55,-28.95,17.25
2464,3.76,1.68,-6.13,209.961,-55.664,990.234,-17.55,-11.55,-28.95,17.44
2475,0.44,0.48,-11.50,302.734,-125.488,965.332,-19.35,-10.05,-30.75,17.29
2485,-0.69,-0.93,-9.64,189.941,97.168,653.809,-23.70,-11.55,-35.40,17.49
2495,0.50,-2.56,-7.10,228.516,85.449,1253.418,-21.45,-11.55,-30.90,17.44
2505,-1.08,-0.06,-6.68,200.195,-13.184,1047.363,-21.45,-11.55,-30.90,17.25
2515,0.50,-0.89,-8.79,-39.063,-84.473,1292.480,-16.80,-9.90,-30.15,17.25
2525,-1.92,-0.73,-10.31,107.422,6.348,899.902,-21.90,-9.90,-33.90,17.44
2535,1.54,-0.43,-10.53,250.488,-28.809,747.070,-22.65,-11.10,-33.45,17.29
2546,-2.50,1.89,-14.47,117.676,123.047,946.777,-20.70,-11.10,-30.45,17.34
2556,0.63,-3.91,-11.57,393.555,-74.219,800.781,-20.70,-11.10,-30.45,17.68
2566,-0.98,-1.78,-11.92,34.668,-74.707,1165.527,-19.20,-9.45,-29.70,17.29
2576,0.84,-0.79,-10.12,155.762,30.273,1308.594,-23.40,-9.15,-34.20,17.25
2586,0.41,0.87,-12.27,34.668,-24.902,1063.477,-23.70,-11.10,-33.90,17.10
2596,3.17,0.08,-14.44,350.586,41.992,1046.387,-19.95,-13.50,-29.40,17.53
2605,2.20,1.66,-13.26,296.387,-183.105,798.340,-19.95,-13.50,-29.40,17.44
2617,3.53,-0.82,-12.26,193.848,-67.871,1269.531,-19.20,-10.35,-32.40,17.44
2627,-2.82,2.81,-10.42,285.156,111.816,962.402,-24.15,-10.65,-33.90,17.34
2637,-1.08,0.36,-12.30,121.582,48.340,1135.742,-24.15,-10.65,-33.90,17.34
2647,-1.68,-2.89,-11.76,416.992,-5.859,1029.297,-17.55,-10.65,-26.70,17.25
2657,-1.83,-0.28,-11.53,9.766,-55.664,1474.121,-18.15,-9.75,-31.05,17.29
2667,3.16,-4.28,-10.82,204.590,153.809,944.336,-22.80,-9.30,-33.30,17.44
2679,0.16,-3.55,-11.64,-19.043,-115.723,1118.164,-22.20,-11.10,-32.70,17.34
2689,-0.73,-11.40,-12.85,208.984,2.441,1125.488,-22.20,-11.10,-32.70,17.29
2699,3.87,-3.29,-21.17,76.660,-201.172,1059.082,-18.00,-7.95,-29.40,17.34
2709,-1.82,-3.73,-10.57,97.168,119.141,1129.395,-22.05,-8.55,-32.55,17.49
2719,-3.71,0.87,-10.84,56.152,89.355,549.316,-21.30,-10.50,-32.55,17.49
2729,-5.73,-3.25,-9.58,378.906,-39.063,814.453,-19.95,-11.85,-27.90,17.49
2739,-2.84,-4.16,-15.44,23.437,63.477,1070.313,-14.85,-8.70,-27.45,17.44
2751,0.00,-3.21,-15.89,362.793,-101.074,1083.008,-21.60,-8.55,-31.80,17.15
2761,10.81,-3.70,-10.50,84.473,-264.648,792.480,-22.20,-10.35,-31.95,17.63
2771,7.59,-4.58,-16.64,413.574,-626.953,889.648,-22.20,-10.35,-31.95,17.29
2781,6.03,-0.59,-10.54,62.012,-215.820,376.465,-16.80,-7.50,-27.45,17.25
2791,4.19,-4.23,-16.76,155.762,-493.652,1192.383,-22.20,-7.95,-31.65,17.44
2801,-0.97,-3.03,-12.67,-41.992,-17.090,681.152,-22.05,-10.50,-32.25,17.49
2811,-5.87,-0.64,-8.48,349.121,-216.797,1017.090,-18.00,-12.30,-25.95,17.25
2823,-0.23,4.01,-14.60,331.055,-229.492,627.930,-18.00,-12.30,-25.95,17.44
2833,-6.31,3.46,-13.39,229.004,52.246,738.770,-22.65,-8.25,-30.45,17.15
2843,0.61,3.40,-14.21,370.117,123.535,928.223,-20.70,-10.35,-28.65,17.44
2853,0.01,5.83,-10.08,150.391,192.871,803.711,-20.70,-10.35,-28.65,17.49
2862,5.31,2.09,-13.79,349.609,-278.320,674.805,-20.10,-8.10,-28.05,17.49
2876,2.01,-0.76,-14.98,297.363,185.547,881.836,-20.25,-12.30,-27.15,17.49
2886,-0.76,-1.99,-13.54,193.359,-51.270,608.398,-16.80,-10.35,-25.65,17.29
2898,-0.82,-1.38,-13.09,92.773,-245.117,1221.191,-16.80,-10.35,-25.65,17.44
2908,-6.32,-3.66,-20.67,109.863,-45.410,617.676,-22.35,-10.50,-30.75,17.49
2918,-8.05,-6.85,-18.52,485.352,-507.324,1666.504,-19.95,-12.30,-24.15,17.49
2928,3.11,-5.95,-16.98,96.191,-233.398,886.230,-18.45,-7.95,-28.20,17.49
2938,-4.56,0.55,-16.98,361.328,41.504,943.848,-23.70,-10.35,-30.15,17.63
2948,2.38,1.32,-16.66,219.238,123.535,872.559,-23.70,-10.35,-30.15,17.25
2957,-1.05,-5.34,-19.12,180.664,-405.273,1273.438,-17.25,-8.70,-26.40,17.49
2969,3.08,-4.79,-20.87,281.738,-252.930,1416.504,-23.25,-9.75,-31.80,17.53
2979,0.12,0.08,-20.09,57.617,44.922,1056.152,-23.25,-9.75,-31.80,17.49
2989,-2.95,-0.42,-21.55,180.176,37.598,979.980,-16.80,-10.35,-26.70,17.44
2999,-1.66,1.16,-19.78,294.922,-124.023,522.949,-19.35,-7.65,-31.05,17.49
3009,-3.01,-2.13,-19.45,313.477,-245.117,695.801,-22.20,-10.65,-31.65,17.63
3019,-5.83,0.50,-16.72,201.172,155.273,1714.844,-18.45,-10.65,-27.15,17.01
3029,-5.20,-1.76,-20.22,74.707,-66.895,827.637,-18.45,-10.65,-27.15,17.25
3041,2.52,-4.48,-19.71,213.867,-548.828,1252.441,-24.00,-10.05,-32.25,17.29
3051,5.44,-0.81,-16.77,344.727,-536.133,1683.105,-19.20,-11.55,-26.70,17.29
3061,2.20,-2.77,-19.39,-123.047,-375.000,957.520,-18.45,-7.05,-28.20,17.68
3071,-3.70,-0.78,-18.01,-84.961,9.277,1711.914,-22.05,-9.30,-31.80,17.49
3081,1.40,4.77,-18.69,91.309,-28.320,493.652,-19.65,-11.70,-29.10,17.77
3091,-5.54,0.25,-26.69,192.871,-42.969,738.770,-17.40,-8.85,-28.80,17.49
3101,-2.79,-1.24,-22.64,477.539,-164.551,752.930,-23.55,-8.10,-33.00,17.15
3113,6.17,-3.94,-22.00,229.004,-291.016,1193.848,-23.55,-8.10,-33.00,17.63
3123,2.45,-0.44,-26.10,-86.426,-73.242,1360.840,-16.20,-7.65,-28.05,17.10
3133,0.35,-1.29,-23.83,298.828,-387.207,1532.715,-21.90,-8.70,-31.95,17.44
3143,-2.50,-1.06,-22.01,-70.801,83.008,1287.109,-19.95,-10.65,-29.70,17.49
3153,-4.25,1.64,-26.77,-122.559,145.020,1077.637,-16.05,-7.95,-27.15,17.49
3163,-3.61,6.65,-29.03,5.371,12.695,853.516,-16.05,-7.95,-27.15,17.49
3175,-7.66,-2.05,-26.25,150.879,-41.992,1654.785,-19.65,-9.75,-29.55,17.49
3185,-5.82,-2.38,-32.40,320.801,-371.582,1091.797,-17.25,-6.75,-28.20,17.49
3195,-6.77,0.21,-22.74,192.383,16.602,812.012,-17.25,-6.75,-28.20,17.53
3205,-5.06,-2.53,-26.96,173.340,-192.383,953.613,-19.50,-9.45,-28.95,17.34
3215,1.03,-4.37,-26.95,489.746,-375.977,992.187,-17.40,-6.15,-29.85,17.34
3225,5.55,-6.82,-23.59,602.051,-109.863,812.500,-22.35,-9.30,-32.55,17.49
3235,6.36,-6.20,-26.34,131.836,-512.207,512.695,-17.25,-8.25,-27.90,17.34
3247,-3.83,-9.60,-27.60,308.594,-487.793,1377.441,-20.70,-7.05,-31.20,17.49
3257,-9.75,-6.25,-29.16,194.824,-355.469,994.141,-16.65,-6.90,-26.55,17.63
3267,-10.53,-7.05,-26.40,93.262,-75.195,375.488,-20.55,-4.95,-32.55,17.34
3277,-3.38,-2.05,-26.04,313.477,-391.113,813.965,-19.65,-7.65,-31.05,17.34
3287,-1.46,0.47,-25.90,58.594,212.891,1326.660,-19.65,-7.65,-31.05,17.44
3297,3.56,2.79,-26.49,-174.316,-28.809,802.246,-21.45,-3.90,-33.90,17.63
3307,4.96,5.51,-27.95,334.473,76.172,1056.641,-18.15,-8.55,-28.80,17.34
3319,7.02,1.44,-25.51,94.238,-391.602,1071.777,-18.15,-8.55,-28.80,17.49
3329,0.93,1.98,-33.08,207.520,-395.996,942.383,-19.65,-6.90,-31.80,17.53
3339,-3.88,2.48,-60.27,311.035,-289.062,1116.211,-16.80,-8.25,-28.20,17.53
3349,-7.27,4.24,-32.84,193.848,-235.352,915.527,-18.00,-4.65,-31.20,17.77
3359,-6.56,3.43,-25.11,82.520,-376.465,896.973,-20.55,-7.65,-31.80,17.44
3369,-6.42,0.10,-32.34,-5.859,249.023,1270.020,-20.55,-7.65,-31.80,17.29
3379,-0.47,-4.77,-30.63,255.371,-102.051,1084.473,-19.20,-3.45,-32.40,17.49
3396,4.75,-4.22,-30.47,69.336,-331.543,1412.598,-17.40,-8.85,-28.35,17.49
3405,4.95,-6.07,-29.27,144.531,-253.418,1286.621,-17.40,-8.85,-28.35,17.77
3415,-1.54,-0.35,-30.97,123.535,-3.418,740.234,-20.10,-6.15,-31.50,17.49
3425,2.82,-2.60,-31.46,125.977,-527.832,1581.055,-15.45,-7.35,-28.05,17.53
3435,-5.37,-1.73,-30.36,243.652,-214.355,732.910,-17.85,-4.50,-30.30,17.25
3445,0.52,-6.88,-33.11,204.590,-110.352,1488.770,-17.85,-9.75,-29.10,17.49
3455,3.64,-1.83,-30.47,21.484,-148.926,562.012,-17.85,-9.75,-29.10,17.49
3467,7.60,-5.70,-29.19,182.129,-264.160,1533.203,-16.05,-6.30,-28.20,17.49
3477,10.56,-4.44,-26.54,271.973,-287.598,599.121,-18.60,-3.30,-31.05,17.44
3487,0.05,0.98,-31.92,244.141,86.914,717.773,-16.50,-8.70,-30.90,17.63
3496,-10.98,-1.60,-25.21,-244.629,-24.902,1321.777,-16.50,-8.70,-30.90,17.63
3506,-3.72,-0.61,-21.29,603.027,-849.609,932.129,-16.50,-8.70,-30.90,17.29
3516,-17.34,1.73,-29.44,23.437,138.184,507.324,-18.90,-6.45,-32.25,17.63
3526,0.23,-1.47,-25.50,574.219,-691.895,1074.707,-14.10,-7.05,-28.95,17.44
3538,-3.59,-1.66,-23.82,558.105,-341.309,1488.281,-15.30,-9.15,-29.40,17.68
3548,-3.69,4.97,-33.44,73.242,75.195,231.445,-15.90,-4.05,-30.30,17.49
3558,9.13,-1.80,-33.34,574.219,-1088.867,1999.939,-17.25,-7.05,-31.95,17.49
3568,2.35,5.47,-28.31,-10.254,-385.742,506.348,-12.60,-5.55,-27.15,17.44
3578,12.13,-3.07,-34.42,490.234,-1093.750,1726.074,-12.60,-5.55,-27.15,17.49
3588,-0.15,5.02,-23.13,-120.117,-233.398,688.477,-13.80,-7.50,-27.45,17.25
3598,-8.66,-5.84,-55.60,241.699,-168.457,1844.727,-17.10,-2.10,-30.75,17.34
3610,2.46,-1.31,-34.79,16.113,-376.953,1776.367,-16.20,-7.65,-29.55,17.10
3620,2.47,2.21,-28.93,146.484,-90.332,1025.391,-13.95,-2.55,-27.60,17.63
3630,1.29,-0.27,-31.34,210.937,-292.480,1374.023,-18.15,-6.15,-30.75,17.34
3640,8.08,-3.83,-35.40,397.461,-193.848,1389.648,-11.10,-4.65,-27.15,17.53
3650,5.31,2.84,-36.02,298.828,-320.801,500.977,-19.20,-4.65,-31.65,17.77
3660,6.41,-2.97,-34.95,366.211,-378.906,890.137,-19.20,-4.65,-31.65,17.29
3670,0.66,-2.59,-31.00,-22.949,-506.836,1812.500,-16.05,-3.15,-30.45,17.44
3682,0.89,-1.23,-32.40,601.074,-747.070,1632.324,-14.70,-6.90,-29.55,17.29
3692,-5.39,3.07,-32.86,-222.656,-192.383,815.430,-15.75,-2.25,-30.15,17.25
3702,0.92,-1.02,-31.51,416.992,-19.043,1416.016,-16.50,-4.65,-30.15,17.53
3712,-0.46,-0.40,-26.17,205.078,-423.340,1748.535,-16.50,-4.65,-30.15,17.63
3722,-3.82,3.30,-36.39,-114.258,-95.703,731.445,-15.90,-5.25,-32.25,17.44
3732,9.27,1.82,-36.42,180.664,4.883,1201.172,-12.00,-4.50,-28.05,17.49
3744,-1.40,7.91,-37.46,-138.184,374.512,1537.109,-12.00,-4.50,-28.05,17.49
3754,8.98,-3.41,-31.31,266.602,-625.000,346.191,-11.70,-5.70,-28.35,17.44
3764,-0.34,-1.15,-32.42,380.859,-454.590,1208.984,-14.10,-2.25,-31.20,17.49
3774,-12.11,-1.08,-30.53,262.695,-128.906,565.918,-13.20,-4.95,-28.80,17.34
3784,-9.03,-5.32,-35.59,-146.484,228.516,435.059,-12.45,-2.10,-30.30,17.49
3794,-0.43,-2.63,-33.08,625.977,-290.039,531.250,-12.45,-2.10,-30.30,17.44
3804,1.51,-8.40,-35.44,514.648,-582.520,1614.746,-13.20,-0.15,-29.85,17.49
3816,-7.48,-5.36,-33.71,405.762,-321.777,52.246,-13.95,-5.70,-29.85,17.49
3826,4.73,-6.31,-33.66,130.859,-125.488,1090.332,-12.45,-1.35,-27.30,17.34
3836,4.78,-7.39,-35.51,327.148,-146.484,1391.113,-14.55,-5.85,-29.70,17.68
3846,11.70,-8.78,-30.08,172.363,-661.621,1604.004,-12.75,-2.10,-26.10,17.63
3856,5.72,-4.79,-34.01,437.988,-676.270,983.398,-14.70,-3.75,-31.80,17.44
3866,5.98,-7.53,-28.98,152.832,-560.059,1070.801,-12.45,-3.75,-28.35,17.63
3876,2.05,-10.45,-27.20,236.816,-650.879,1764.160,-12.45,-3.75,-28.35,17.63
3888,-8.37,-2.75,-34.64,657.715,-205.078,328.125,-13.80,-3.45,-30.90,17.49
3898,-1.50,-3.11,-28.89,562.012,-399.902,1319.336,-11.10,-2.70,-27.45,17.68
3913,-3.76,6.13,-34.42,-131.348,154.785,751.465,-14.55,-1.95,-31.65,17.34
3922,3.73,3.78,-36.44,209.961,-117.676,828.613,-14.55,-1.95,-31.65,17.34
3932,-1.11,5.21,-33.87,61.523,-492.187,970.215,-14.70,-3.30,-30.75,17.34
3942,5.66,0.18,-35.85,355.469,-426.270,1367.188,-10.65,-3.45,-28.65,17.63
3954,-6.24,3.94,-34.18,231.934,-591.309,467.285,-10.65,-3.45,-28.65,17.53
3964,-5.00,1.67,-35.86,262.695,-275.879,1028.320,-11.10,-4.65,-27.45,17.53
3974,-1.46,-2.46,-33.91,291.504,-273.437,1745.605,-14.10,-1.50,-31.20,17.49
3984,-4.74,-0.48,-40.93,19.043,-79.102,1428.711,-10.35,-4.35,-28.65,17.63
3994,-6.79,1.26,-37.13,-88.867,471.680,1072.754,-13.50,-1.35,-29.85,17.53
4004,2.34,-1.15,-41.69,109.863,-20.996,479.492,-13.50,-1.35,-29.85,17.25
4014,2.98,1.02,-39.63,46.387,582.520,932.129,-12.30,-1.05,-30.15,17.34
4026,4.35,1.66,-28.21,261.719,-444.824,445.801,-9.30,-2.55,-29.55,17.01
4036,0.52,1.69,-33.89,462.891,-823.730,-99.609,-12.60,-1.50,-31.20,17.34
4046,-1.05,4.79,-30.98,211.914,-705.566,139.648,-9.75,-2.10,-29.55,17.34
4056,-4.63,-0.61,-26.69,338.867,-800.293,292.480,-9.75,-2.10,-29.55,17.68
4066,-2.94,-3.29,-30.39,-116.211,-610.352,722.168,-10.50,-2.85,-29.85,17.63
4076,6.83,-9.14,-25.16,258.789,-693.359,1238.770,-11.40,-0.75,-31.65,17.44
4086,3.64,0.76,-36.09,-13.672,-545.410,1652.832,-11.40,-0.75,-31.65,17.34
4098,4.64,-2.21,-33.51,578.613,-656.738,1109.863,-8.40,-1.50,-29.40,17.34
4108,2.84,-9.32,-35.86,312.012,-1067.383,732.910,-8.40,-1.50,-29.40,17.15
4118,6.76,-0.40,-33.99,269.531,-1008.301,1220.215,-9.00,-0.90,-29.85,17.49
4128,3.02,-0.02,-42.09,-77.148,-593.750,1364.258,-9.00,-0.90,-29.85,17.53
4138,-1.31,-2.14,-38.74,193.848,-341.797,1230.469,-9.00,-0.90,-29.85,17.53
4148,-3.96,1.16,-31.89,-55.664,474.609,1219.238,-10.05,-0.15,-32.25,17.53
4160,11.33,-1.49,-33.82,98.633,-424.805,742.676,-10.05,-0.15,-32.25,17.49
4170,11.35,-1.21,-34.11,-194.824,-367.676,760.254,-9.15,-1.95,-31.65,17.49
4180,11.23,-0.57,-39.94,-224.609,-402.344,876.465,-8.25,1.65,-32.55,17.53
4190,6.83,1.24,-36.34,-22.949,-736.328,1999.939,-8.55,2.10,-33.00,17.25
4200,-1.66,3.35,-36.55,-543.457,-489.258,1268.066,-8.70,2.25,-33.15,17.53
4210,-8.27,-1.34,-36.02,-25.391,-228.027,1856.445,-8.70,2.25,-33.15,17.34
4220,3.56,0.56,-39.56,-39.551,-541.992,663.574,-6.45,-0.30,-32.70,17.53
4232,3.50,2.60,-38.63,-93.262,-375.000,-64.941,-7.05,-0.45,-33.30,17.63
4242,7.65,7.44,-34.05,301.758,-190.430,1268.555,-7.95,0.00,-31.95,17.34
4252,9.93,1.29,-32.32,-35.156,-332.520,1184.082,-6.90,-0.75,-32.40,17.63
4262,2.05,8.23,-40.83,-171.387,-463.867,757.812,-6.90,-0.75,-32.40,17.34
4272,1.28,3.49,-35.24,-59.570,-540.527,650.391,-6.15,0.30,-33.90,17.44
4282,-8.01,3.88,-34.41,69.824,-576.172,671.387,-5.70,0.00,-33.90,17.53
4292,-9.39,-2.65,-29.89,-380.371,-190.430,893.066,-5.70,0.00,-33.90,17.49
4304,-4.40,-4.22,-36.09,-10.742,72.754,1531.250,-6.15,-0.30,-32.70,17.49
4314,4.07,-1.63,-29.62,-200.195,-304.687,730.957,-7.20,0.30,-33.90,17.44
4324,1.63,3.65,-33.92,-197.754,-123.047,1329.590,-6.30,0.45,-33.00,17.34
4334,1.57,3.04,-30.47,32.227,-571.289,810.547,-7.05,1.35,-33.30,17.49
4344,-0.91,3.93,-35.43,-83.008,-599.609,731.934,-7.05,1.35,-33.30,17.10
4354,-2.37,1.76,-34.43,-89.355,-162.109,1062.500,-6.60,2.10,-33.75,17.29
4364,3.24,-0.34,-31.69,-80.078,-89.355,781.250,-6.15,1.50,-34.20,17.63
4376,6.73,4.60,-35.59,-109.863,-442.871,873.047,-7.20,0.75,-34.65,17.53
4386,2.62,0.50,-29.44,-150.391,-292.480,1534.668,-5.70,0.30,-34.65,17.53
4396,-2.13,1.82,-33.02,-232.422,-8.789,1175.293,-5.55,0.90,-34.05,17.63
4406,-0.69,7.61,-31.76,31.738,-55.176,897.949,-5.10,0.90,-33.75,17.44
4416,0.80,8.18,-34.84,58.594,-120.605,777.832,-5.10,1.35,-35.55,17.44
4430,9.03,0.11,-27.77,185.059,-486.816,687.988,-4.50,0.75,-34.20,17.53
4440,8.98,-0.33,-35.37,-96.191,-437.500,1130.371,-3.00,0.30,-35.40,17.49
4452,5.97,-4.33,-37.22,-132.324,-477.539,1326.172,-4.80,0.45,-35.25,17.44
4462,-0.82,0.89,-29.69,-85.938,-357.910,1140.625,-3.60,0.45,-35.25,17.44
4472,-2.84,-5.14,-35.76,64.453,-154.297,492.187,-3.60,0.45,-35.25,17.68
4482,-0.93,-8.34,-30.20,-83.008,-341.797,1763.184,-3.15,2.10,-35.55,17.34
4492,-3.31,-6.27,-27.75,-255.859,-144.043,1461.914,-3.75,-0.30,-33.90,17.63
4502,0.38,-5.89,-31.30,-399.902,141.602,1078.125,-3.75,-0.30,-33.90,17.29
4512,2.25,-2.25,-33.50,-124.023,-55.664,1065.918,-3.45,0.30,-34.65,17.53
4524,5.21,-1.44,-29.47,-93.262,-278.320,1247.559,-2.55,1.05,-35.40,17.25
4534,0.86,3.06,-19.33,-148.437,-599.609,1009.766,-3.90,1.35,-34.05,17.44
4544,-4.79,0.49,-32.82,-233.398,-351.562,1156.250,-2.55,0.75,-35.40,17.53
4554,-9.95,-5.82,-32.05,-422.852,-159.668,1057.617,-2.55,0.75,-35.40,17.63
4564,-11.02,-2.08,-28.82,-110.840,74.707,468.750,-2.55,0.75,-36.60,17.53
4574,-0.17,-6.21,-25.50,145.020,-94.727,623.535,-1.80,1.50,-36.60,17.25
4584,1.10,-11.16,-32.40,-81.543,-274.902,1172.852,-1.80,2.70,-38.10,17.44
4596,8.06,-5.44,-30.51,130.371,-207.520,759.277,-0.75,1.05,-36.90,17.34
4606,8.63,-5.90,-29.40,-37.109,-480.469,603.516,-0.75,1.05,-36.90,17.34
4616,4.27,-3.77,-25.48,310.547,-658.203,575.195,1.05,1.50,-34.95,17.44
4626,-0.37,-5.26,-28.89,-56.152,-269.043,616.211,-0.30,1.95,-33.90,17.49
4636,3.91,-6.61,-27.16,-86.914,-271.973,1046.387,-0.30,1.95,-33.90,17.44
4646,2.44,-8.66,-27.37,-90.332,-324.219,1071.289,0.00,2.25,-33.15,17.25
4656,1.92,-1.69,-35.37,-300.293,-393.555,1158.203,-0.75,1.50,-33.15,17.25
4668,0.69,-3.36,-31.34,-140.137,-11.719,1299.805,0.30,1.05,-33.15,17.49
4678,-0.01,0.73,-27.50,-282.715,-264.648,1062.988,0.00,2.25,-33.90,17.53
4688,3.62,-6.89,-30.76,-327.148,-313.965,1216.309,0.00,2.25,-33.90,17.34
4698,4.04,0.43,-24.71,-297.852,-322.754,972.168,-1.65,2.10,-32.55,17.49
4708,-5.16,3.31,-27.88,-136.719,-230.469,1080.566,-0.15,1.35,-34.50,17.77
4718,-5.76,5.44,-33.02,-185.547,-199.707,761.719,-0.15,1.35,-34.50,17.49
4728,-0.19,4.92,-29.73,-95.215,-81.055,745.117,0.00,0.30,-33.15,17.49
4739,4.55,6.51,-33.95,-173.828,-285.156,641.602,-0.45,1.35,-35.55,17.53
4749,14.46,4.88,-26.00,-61.523,-313.965,1133.789,0.00,0.75,-33.45,17.44
4759,13.95,6.94,-31.45,-195.312,-400.391,991.699,0.75,1.95,-33.15,17.44
4769,7.63,7.88,-29.33,-235.840,-174.805,1668.945,0.75,1.95,-33.15,17.77
4778,3.95,10.95,-30.48,133.301,-448.242,140.137,-0.75,2.25,-33.90,17.53
4788,-3.02,9.66,-27.05,139.160,-635.254,745.117,0.15,2.10,-33.30,17.53
4797,-19.21,-0.18,-23.00,84.473,-149.414,1261.230,-1.05,1.50,-34.20,17.77
4808,-18.57,2.03,-32.13,-136.719,89.355,1371.094,0.45,1.35,-34.05,17.49
4818,-8.05,-0.08,-30.82,31.250,205.078,1352.051,0.45,1.35,-34.05,17.53
4828,-0.04,-0.79,-27.82,-71.289,-308.594,1987.793,0.30,1.05,-32.70,17.82
4838,-1.37,5.73,-33.11,-261.230,92.773,1196.289,0.45,0.90,-34.80,17.63
4847,1.09,1.71,-28.66,134.277,-117.188,558.594,0.45,0.90,-34.80,17.49
4857,-0.17,3.21,-21.34,-10.742,-573.242,1207.520,1.50,1.50,-34.20,17.53
4867,-12.60,-0.66,-30.43,-218.262,25.391,1450.684,0.30,1.05,-34.20,17.82
4879,-8.39,-2.50,-24.94,188.965,-739.746,1257.324,0.45,0.15,-34.80,17.77
4889,-15.85,-5.14,-25.82,59.570,-73.242,1219.238,2.10,1.65,-34.05,17.77
4899,-12.83,-12.78,-20.66,-546.387,132.812,1940.918,2.10,1.65,-34.05,17.49
4909,-18.18,-13.79,-26.29,-73.730,554.687,1235.840,1.50,0.30,-34.20,17.49
4919,-7.12,-14.09,-29.37,176.270,-214.844,970.703,2.10,0.90,-34.05,17.63
4929,-1.63,-16.76,-21.37,-156.738,-21.973,463.379,2.10,0.90,-34.05,17.49
4946,27.56,-22.05,-30.27,-40.039,-346.680,1264.160,1.05,-0.30,-33.90,17.49
4955,23.32,-20.56,-22.76,125.488,-625.977,1637.695,1.80,0.00,-33.45,17.68
4965,13.00,-20.63,-28.02,-139.648,-499.512,1135.742,2.40,2.10,-33.30,17.53
4975,0.37,-19.98,-35.34,-99.609,-310.059,390.137,2.40,2.10,-33.30,17.68
4985,5.13,-15.70,-25.51,186.035,-789.551,437.012,1.80,0.30,-33.90,17.68
4994,-1.14,-13.98,-33.71,-270.020,-593.750,1169.922,1.20,1.65,-34.05,17.68
5004,-2.96,-12.00,-22.14,-437.012,141.602,1136.230,1.80,0.75,-33.45,17.49
5016,0.08,-14.96,-30.25,-52.734,-230.469,1531.738,1.80,0.75,-34.95,17.53
5026,8.64,-18.95,-36.96,-149.902,-288.574,1019.043,1.80,0.75,-34.95,17.82
5036,12.53,-21.34,-22.53,-174.316,-26.855,1657.715,1.05,1.05,-34.20,17.53
5046,2.63,-13.22,-38.62,-590.820,377.441,1312.988,2.25,1.05,-33.45,17.82
5056,-6.47,-6.76,-23.21,-28.320,-200.684,288.086,2.25,1.05,-33.45,17.82
5066,-15.71,-3.60,-32.58,177.734,-144.043,665.039,0.00,2.25,-34.20,17.49
5076,-10.80,-16.50,-24.83,19.043,-509.277,914.551,0.30,0.30,-33.90,17.63
5088,-18.33,-11.24,-22.95,-175.293,207.520,1459.961,1.05,-0.30,-34.65,17.49
5098,-13.70,-9.63,-29.05,113.770,-527.832,1041.016,0.90,0.45,-34.05,17.49
5108,-13.23,-9.12,-27.60,193.359,-542.480,1243.652,0.90,0.45,-34.05,17.34
5118,-14.11,-8.12,-32.84,-278.320,-511.230,847.656,-0.30,0.75,-34.95,17.53
5128,-9.96,-8.15,-34.74,142.090,-137.695,1074.707,1.20,0.45,-34.05,17.63
5138,-16.28,-10.62,-34.17,-360.840,-105.469,1780.273,0.45,0.90,-34.05,17.49
5148,-18.32,-9.16,-36.14,-330.566,-43.457,1053.711,2.10,0.15,-34.80,17.29
5160,-8.16,-4.63,-29.10,-195.801,-307.129,1261.230,1.20,0.45,-34.80,17.77
5170,-4.34,2.04,-32.45,-610.352,150.391,1929.688,0.30,-1.05,-34.20,17.49
5180,5.27,13.67,-23.02,-151.855,-271.484,926.270,0.30,0.75,-33.90,17.53
5190,6.20,21.42,-35.00,-385.254,-443.848,521.484,0.30,0.75,-33.90,17.63
5199,7.17,14.13,-27.61,31.738,-143.066,1124.512,1.80,1.50,-34.20,17.53
5209,5.66,10.58,-30.96,-275.879,-399.902,1448.730,1.80,-1.05,-34.20,17.34
5219,-4.44,17.98,-34.48,303.223,-757.812,485.840,1.80,0.00,-33.90,17.49
5231,-16.02,12.56,-29.47,-181.641,-311.523,825.684,0.75,1.05,-34.95,17.44
5241,-11.24,10.51,-26.98,153.809,-222.168,527.832,2.55,0.75,-35.40,17.10
5251,-4.41,-1.23,-29.80,-29.785,336.426,1658.203,3.60,0.90,-34.50,17.63
5261,17.74,8.10,-27.15,425.293,181.152,1296.875,3.60,0.90,-34.50,17.49
5270,20.80,5.54,-27.45,-373.047,444.824,526.367,3.60,0.90,-34.50,17.63
5280,28.43,5.14,-29.82,-20.996,-450.195,454.590,3.75,1.50,-33.90,17.44
5289,8.72,4.86,-31.72,342.285,-915.039,257.812,3.75,1.95,-34.20,17.49
5300,0.21,5.44,-28.91,198.242,-969.727,-2.930,2.85,0.15,-34.80,17.44
5310,-9.60,-2.96,-32.68,194.336,-646.484,1715.332,2.85,0.90,-35.55,17.68
5320,-15.35,-9.92,-33.76,-643.555,844.727,1602.539,2.85,0.90,-35.55,17.53
5330,5.68,5.03,-32.30,-111.328,-145.508,595.703,3.90,0.90,-35.25,17.63
5340,7.19,6.13,-32.83,34.180,-372.070,1084.473,4.95,-0.30,-35.40,17.49
5350,6.03,2.23,-31.60,-182.617,-7.812,1182.129,4.35,2.10,-35.25,17.82
5359,8.66,-1.12,-28.41,-225.098,-819.824,720.215,3.75,0.30,-35.70,17.49
5370,-0.75,9.62,-31.05,-236.328,-301.270,899.902,3.75,0.30,-35.70,17.68
5380,1.59,-1.36,-36.67,84.961,-390.625,605.957,4.50,0.75,-34.20,17.53
5390,-3.21,3.80,-34.91,-398.926,-166.992,1572.266,5.85,0.45,-33.75,17.49
5400,-2.57,2.56,-40.12,-96.191,-205.078,903.809,5.85,0.45,-33.75,17.29
5410,-3.02,5.95,-34.56,-57.129,-403.320,544.434,5.55,-0.15,-34.05,17.63
5420,-2.50,3.35,-35.32,14.160,-481.934,488.770,5.70,0.75,-35.40,17.49
5429,-0.56,-2.15,-24.98,-373.047,-29.785,1431.152,7.20,0.75,-35.40,17.49
5441,2.82,5.40,-39.98,-92.285,-249.512,1708.008,6.45,0.00,-36.15,17.49
5455,0.31,0.49,-34.67,-38.574,-615.234,736.816,6.45,1.95,-34.95,17.29
5465,-1.90,-2.11,-44.96,-106.445,-328.125,1292.969,7.20,-0.75,-34.95,17.49
5475,-3.13,-0.18,-31.71,-176.758,-554.199,909.668,6.60,0.15,-36.00,17.68
5485,-0.28,3.19,-35.76,-36.133,-377.930,421.875,7.35,1.35,-34.50,17.68
5495,-0.79,-4.63,-37.31,78.613,-706.543,1047.363,8.25,0.90,-34.80,17.53
5505,-7.08,-3.35,-40.09,-384.766,-61.035,1185.547,7.35,0.45,-34.80,17.53
5515,-6.94,4.38,-41.34,48.340,-272.461,455.566,6.90,1.05,-34.95,17.49
5524,0.82,-2.25,-38.77,-211.426,-323.730,1162.598,6.90,1.05,-34.95,17.53
5536,1.58,3.54,-36.45,-374.512,-354.492,1038.574,7.35,0.15,-34.05,17.63
5546,0.38,-0.24,-44.07,-22.461,-186.035,1266.602,7.95,0.30,-34.65,17.63
5556,-7.50,4.69,-33.51,-291.504,-121.582,655.273,8.40,-0.30,-34.95,17.68
5566,4.34,3.93,-32.80,185.059,-514.160,512.695,7.95,0.75,-36.15,17.68
5575,-3.57,0.83,-29.01,-188.965,-192.871,1528.809,7.95,0.75,-36.15,17.44
5585,-5.06,-0.72,-36.47,225.586,-732.910,1222.168,9.15,0.75,-34.95,17.63
5597,-2.14,-1.59,-33.92,260.254,-341.797,1131.348,9.60,0.30,-33.90,17.34
5607,-5.37,2.21,-40.55,-12.695,-274.902,1043.457,9.60,0.30,-33.90,17.68
5617,-3.34,-3.12,-46.05,14.648,-39.063,986.328,9.00,-0.90,-34.05,17.44
5627,6.07,0.65,-37.02,-259.766,-336.426,883.301,9.30,0.45,-33.30,17.49
5637,1.56,5.45,-43.56,0.000,-957.520,863.281,8.70,-0.75,-35.40,17.44
5646,-1.25,-4.81,-42.56,-299.805,-404.297,1315.918,9.75,0.45,-34.50,17.49
5656,0.42,-4.15,-37.67,20.508,-500.000,985.840,9.75,0.45,-34.50,17.49
5665,-5.78,2.32,-37.63,-151.367,-41.992,866.699,9.60,0.30,-34.95,17.49
5677,7.95,1.52,-44.46,190.918,-573.730,1168.457,8.40,-0.30,-36.60,17.53
5687,0.04,6.69,-38.96,-90.820,-169.922,1121.094,10.35,-0.75,-34.20,17.77
5697,5.18,-1.29,-35.28,-308.105,-163.574,1599.609,9.60,-0.30,-34.95,17.63
5707,3.15,2.08,-39.02,54.688,-576.172,592.773,9.60,-0.30,-34.95,17.49
5716,-3.14,-1.79,-37.49,-14.160,-619.629,1271.973,10.05,0.45,-34.80,17.77
5726,-5.05,-1.36,-37.84,-177.246,187.500,1075.684,11.70,-1.65,-34.50,17.49
5736,6.93,0.32,-44.41,181.152,-645.020,565.918,11.70,-1.65,-34.50,17.53
5748,3.76,-2.60,-42.21,224.121,-287.598,833.496,10.35,-2.25,-34.20,17.77
5758,2.79,1.85,-35.50,-83.984,-350.098,963.867,11.40,0.75,-35.40,17.53
5767,1.69,-5.72,-41.70,14.648,-26.855,1630.859,9.75,-1.35,-35.25,17.29
5777,-3.10,-1.34,-39.37,-14.648,-568.848,1038.574,12.75,0.15,-34.50,17.49
5787,-4.04,-2.22,-40.26,-3.418,-439.941,893.555,12.75,0.15,-34.50,17.77
5797,-2.82,-5.57,-40.25,14.160,-421.875,1174.805,12.45,-0.90,-34.05,17.53
5809,0.24,-0.76,-38.71,12.207,-360.840,1038.574,12.30,-0.75,-36.60,17.68
5819,6.21,0.15,-42.86,-316.895,-180.664,967.285,12.30,-0.75,-36.60,17.68
5829,3.50,-5.57,-37.87,102.051,-304.199,1386.230,11.70,-2.10,-36.75,17.68
5839,6.62,-3.27,-43.94,352.539,-1363.281,848.633,13.35,-1.50,-33.90,17.49
5849,-6.21,-5.81,-47.66,6.348,97.656,1682.617,12.45,-1.35,-35.25,17.44
5859,2.95,-8.39,-39.79,-57.617,-127.441,1446.289,12.45,-2.85,-33.75,17.49
5869,3.42,-4.58,-42.18,-134.766,-249.512,359.863,12.45,-2.85,-33.75,17.68
5882,7.92,-5.50,-33.65,244.629,-687.988,736.328,13.20,-2.10,-34.80,17.44
5892,4.92,-4.13,-36.34,-235.352,-511.719,1619.629,12.60,-1.50,-34.80,17.44
5902,0.59,-8.94,-44.79,-258.789,-457.520,948.730,13.95,-1.65,-33.30,17.49
5912,6.97,-3.57,-38.98,19.043,-325.195,1073.730,13.95,-1.65,-33.30,17.49
5922,-5.33,-3.14,-39.76,-417.969,-657.715,1012.695,14.85,-2.25,-33.90,17.68
5932,2.50,-3.71,-35.60,49.805,-309.570,596.680,13.20,-2.55,-35.25,17.77
5942,1.86,1.34,-33.68,162.598,-685.059,906.250,13.20,-2.55,-35.25,17.25
5953,-0.43,-0.89,-37.32,129.883,-475.586,851.074,13.05,-2.25,-36.15,17.44
5975,3.34,-3.76,-39.29,-75.684,-659.180,1417.480,12.60,-2.25,-36.60,17.53
5984,2.53,-0.95,-36.82,53.711,-938.965,1759.277,15.75,-2.70,-34.95,17.77
5994,1.82,5.65,-43.26,-138.184,-364.258,838.867,15.75,-2.70,-34.95,17.63
6004,-3.77,5.49,-37.85,129.883,-179.199,253.906,14.85,-5.55,-34.20,17.34
6014,-4.39,6.76,-41.59,192.871,-178.223,495.605,13.80,-3.15,-36.60,17.63
6024,-2.04,0.55,-38.68,-233.398,-83.496,1219.727,14.85,-3.90,-34.95,17.25
6036,2.68,2.42,-39.95,-287.598,-282.227,1103.027,14.70,-0.90,-36.00,17.77
6046,3.50,2.55,-38.98,-392.578,-190.430,1656.738,15.15,-4.50,-34.05,17.49
6056,1.38,1.79,-42.76,56.152,-391.602,936.035,15.30,-2.25,-35.40,17.53
6066,-1.09,0.44,-36.35,413.086,-792.480,813.477,16.65,-5.25,-37.50,17.77
6076,-7.91,0.55,-36.19,125.977,-398.926,925.293,16.65,-5.25,-37.50,17.53
6086,7.02,1.30,-34.64,143.555,240.234,1547.852,15.15,-5.25,-35.25,17.53
6095,9.31,3.62,-43.24,-249.023,52.734,727.051,17.25,-2.70,-35.70,17.49
6107,16.59,3.50,-38.37,140.625,-917.969,1931.152,14.70,-3.75,-35.55,17.34
6117,-4.77,0.66,-39.74,19.531,-655.273,1628.418,17.55,-3.45,-35.70,17.25
6127,-4.78,6.31,-42.85,155.273,-706.055,643.066,17.55,-3.45,-35.70,17.53
6137,-8.19,-0.38,-45.51,-125.977,-144.531,999.512,16.65,-4.05,-34.80,17.68
6147,2.34,7.09,-42.65,-4.395,-304.687,1088.379,15.15,-6.45,-36.30,17.68
6157,2.30,-2.09,-40.86,-57.129,-216.797,409.180,15.15,-6.45,-36.30,17.44
6167,0.72,0.05,-36.72,-24.902,208.496,699.219,15.75,-6.75,-36.60,17.77
6179,9.91,-2.15,-40.53,-176.758,-709.961,1412.598,18.75,-4.35,-35.70,17.77
6189,-3.05,-0.51,-38.40,3.906,-768.555,1049.316,16.80,-3.45,-36.15,17.68
6199,-2.28,6.80,-40.43,215.820,-397.949,413.574,17.25,-4.65,-34.95,17.29
6209,8.02,-0.24,-38.56,44.922,-640.137,611.816,17.25,-4.65,-34.95,17.49
6219,2.01,2.20,-28.11,300.781,-627.930,744.141,17.85,-4.05,-34.50,17.77
6229,-1.22,-0.56,-36.36,158.203,-622.559,895.020,16.05,-5.55,-36.90,17.49
6241,-1.25,-4.50,-41.01,71.777,-133.789,1057.617,18.45,-5.55,-34.95,17.49
6251,-2.24,5.21,-34.35,18.555,-305.176,1231.934,17.40,-6.15,-36.00,17.53
6261,1.94,0.08,-39.83,-151.855,152.832,1156.250,17.40,-6.15,-36.00,17.68
6270,-1.04,7.22,-38.99,-144.531,-451.172,958.984,17.10,-4.95,-36.30,17.63
6280,7.06,2.56,-36.76,20.020,-391.602,1050.293,17.55,-5.85,-34.65,17.77
6289,-1.57,3.82,-38.97,-177.734,-626.953,1999.939,17.55,-5.85,-34.65,17.53
6299,-6.84,2.92,-37.31,-318.848,-48.340,943.848,17.40,-6.45,-35.55,17.82
6311,10.57,3.47,-41.29,-204.590,-338.867,1246.094,16.50,-4.65,-36.60,17.34
6321,20.00,2.22,-37.63,203.125,-968.262,1098.145,18.15,-6.90,-35.55,17.49
6331,6.99,2.01,-33.77,-212.402,-1333.984,1962.891,17.10,-4.50,-37.05,17.44
6341,0.88,-1.48,-33.25,-187.500,-450.195,1221.191,17.10,-4.50,-37.05,17.68
6351,2.46,5.88,-43.85,-457.520,-345.703,1081.055,18.45,-5.10,-37.65,17.49
6361,12.05,3.52,-39.41,87.402,-462.402,352.051,19.35,-7.35,-35.25,17.44
6370,4.34,2.96,-41.15,360.352,-731.445,974.609,18.15,-6.90,-37.50,17.68
6382,-1.63,1.69,-44.03,-39.063,-58.105,1271.973,19.65,-6.90,-35.25,17.63
6392,-1.82,6.07,-36.75,10.742,-81.543,1081.543,19.65,-6.90,-35.25,17.53
6402,0.90,-1.25,-45.49,63.965,-414.551,1386.230,20.70,-6.75,-35.40,17.44
6412,-0.24,-2.17,-41.10,218.750,-234.863,1314.941,18.45,-7.95,-36.90,17.49
6422,-7.74,-5.73,-43.69,141.602,127.930,1806.641,18.45,-7.95,-36.90,17.49
6432,-2.22,-0.99,-36.73,221.680,-385.254,1002.441,18.15,-8.55,-37.05,17.68
6442,-3.05,-7.27,-40.75,204.102,-446.777,1478.027,20.25,-7.05,-35.70,17.82
6454,-6.41,-0.15,-43.66,171.875,-128.906,547.363,21.00,-7.05,-34.95,17.49
6464,-10.31,-0.98,-41.65,88.867,-153.320,459.961,21.00,-7.05,-34.95,17.49
6474,-8.80,-5.02,-35.91,156.738,176.270,758.789,20.55,-7.65,-35.55,17.77
6490,-2.64,-3.34,-40.13,-183.594,-256.836,1081.543,18.90,-8.55,-37.05,17.63
6499,-2.35,2.30,-32.19,-91.309,-0.977,887.207,18.90,-8.55,-37.05,17.49
6509,-0.64,0.39,-24.13,-244.629,-41.504,1481.445,18.45,-9.15,-38.10,17.49
6519,-10.54,-2.07,-36.43,136.719,-131.836,1066.895,20.55,-6.90,-36.00,17.68
6531,-2.43,0.76,-34.34,11.719,-117.188,680.664,20.70,-10.35,-36.15,17.77
6541,-6.06,-1.81,-38.29,-22.461,-251.953,790.039,20.70,-7.95,-36.15,17.63
6551,-1.21,-2.63,-33.82,69.824,-404.297,1448.242,20.70,-7.95,-36.15,17.68
6561,-0.41,-3.88,-36.71,99.609,-681.152,1307.129,19.20,-7.50,-36.60,17.63
6571,4.95,-2.92,-28.90,331.543,-842.773,1160.156,21.00,-11.55,-35.40,17.53
6581,3.61,-4.95,-39.54,213.867,-522.461,1101.563,20.25,-8.70,-37.65,17.63
6591,-6.62,-0.37,-40.95,48.828,-402.344,781.250,21.45,-9.45,-34.95,17.68
6603,1.24,-6.21,-41.06,75.684,460.937,1248.047,21.45,-9.45,-34.95,17.53
6613,8.40,-7.51,-38.79,-119.629,46.875,1054.688,20.25,-10.35,-34.65,17.77
6623,9.83,1.65,-38.11,-459.473,46.875,1171.387,20.25,-10.35,-37.35,17.53
6633,5.23,-2.43,-39.31,-46.387,-202.148,728.027,20.25,-10.35,-37.35,17.49
6643,8.95,-0.89,-32.04,-6.348,-247.070,612.305,22.65,-9.15,-37.50,17.49
6653,8.50,0.46,-24.52,95.703,-333.984,671.875,22.65,-9.15,-35.40,17.49
6662,2.64,-1.36,-35.05,187.988,-546.875,884.277,21.00,-10.35,-38.10,17.82
6674,-1.37,4.29,-33.98,100.098,-485.840,856.445,22.20,-9.90,-36.15,17.77
6684,-8.11,6.05,-33.40,69.336,-360.840,1124.023,21.90,-8.70,-37.65,17.53
6694,-0.38,-3.69,-31.68,202.148,94.238,865.723,20.85,-11.70,-37.05,17.63
6704,-8.69,1.53,-33.03,-290.527,75.195,868.164,21.60,-9.75,-37.05,17.63
6714,-0.04,8.79,-31.44,347.168,-881.348,665.039,21.60,-11.70,-35.55,17.49
6724,-1.03,4.90,-31.51,159.180,-743.652,964.844,21.60,-11.70,-35.55,17.53
6734,-4.34,1.63,-38.24,51.758,-606.445,1672.363,22.95,-12.75,-36.90,17.63
6746,-9.81,-6.25,-38.73,-197.266,-276.367,1174.805,20.55,-10.50,-38.55,17.63
6756,-4.81,4.87,-42.05,207.520,-66.895,651.367,20.55,-10.50,-38.55,17.68
6766,-2.47,2.63,-38.34,331.055,-78.125,1032.227,21.45,-10.65,-37.65,17.68
6776,-0.15,3.92,-34.84,-43.945,80.566,998.535,22.20,-11.55,-35.40,17.63
6786,-2.97,6.73,-36.12,1.953,-66.406,1289.063,20.55,-13.20,-38.25,17.49
6796,-5.38,6.54,-39.95,156.250,-896.484,1119.629,22.20,-9.90,-37.65,17.34
6808,-12.68,4.05,-40.28,-74.219,-293.457,1296.387,22.20,-9.90,-37.65,17.53
6818,-0.69,8.47,-37.28,2.441,-384.766,792.480,21.60,-11.70,-37.80,17.44
6828,-4.34,5.39,-46.66,-134.277,-153.809,1186.035,22.35,-13.65,-36.75,17.29
6838,9.42,7.22,-37.06,-210.449,-26.367,1252.930,21.45,-12.75,-39.15,17.63
6848,16.47,2.89,-33.02,303.223,-513.672,1083.008,23.70,-14.25,-36.90,17.44
6857,1.03,7.18,-39.74,18.066,-206.055,289.551,22.35,-15.30,-37.80,17.53
6867,-5.02,-1.11,-39.58,360.352,-834.473,157.715,22.65,-11.55,-37.35,17.44
6879,-10.31,0.05,-28.21,-16.113,-302.246,981.445,23.40,-14.25,-36.15,17.49
6889,-7.47,-3.08,-43.69,382.324,36.621,470.703,23.40,-14.25,-36.15,17.49
6899,-1.00,-3.78,-33.43,-10.742,286.621,1436.035,23.70,-12.75,-35.70,17.53
6909,2.33,-6.53,-39.33,384.277,-422.852,1167.480,24.00,-17.25,-37.05,17.68
6919,6.84,1.42,-39.04,520.508,-738.770,84.961,24.15,-11.85,-39.15,17.63
6929,4.08,1.55,-32.61,137.695,-646.973,1366.211,22.95,-15.00,-36.60,17.77
6938,1.37,-6.69,-37.53,225.586,-976.562,1211.426,22.95,-15.00,-36.60,17.44
6950,-0.88,-5.90,-37.67,204.590,-772.949,509.766,24.00,-14.10,-37.80,17.53
6960,-0.57,1.98,-40.52,88.867,-300.293,1036.133,21.60,-16.05,-37.50,17.68
6970,3.89,7.53,-40.25,5.371,-438.965,1606.934,21.60,-16.05,-37.50,17.44
6980,-2.08,8.03,-29.27,-99.121,-416.992,1342.773,23.25,-16.80,-38.55,17.44
6990,-11.55,5.84,-39.29,34.668,-703.613,1600.098,22.80,-13.65,-39.75,17.82
7004,-7.43,6.92,-41.72,95.703,-564.941,1305.664,22.65,-15.90,-38.85,17.53
7014,-0.79,-2.00,-32.10,136.719,-593.750,1486.328,22.65,-15.90,-38.85,17.44
7026,-7.53,5.11,-42.79,70.313,-182.129,1797.363,22.80,-18.00,-39.30,17.34
7036,-7.22,-5.38,-41.31,5.859,-249.512,1489.746,22.65,-14.70,-37.65,17.44
7046,5.07,-1.04,-39.85,148.926,-49.805,922.363,25.50,-16.80,-37.80,17.82
7056,3.24,-0.12,-41.43,392.578,-444.824,750.977,22.80,-16.80,-38.55,17.68
7066,-0.45,-7.85,-32.43,-46.387,-317.871,1240.234,22.80,-16.80,-38.55,17.53
7076,-6.86,-5.17,-47.81,-136.230,-288.574,796.387,24.00,-18.90,-38.25,17.68
7086,3.69,-5.91,-47.96,313.477,-599.609,803.711,22.80,-15.60,-38.55,17.44
7098,-4.95,-2.37,-46.11,285.156,-700.195,687.988,22.80,-15.60,-38.55,17.68
7108,-5.26,-3.79,-38.52,-345.215,-581.543,1315.430,23.40,-18.60,-39.60,17.44
7118,-2.50,3.25,-39.79,235.352,-419.434,892.578,24.90,-17.40,-38.40,17.63
7128,0.82,3.10,-41.46,220.215,-128.906,976.074,24.00,-19.20,-37.80,17.49
7137,2.15,3.85,-33.27,50.293,-560.059,1579.590,23.25,-16.50,-38.55,17.63
7147,3.08,-1.02,-43.65,-101.563,-625.000,1433.105,23.25,-16.50,-38.55,17.49
7157,2.91,-2.54,-45.40,147.949,-819.824,526.367,23.40,-18.60,-38.85,17.29
7169,4.23,-2.21,-42.07,37.598,-512.207,1114.746,24.15,-15.90,-39.15,17.77
7179,1.48,-2.40,-40.37,180.664,-701.660,897.949,25.50,-20.10,-38.55,17.34
7189,-5.59,0.77,-42.40,-77.148,3.906,1949.219,23.70,-18.60,-39.60,17.49
7199,13.79,-6.50,-32.20,636.719,-867.187,216.797,23.70,-18.60,-39.60,17.68
7209,-7.51,6.94,-38.36,66.406,-334.473,216.797,24.75,-20.40,-38.55,17.77
7219,-6.05,0.49,-38.49,-83.496,-392.578,1442.383,22.95,-17.40,-39.60,17.77
7229,-3.66,-0.53,-42.33,372.070,-658.203,547.363,22.95,-17.40,-39.60,17.49
7241,4.02,-0.84,-27.24,-152.832,-400.879,951.660,22.95,-20.70,-39.15,17.77
7251,3.01,-3.15,-40.13,104.980,-631.348,505.859,24.60,-16.65,-38.40,17.82
7261,5.96,0.60,-41.11,-91.309,-506.836,1266.113,24.60,-21.00,-38.10,17.49
7271,-3.73,5.21,-41.30,-453.613,-353.027,1757.813,24.75,-18.90,-41.25,17.63
7281,9.60,2.89,-36.95,370.605,-894.043,1012.695,24.75,-18.90,-41.25,17.49
7291,-3.79,6.52,-43.31,84.961,-474.609,1704.102,24.00,-21.30,-38.55,17.68
7303,-6.47,5.63,-23.72,310.059,-1195.801,373.535,23.25,-18.90,-39.30,17.77
7313,-9.95,7.25,-38.02,-246.582,-423.828,1060.059,25.05,-21.30,-38.55,17.53
7323,-11.57,5.12,-33.37,-117.676,-182.617,1898.438,23.70,-20.70,-39.60,17.53
7333,4.69,1.98,-40.84,491.211,-626.465,799.316,24.75,-19.65,-40.50,17.63
7343,-4.81,8.69,-43.05,140.625,-155.273,718.262,24.30,-21.60,-39.30,17.49
7353,-0.22,1.65,-36.56,18.066,-737.793,1999.939,24.00,-20.10,-40.80,17.68
7363,5.56,3.61,-37.02,462.891,-818.359,630.371,24.00,-20.10,-40.80,17.77
7375,3.99,-2.48,-42.50,314.453,-616.211,643.066,25.05,-19.20,-39.00,17.68
7385,4.00,6.20,-39.71,-450.195,-197.754,625.000,25.05,-19.20,-39.00,17.77
7395,13.11,-5.79,-26.12,873.047,-1465.820,43.945,23.25,-24.00,-39.30,17.77
7405,-21.76,-0.86,-59.16,-350.098,-449.707,302.246,23.25,-24.00,-39.30,17.44
7415,-0.43,0.95,-45.79,432.617,-345.215,915.039,23.25,-24.00,-39.30,17.82
7425,5.38,-7.46,-43.09,173.828,-1316.406,1999.939,25.35,-24.30,-40.65,17.44
7435,-4.36,-5.78,-54.23,-179.687,-908.203,968.750,25.35,-24.30,-40.65,17.44
7447,-6.37,3.01,-47.32,-175.781,-196.289,1024.902,24.75,-21.30,-40.80,17.49
7457,2.30,-7.52,-44.07,136.230,-828.125,1436.523,23.70,-25.05,-40.65,17.63
7467,2.46,-4.33,-34.78,-235.352,-998.535,261.230,24.60,-22.65,-40.65,17.68
7477,-12.72,8.45,-36.06,-399.902,110.840,1905.762,24.30,-24.00,-39.75,17.49
7487,5.79,0.02,-43.70,554.199,-786.133,-31.250,24.30,-24.00,-39.75,17.77
7497,-13.48,-1.66,-42.55,-638.184,136.719,1595.703,22.35,-22.50,-40.50,17.25
7507,1.59,-2.23,-30.50,-172.852,-730.957,1999.939,24.60,-23.10,-39.15,17.34
7524,-2.34,-3.17,-38.51,-15.137,-1054.199,1999.939,23.40,-25.05,-39.90,17.82
7533,-1.99,4.15,-48.50,435.547,-577.148,502.441,23.55,-20.85,-40.05,17.49
7543,-23.37,6.87,-38.01,-821.289,334.473,1343.262,23.55,-20.85,-40.05,17.49
7553,6.79,-4.00,-34.98,868.652,-903.809,-137.207,23.40,-23.85,-41.10,17.68
7563,-21.20,3.08,-46.76,-396.484,-114.746,1058.105,24.60,-23.10,-39.90,17.77
7575,-12.08,1.89,-30.71,-556.641,403.320,945.312,24.60,-23.10,-39.90,17.53
7585,14.60,-6.06,-43.30,1272.949,-996.094,1129.395,24.75,-24.60,-41.40,17.68
7595,-9.84,8.37,-40.31,-295.898,70.313,884.277,24.75,-24.45,-40.80,17.49
7605,10.25,-11.31,-55.69,777.344,-1677.246,375.488,24.15,-26.25,-40.35,17.68
7615,-17.52,3.18,-35.54,-522.461,-80.566,387.695,22.95,-25.80,-41.10,17.63
7625,12.04,-9.95,-32.56,1138.672,-1082.031,127.930,22.95,-25.80,-41.10,17.77
7635,-23.27,-2.10,-50.07,-862.793,186.523,1205.078,23.70,-26.55,-40.65,17.49
7647,-15.11,-6.12,-39.84,-594.727,-282.715,1672.852,24.15,-26.25,-41.40,17.63
7657,18.26,-6.20,-49.95,463.379,-915.039,-62.500,23.55,-27.15,-40.80,17.77
7667,-11.39,15.15,-43.47,85.449,348.145,827.148,22.20,-26.55,-41.10,17.77
7677,18.80,-6.43,-39.15,421.387,-845.215,-229.492,22.80,-24.90,-41.25,17.29
7687,-7.40,10.96,-44.61,-641.113,-71.289,839.355,23.25,-27.60,-40.50,17.77
7697,10.62,1.63,-44.63,1401.855,-1438.965,-142.090,23.25,-27.60,-40.50,17.77
7707,-16.60,12.55,-34.13,-408.203,26.367,764.648,22.20,-25.50,-40.35,17.49
7719,-18.52,9.67,-41.00,-288.574,92.285,312.500,22.80,-27.15,-40.05,17.68
7729,-2.71,-8.54,-27.89,433.594,-788.086,1132.324,23.40,-29.85,-41.10,17.49
7739,-9.98,11.03,-49.55,-102.539,101.563,1189.453,24.00,-25.20,-39.75,17.49
7749,5.62,-2.41,-57.94,0.000,-1055.176,1999.939,24.00,-25.20,-39.75,17.63
7759,-3.29,17.64,-27.21,-259.766,-227.539,1264.160,23.25,-27.60,-40.50,17.53
7769,12.15,-4.26,-40.78,469.238,-1270.508,1999.939,22.35,-26.85,-41.55,17.53
7779,-6.44,7.15,-35.36,-108.887,-219.238,661.133,22.35,-26.85,-41.55,17.63
7791,-7.67,3.29,-46.92,-436.035,25.391,766.602,21.45,-28.65,-41.40,17.53
7801,5.47,-6.78,-39.74,949.707,-1152.344,1396.973,22.65,-26.25,-41.10,17.63
7811,-9.71,2.31,-55.27,-479.492,49.316,1003.906,22.05,-30.00,-40.05,17.68
7821,12.35,-7.15,-22.98,634.766,-1100.098,399.414,20.85,-30.45,-41.25,17.63
7831,-15.15,4.44,-49.18,-149.414,207.520,320.312,20.85,-30.45,-41.25,17.68
7841,20.21,-14.00,-32.99,570.801,-687.500,351.074,22.95,-28.95,-41.10,17.44
7853,26.24,-6.88,-37.98,73.242,-928.711,-9.766,22.65,-29.85,-40.35,17.77
7863,-5.53,-6.53,-42.13,-398.926,-729.004,1999.939,21.30,-27.60,-42.00,17.44
7873,13.40,2.58,-29.59,356.445,-1115.723,-619.629,22.05,-29.25,-40.50,17.68
7883,-33.79,-2.01,-43.57,-150.391,412.109,-11.719,22.05,-29.25,-40.50,17.82
7893,12.13,1.47,-44.08,-3.906,-191.895,-447.266,22.05,-30.75,-40.80,17.63
7903,-18.53,-4.04,-39.11,444.824,-1017.090,1999.939,22.05,-29.55,-40.80,17.77
7913,8.47,-2.93,-29.73,-49.316,88.379,1388.184,22.05,-29.55,-40.80,17.63
7925,10.67,-2.85,-48.08,-645.508,-416.992,766.602,22.35,-29.25,-41.25,17.82
7935,-3.66,10.75,-41.59,476.074,-1736.328,1999.939,22.35,-29.25,-40.50,17.82
7945,-2.80,6.40,-19.74,-279.785,-221.680,1031.250,21.30,-30.45,-41.25,17.34
7955,-2.03,-0.56,-34.24,-132.812,-1420.898,1999.939,21.00,-29.85,-41.40,17.77
7965,2.04,0.56,-46.94,-471.191,103.027,1179.688,21.00,-29.85,-41.40,17.49
7975,7.19,-2.28,-19.37,343.262,-997.559,1999.939,21.60,-31.95,-41.25,17.68
7985,3.24,9.60,-58.99,-310.547,-96.680,1117.676,20.25,-30.15,-41.85,17.63
7997,-1.62,5.66,-42.20,-643.555,-59.570,1175.293,20.85,-31.20,-41.55,17.49
8007,17.84,-12.27,-39.02,819.824,-676.270,1999.939,19.95,-29.85,-41.85,17.63
8017,-3.16,-0.19,-45.79,-196.289,102.051,977.539,21.00,-31.05,-41.85,17.68
8027,14.78,-5.63,-30.82,798.828,-1297.363,1999.939,20.85,-30.75,-40.05,17.34
8041,-14.18,9.72,-16.84,-346.680,281.738,434.570,20.85,-30.75,-40.05,17.63
8051,23.94,-6.74,-32.23,243.652,-1515.137,-788.574,20.10,-30.75,-41.55,17.63
8063,21.79,-8.53,-34.07,113.281,-628.906,-424.805,20.70,-32.55,-41.85,17.53
8073,-17.19,-4.92,-46.06,-564.453,-351.562,400.391,19.35,-32.40,-41.25,17.63
8083,2.76,6.99,-41.82,-317.383,-640.137,-162.109,20.55,-31.20,-42.00,17.63
8093,-7.01,3.40,-58.37,-92.285,-512.207,1447.754,20.55,-31.20,-42.00,17.49
8103,8.74,4.20,-44.31,-206.055,-197.754,-238.281,20.25,-30.60,-41.85,17.49
8113,1.74,4.06,-45.63,-429.199,-998.535,1307.617,19.35,-31.20,-42.45,17.77
8123,12.68,-1.66,-32.74,186.523,-982.910,677.734,19.35,-31.20,-42.45,17.68
8134,5.02,-1.00,-30.14,53.223,-953.613,1062.988,20.25,-31.05,-43.35,17.68
8144,-2.08,2.66,-44.69,-53.711,-626.953,1734.375,19.35,-31.95,-43.50,17.77
8154,-9.17,-4.53,-43.31,-401.855,-13.184,563.965,19.50,-31.80,-42.15,17.53
8164,1.96,-0.15,-35.24,190.430,-650.391,764.160,19.50,-31.35,-42.90,17.49
8174,6.91,-1.83,-34.99,-198.242,-101.074,1295.410,19.50,-31.35,-42.90,17.77
8184,0.93,2.90,-43.50,91.309,-473.145,1270.996,19.65,-32.85,-42.45,17.87
8193,6.23,0.98,-28.31,-172.852,-588.379,1416.016,19.20,-32.25,-42.60,17.68
8204,0.91,4.30,-41.11,-8.301,-470.703,856.934,20.25,-33.45,-42.15,17.77
8214,1.24,-1.29,-42.82,6.836,-539.551,702.148,18.15,-32.85,-43.20,17.77
8224,-6.62,-4.06,-41.08,-421.875,-210.449,1446.289,18.15,-32.85,-43.20,17.49
8234,-8.18,-1.12,-34.54,-114.746,-37.598,868.652,19.35,-34.05,-42.45,17.63
8244,-0.24,-2.86,-28.96,-26.367,-601.074,1464.844,19.35,-33.15,-42.00,17.77
8254,1.34,-2.92,-39.87,-177.734,-501.953,835.937,19.35,-33.15,-42.00,17.68
8266,11.50,-9.34,-31.37,192.871,-300.781,926.270,18.60,-32.85,-42.75,17.82
8276,6.28,-5.59,-38.05,-286.621,-687.500,961.426,18.00,-34.65,-41.40,17.63
8286,-1.73,0.33,-43.63,-38.086,-833.008,1327.148,18.45,-32.55,-42.15,17.63
8296,-1.37,-0.69,-28.91,-376.465,-557.617,841.309,18.00,-32.55,-42.15,17.63
8306,-0.63,4.39,-31.15,-200.195,-267.578,1228.027,18.00,-32.55,-42.15,17.34
8316,3.66,3.86,-35.21,-43.945,-621.094,799.316,18.45,-32.55,-42.60,17.63
8326,3.98,1.73,-35.95,-81.543,-512.695,1101.074,17.85,-33.60,-42.75,17.77
8338,3.92,2.79,-43.49,-84.473,-313.965,553.711,18.45,-34.65,-42.15,17.44
8348,8.83,-6.76,-28.77,-61.523,-711.914,1495.605,18.60,-34.05,-41.55,17.63
8358,1.21,-3.32,-35.06,-84.961,-339.844,1208.496,15.90,-33.60,-39.75,17.77
8368,-0.11,-5.22,-24.33,-20.508,-587.891,1404.297,16.50,-33.75,-41.10,17.53
8378,-1.13,2.31,-36.11,-41.504,-648.437,510.254,16.50,-33.75,-41.10,17.63
8388,-3.66,-0.65,-32.06,-207.031,-406.738,1145.020,16.80,-33.00,-41.85,17.49
8398,6.80,-4.12,-35.52,-13.184,-466.309,914.551,17.25,-33.00,-41.85,17.63
8410,0.31,-2.72,-37.42,-162.598,-815.430,1019.531,15.45,-33.60,-41.55,17.53
8420,-9.05,-2.66,-36.15,-289.551,-241.211,854.004,16.80,-32.55,-42.60,17.77
8430,0.62,-1.17,-33.31,-205.078,-226.562,965.332,16.80,-32.55,-42.60,17.53
8440,0.05,1.86,-41.98,-99.609,-500.977,1151.367,15.75,-35.85,-41.10,17.68
8450,8.08,-3.52,-46.60,-20.508,-802.246,1314.941,15.75,-33.00,-41.10,17.77
8460,-1.13,-2.69,-36.83,-256.836,-688.477,734.375,15.75,-33.00,-41.10,17.44
8470,-0.27,0.95,-38.36,54.688,-573.242,674.805,16.05,-35.40,-41.10,17.29
8482,-2.98,1.56,-45.77,-165.527,-436.523,1259.277,15.45,-34.35,-40.80,17.49
8492,-4.11,1.05,-42.15,-246.094,-153.320,932.617,15.15,-35.25,-41.25,17.44
8502,1.18,-3.37,-35.02,128.906,-578.613,917.480,14.85,-37.35,-41.10,17.53
8512,-4.78,0.93,-35.45,-145.020,-478.027,1373.047,14.85,-37.35,-41.10,17.63
8522,-3.95,-1.45,-43.67,65.430,-328.613,1102.539,15.15,-34.80,-42.00,17.63
8532,-5.30,1.06,-44.29,-508.301,-67.871,1495.117,14.40,-34.35,-41.55,17.53
8544,-2.98,-1.63,-29.66,-134.277,-279.297,1427.246,14.40,-34.05,-41.25,17.49
8558,0.05,2.68,-31.58,-244.629,-579.102,696.289,15.45,-34.35,-39.75,17.77
8568,-6.82,5.37,-45.95,158.691,-650.391,1872.559,14.70,-34.80,-39.30,17.68
8578,1.50,3.37,-23.40,224.609,-249.023,47.363,14.85,-35.40,-40.35,17.49
8587,9.77,-1.11,-43.56,-202.148,128.418,1133.301,14.85,-35.40,-40.35,17.34
8597,15.89,-7.90,-29.51,64.941,-360.352,954.102,14.85,-35.40,-40.35,17.49
8607,-4.21,4.28,-32.60,-264.160,-510.742,356.445,15.45,-34.35,-41.55,17.63
8617,-6.74,2.05,-40.25,-168.945,-265.625,1376.465,13.35,-36.15,-39.90,17.77
8629,2.78,7.88,-35.40,-79.102,-149.902,1122.070,12.75,-36.45,-40.50,17.49
8639,4.82,1.96,-35.21,-3.906,-791.504,621.094,12.75,-36.45,-40.50,17.53
8649,4.32,2.14,-41.54,-360.352,-413.086,1033.203,14.55,-34.95,-41.10,17.63
8659,6.40,-4.51,-34.54,-102.539,-595.703,1686.035,13.20,-36.45,-40.80,17.63
8669,4.25,6.31,-35.74,-93.750,-282.715,609.863,13.05,-37.05,-40.65,17.63
8679,3.56,4.98,-28.18,-204.590,-205.566,1717.773,13.05,-35.85,-40.35,17.34
8689,3.63,5.83,-36.38,46.875,-152.344,988.770,13.05,-35.85,-40.35,17.49
8700,5.68,5.07,-33.58,-142.578,-709.473,1280.273,13.50,-36.45,-39.30,17.53
8710,2.15,-4.27,-41.47,10.254,-427.734,1523.926,13.50,-36.00,-39.30,17.63
8720,1.16,6.56,-31.47,17.578,-569.336,634.277,13.50,-36.00,-39.30,17.77
8729,-5.79,2.37,-40.67,138.672,-572.754,688.965,13.50,-36.45,-39.75,17.53
8739,1.51,-2.18,-34.91,-4.883,-216.797,1455.078,11.85,-36.60,-39.90,17.44
8749,-6.55,-8.27,-43.95,-201.660,-444.336,556.641,11.85,-35.85,-40.65,17.63
8759,9.81,-4.56,-23.15,112.793,-374.023,468.262,13.80,-34.65,-39.90,17.49
8770,4.08,3.17,-34.88,46.387,-608.887,694.336,13.80,-34.65,-39.90,17.77
8780,-0.60,-3.50,-43.63,-107.910,-520.996,697.266,11.70,-38.40,-40.05,17.77
8790,-2.92,-1.05,-16.83,-257.324,-448.242,951.172,12.45,-36.45,-40.80,17.68
8800,2.70,-2.35,-41.81,-59.082,-365.234,93.262,12.45,-36.00,-39.00,17.82
8810,-1.16,-5.44,-28.33,-194.824,-569.824,1437.988,11.10,-36.60,-39.90,17.49
8820,-0.85,-3.49,-21.69,-158.691,-204.102,1067.871,12.45,-36.00,-39.75,17.77
8830,-1.60,-2.11,-30.66,-93.750,-3.906,729.492,13.05,-37.05,-39.60,17.68
8842,4.59,2.60,-38.76,-110.840,-515.625,500.977,11.40,-36.15,-39.90,17.53
8852,9.55,2.04,-23.45,-208.008,-741.699,377.441,11.40,-36.15,-39.90,17.63
8862,3.35,1.44,-32.67,-177.734,-128.906,1177.734,11.70,-35.25,-40.05,17.63
8872,3.06,-2.98,-32.94,-122.070,-219.727,935.547,12.00,-36.75,-40.05,17.68
8882,-0.21,-0.24,-34.32,-104.980,-351.074,962.402,11.85,-38.25,-39.15,17.77
8892,7.78,1.98,-22.77,153.809,-474.609,944.336,12.30,-37.05,-39.90,17.53
8904,8.14,1.82,-33.82,-108.887,-311.035,1238.770,12.30,-37.05,-39.90,17.63
8914,6.13,-0.60,-27.63,117.188,-708.496,926.758,11.25,-36.75,-39.30,17.49
8924,-1.55,-2.37,-34.79,-136.719,-653.320,1118.164,11.10,-35.85,-40.35,17.53
8934,-2.73,-5.37,-32.99,-366.211,-279.785,958.984,11.10,-35.85,-40.35,17.44
8944,7.93,-5.01,-34.96,-60.059,-467.285,1102.051,12.60,-37.35,-39.60,17.63
8954,4.51,-0.77,-32.98,-217.285,-604.004,799.805,12.00,-36.00,-39.75,17.49
8964,-0.39,-5.55,-36.60,-172.363,-336.426,1135.742,12.45,-36.75,-39.00,17.63
8976,-0.22,4.54,-13.90,-152.344,-301.758,841.309,11.70,-36.75,-39.30,17.68
8986,7.59,-5.44,-47.66,-55.664,10.742,918.945,11.70,-36.75,-39.30,17.82
8996,12.56,1.85,-28.21,50.781,-332.031,-123.047,11.85,-37.35,-39.15,17.34
9006,3.48,3.23,-33.27,-65.918,-515.625,1065.430,12.60,-37.35,-39.15,17.49
9016,4.50,-1.43,-30.27,-317.383,-547.852,1166.504,11.70,-36.45,-39.00,17.63
9026,1.70,3.98,-37.24,125.000,-406.250,491.699,11.25,-36.75,-39.00,17.63
9035,1.69,6.08,-28.23,111.816,-35.645,798.828,11.25,-36.75,-39.00,17.63
9047,1.41,2.50,-36.95,-5.371,-570.801,667.480,11.25,-37.65,-37.80,17.63
9057,-4.44,4.01,-23.93,-147.461,-361.816,954.102,11.25,-37.65,-39.75,17.68
9072,4.65,-4.33,-37.28,-184.082,-594.238,1409.180,11.10,-37.05,-38.85,17.68
9081,-1.63,0.95,-31.85,-12.695,-249.023,1153.809,9.90,-37.80,-39.15,17.97
9091,4.31,7.24,-36.72,-75.195,-342.285,412.598,10.95,-37.65,-37.80,17.53
9101,8.14,1.45,-39.06,-103.027,-876.953,1445.801,10.05,-37.20,-39.30,17.63
9113,-0.28,5.15,-37.78,90.332,-699.219,812.988,10.05,-37.20,-39.30,17.49
9123,-0.80,1.34,-31.85,13.184,-285.645,837.891,10.95,-38.40,-39.75,17.63
9133,2.78,1.05,-28.79,-327.148,-403.809,1111.328,10.95,-36.00,-38.55,17.44
9143,2.40,1.60,-43.46,89.355,-535.156,945.801,12.00,-36.75,-37.80,17.63
9152,3.73,2.59,-35.34,-174.316,-789.551,916.992,8.40,-38.25,-37.65,17.53
9162,-6.95,5.98,-38.04,-42.480,-630.371,718.750,8.40,-38.25,-37.65,17.68
9172,-5.61,-4.45,-38.31,-224.609,-473.633,1410.645,9.75,-37.65,-37.80,17.49
9184,-4.84,1.69,-33.73,-120.605,-265.137,1275.879,9.90,-37.05,-39.60,17.87
9194,-0.03,-0.21,-37.17,-201.172,-134.766,883.301,9.90,-37.05,-39.60,17.77
9204,4.55,-0.72,-43.98,-6.348,-557.617,346.191,10.05,-38.40,-38.25,17.34
9214,-2.02,-5.85,-33.05,-186.035,-316.406,1834.961,10.65,-37.05,-38.85,17.63
9224,1.43,-1.64,-45.11,-71.289,-351.562,1066.895,9.75,-37.95,-38.25,17.77
9234,10.15,-7.47,-45.84,91.309,-351.562,810.059,9.60,-38.25,-38.10,17.68
9244,4.60,-0.76,4.82,-189.941,-339.355,1490.723,9.60,-38.25,-38.10,17.63
9256,8.60,1.30,-23.56,-39.063,-494.629,1296.875,9.00,-38.40,-37.80,17.77
9266,4.79,5.71,-37.82,-167.969,-733.887,1212.891,8.40,-37.80,-38.10,17.68
9276,-2.34,-0.89,-43.88,-137.207,-471.191,505.859,9.60,-37.35,-37.35,17.68
9286,-2.52,1.64,-36.75,-120.605,-318.359,729.004,8.40,-38.25,-38.40,17.34
9296,4.37,0.47,-40.27,-11.230,-395.996,1427.734,8.55,-37.95,-38.25,17.49
9306,6.05,1.90,-41.14,305.176,-917.480,656.250,10.35,-38.25,-37.35,17.49
9318,-0.41,-3.73,-47.02,-238.770,-326.172,1277.832,7.80,-38.40,-37.80,17.77
9328,-2.37,-4.89,-42.53,119.141,-376.465,344.727,7.80,-38.40,-37.80,17.77
9338,2.73,-5.23,-45.25,-188.965,-559.570,1188.477,8.25,-37.95,-37.05,17.68
9348,-2.21,-3.22,-45.98,-98.633,-433.594,1165.527,9.15,-37.35,-38.85,17.49
9358,-0.66,-5.37,-32.20,-21.484,-248.047,711.426,9.60,-39.30,-38.40,17.63
9368,1.89,-1.93,-42.27,-4.395,-706.055,772.949,7.20,-39.30,-37.35,17.25
9378,-6.39,-2.34,-40.12,-101.563,-184.082,1140.625,7.20,-39.30,-37.35,17.49
9390,-2.25,-0.45,-34.79,46.387,-874.512,1081.055,7.95,-38.55,-38.10,17.34
9400,-1.48,-1.56,-33.47,-406.738,-305.664,1714.844,7.95,-38.55,-38.10,17.77
9410,-6.70,-3.05,-52.27,-164.062,-820.312,716.309,7.65,-38.55,-37.35,17.53
9420,-0.15,6.44,-41.25,-115.723,-802.246,1545.410,8.40,-39.75,-38.40,17.53
9430,-5.20,-1.37,-41.04,-281.250,-438.965,1790.039,6.90,-39.00,-36.15,17.68
9440,-4.40,8.19,-42.18,-242.676,-350.586,859.375,6.30,-39.15,-37.05,17.44
9450,8.27,8.38,-45.82,228.516,-624.512,841.797,6.30,-39.15,-37.05,17.49
9462,11.09,5.39,-43.21,24.414,-429.199,59.082,6.90,-39.75,-37.65,17.53
9472,11.62,-1.54,-45.33,-6.348,-1025.879,546.387,6.90,-39.30,-37.35,17.44
9482,-2.93,3.13,-51.64,-210.937,-877.930,1208.008,7.20,-39.30,-35.70,17.49
9492,-5.78,-1.60,-47.79,39.551,-805.176,936.523,5.70,-40.20,-36.90,17.82
9502,-4.31,-0.16,-53.76,179.687,-294.922,545.898,6.60,-38.70,-36.30,17.68
9512,-0.65,-2.79,-43.73,-179.687,-765.137,1859.375,6.45,-39.00,-36.60,17.77
9522,-2.77,0.52,-54.38,166.504,-299.316,561.523,5.85,-39.15,-37.50,17.63
9534,-1.36,-7.88,-46.52,-214.844,-80.078,1286.621,5.85,-39.15,-37.50,17.68
9544,9.41,-3.26,-36.43,32.227,-825.684,1107.422,6.45,-40.50,-36.15,17.77
9554,9.08,12.04,-42.77,402.344,-827.637,362.793,5.10,-39.60,-37.50,17.29
9564,-0.51,-2.28,-43.15,-132.812,-677.734,1976.563,5.85,-39.90,-35.55,17.77
9574,3.01,0.52,-44.04,123.535,-542.480,682.617,4.20,-40.95,-36.90,17.68
9588,5.25,-4.50,-58.01,21.973,-999.512,909.180,4.20,-40.95,-36.90,17.29
9598,-1.96,1.44,-47.75,47.363,-443.848,1137.695,4.20,-41.70,-35.70,17.49
9610,-5.16,0.95,-44.95,-56.152,-841.797,774.902,4.80,-40.80,-36.30,17.63
9620,-2.30,2.24,-31.12,16.602,-411.621,1406.250,6.30,-41.10,-37.80,17.44
9630,-3.75,-8.39,-38.10,-229.492,-472.656,1620.117,4.95,-40.20,-36.90,17.53
9640,2.61,-0.34,-43.28,239.258,-870.117,1180.664,4.20,-41.40,-36.15,17.68
9650,-6.06,6.29,-61.54,-294.434,15.137,1118.652,3.60,-40.35,-37.05,17.97
9660,10.50,-0.37,-44.53,-248.047,-222.656,691.406,3.60,-40.35,-37.05,17.68
9670,14.07,2.60,-43.50,70.801,-798.828,680.176,4.20,-42.60,-37.35,17.63
9682,-1.36,-2.96,-38.58,-95.703,-443.848,983.398,4.20,-40.20,-36.90,17.49
9692,-1.73,-0.34,-45.37,100.586,-853.516,685.059,3.90,-41.55,-35.55,17.63
9702,-3.32,3.59,-62.13,-124.512,-208.984,1110.840,3.00,-40.95,-36.60,17.53
9712,-10.17,-5.85,-38.45,50.781,-648.437,1239.258,3.00,-40.95,-36.60,17.77
9722,-11.69,-0.94,-32.53,-41.992,-255.859,468.750,2.40,-41.10,-35.25,17.68
9732,-5.20,-7.21,-61.77,-239.746,-279.297,1644.531,1.65,-42.00,-36.30,17.77
9742,-2.06,-7.89,-43.31,-165.527,-258.301,1494.629,1.65,-42.00,-36.30,17.53
9754,11.05,2.67,-48.24,-495.117,-157.715,948.242,2.55,-41.70,-33.90,17.34
9764,10.48,-6.30,-43.69,72.754,-698.730,1420.898,2.40,-41.10,-35.55,17.68
9774,-0.11,-4.14,-46.96,-70.801,-1099.121,841.309,3.45,-40.95,-34.65,17.68
9784,-25.11,-17.61,-37.10,68.359,-1152.344,1367.188,2.55,-42.15,-37.35,17.44
9794,-12.54,-4.93,-50.15,-121.094,-488.281,812.012,2.55,-42.15,-37.35,17.63
9804,-7.31,0.68,-40.83,107.910,-556.641,1466.797,1.80,-41.40,-35.70,17.82
9814,-5.40,4.76,-44.95,23.926,-406.250,743.164,0.00,-41.70,-35.70,17.49
9825,-0.54,-3.89,-54.82,-197.266,-750.488,667.480,-0.75,-41.70,-34.95,17.53
9835,3.70,6.63,-56.77,122.070,-739.258,846.191,0.00,-40.95,-35.70,17.53
9844,8.95,0.47,-55.49,-20.996,-235.352,1470.215,0.00,-40.95,-35.70,17.49
9854,2.47,3.57,-40.95,-451.172,-101.074,1807.617,0.45,-42.30,-34.80,17.53
9864,16.85,-1.53,-48.37,216.797,-684.570,1013.184,0.30,-41.40,-36.15,17.63
9874,9.70,6.43,-45.64,230.469,-883.301,1234.375,0.30,-41.40,-36.15,17.63
9885,-5.08,-2.00,-55.54,-335.449,-635.742,716.797,0.30,-42.90,-35.70,17.49
9895,-2.15,-1.63,-59.16,296.387,-605.957,546.387,0.15,-40.35,-36.30,17.68
9905,-2.05,-3.65,-45.85,-454.102,-560.059,1458.008,-0.45,-42.75,-36.00,17.34
9915,0.18,-7.01,-46.70,-147.461,-267.578,1342.285,-1.65,-42.30,-36.30,17.49
9925,4.16,-6.10,-49.01,113.281,-117.676,880.371,-1.65,-42.30,-36.30,17.63
9935,6.20,-2.37,-48.11,-89.355,-653.809,1228.516,-2.25,-42.60,-34.65,17.49
9945,12.44,0.78,-46.06,-457.031,-839.355,1177.734,-2.40,-41.55,-35.55,17.77
9957,-0.09,10.34,-42.08,-324.707,-233.887,906.738,-2.40,-41.55,-35.55,17.82
9967,-0.50,-2.06,-42.25,-84.961,-1046.387,1087.402,-2.10,-42.75,-35.25,17.63
9977,-5.54,-3.56,-50.71,-28.320,-627.930,1204.102,-0.75,-39.75,-34.95,17.68
9987,-12.27,1.30,-46.25,-53.223,-751.465,1244.141,-2.85,-41.55,-34.05,17.44
9997,-13.79,1.34,-48.18,10.742,-169.434,571.289,-2.85,-42.30,-35.55,17.44
10007,-8.67,0.65,-50.40,-66.895,-387.695,82.520,-2.85,-42.30,-35.55,17.53
10017,3.04,3.42,-27.14,-44.434,-34.668,959.473,-2.40,-43.50,-35.55,17.77
10029,17.54,6.31,-44.86,-127.441,-338.379,492.676,-3.60,-42.00,-35.25,17.49
10039,13.83,9.52,-46.21,354.004,-990.723,1201.660,-4.50,-41.70,-34.65,17.53
10049,1.95,4.98,-48.40,24.414,-1408.203,1132.324,-4.35,-42.00,-35.55,17.44
10059,-7.34,5.62,-54.12,-288.574,-788.574,1852.051,-4.35,-42.00,-35.55,17.82
10069,-1.67,5.49,-48.62,-48.340,-465.332,229.004,-3.45,-41.70,-34.20,17.34
10079,-7.72,0.99,-54.54,-164.551,-159.668,1416.504,-4.20,-40.50,-35.70,17.49
10089,-3.53,-7.50,-39.00,74.707,-241.699,1359.863,-4.20,-40.50,-35.70,17.68
10106,0.07,-0.62,-67.42,-333.984,-543.945,1330.078,-4.80,-40.35,-36.30,17.49
10115,-0.20,3.51,-34.57,14.648,-367.676,585.449,-4.20,-41.40,-33.15,17.63
10125,1.21,-1.23,-35.57,256.836,-667.480,726.074,-6.60,-41.55,-35.25,17.68
10135,-12.72,5.97,-52.55,-39.551,-225.098,329.102,-6.60,-41.55,-35.25,17.77
10145,-1.49,6.39,-39.84,-314.941,-30.273,639.160,-5.70,-42.90,-35.40,17.34
10155,6.40,-4.35,-25.62,104.004,-739.258,539.551,-5.70,-40.50,-36.60,17.77
10167,-0.21,-6.48,-35.93,-37.598,-539.062,652.832,-6.30,-40.80,-34.80,17.44
10177,-7.86,0.73,-55.35,103.027,-389.648,701.660,-6.30,-41.10,-34.50,17.49
10187,-6.15,4.90,-48.54,51.270,-214.844,1041.504,-5.85,-38.70,-36.00,17.53
10197,0.21,-2.09,-43.63,-328.613,-689.453,1368.164,-6.45,-41.70,-35.40,17.49
10207,7.66,0.48,-50.77,-224.121,-570.312,722.168,-7.05,-39.15,-34.80,17.53
10217,5.33,10.98,-47.07,-309.082,-616.211,986.816,-7.05,-39.15,-34.80,17.44
10229,13.48,8.02,-37.91,366.211,-805.664,207.031,-5.85,-39.90,-35.55,17.77
10239,-1.61,5.25,-69.35,-92.285,-396.484,1300.293,-7.80,-39.60,-35.25,17.63
10249,0.85,-11.31,-44.63,-242.676,-861.328,1999.939,-6.30,-40.35,-35.25,17.34
10259,1.26,-0.62,-21.95,-68.359,-877.441,584.961,-7.95,-40.50,-35.40,17.77
10269,0.90,7.58,-49.54,120.117,-1147.949,735.840,-7.95,-40.50,-35.40,17.53
10279,-16.04,10.18,-51.11,-460.937,106.934,910.645,-7.95,-40.50,-35.70,17.63
10289,13.88,-7.69,-15.91,135.742,-413.086,1442.871,-5.55,-39.60,-34.80,17.63
10301,2.43,7.09,-34.61,118.652,-654.785,1371.582,-5.55,-39.60,-34.80,17.63
10311,0.80,1.98,-57.50,-57.617,-791.016,242.676,-7.80,-39.60,-33.75,17.82
10321,-2.42,2.79,-47.98,-171.387,-906.738,958.496,-7.80,-39.60,-33.75,17.53
10331,-4.56,4.68,-60.14,-373.535,-838.379,1207.031,-8.55,-40.80,-35.25,17.34
10341,0.01,1.32,-38.56,-218.750,-425.781,1805.664,-8.70,-39.75,-34.95,17.53
10351,4.47,-0.55,-51.92,150.391,-722.656,786.621,-8.70,-39.75,-34.95,17.77
10361,1.56,-0.18,-52.52,63.965,-714.355,1323.730,-9.60,-39.60,-34.05,17.63
10375,-10.99,8.99,-60.18,-295.410,-545.410,1545.898,-9.30,-39.15,-34.50,17.49
10384,-1.92,6.32,-61.72,-222.168,-248.535,1459.473,-9.60,-39.75,-34.95,17.44
10394,4.15,5.81,-55.23,530.273,-756.348,238.281,-9.60,-39.75,-34.95,17.82
10404,-0.52,1.44,-61.98,9.277,-63.965,717.285,-10.95,-39.90,-33.75,17.68
10414,6.24,-4.07,-42.59,148.926,-711.914,319.336,-10.50,-37.65,-35.55,17.63
10424,4.55,-15.78,-53.87,-48.828,-731.445,852.051,-10.50,-37.65,-35.55,17.44
10436,-0.98,-2.43,-43.94,-25.391,-574.219,1304.688,-10.05,-39.90,-35.25,17.34
10446,-8.94,-6.40,-54.24,110.840,-457.520,540.039,-9.90,-37.80,-34.95,17.49
10456,-5.63,-8.82,-51.09,-144.531,-613.281,648.437,-10.50,-39.90,-34.05,17.77
10466,3.17,-10.88,-82.80,-39.063,-469.727,716.309,-9.75,-37.95,-33.75,17.82
10476,6.93,-5.94,-84.45,-192.871,-959.961,396.484,-9.75,-37.95,-33.75,17.77
10486,14.02,7.83,-36.90,-258.301,-437.500,735.840,-11.70,-39.15,-34.05,17.68
10496,0.11,-1.28,-56.05,-464.355,-258.301,1612.793,-12.45,-37.20,-33.75,17.34
10508,1.08,7.58,-55.47,-19.043,-541.992,1002.441,-11.25,-37.20,-34.05,17.68
10518,4.33,-0.50,-55.55,-146.484,-1005.859,583.496,-10.95,-37.20,-35.25,17.25
10528,-13.32,6.37,-49.01,-383.301,-368.652,1252.930,-12.45,-36.45,-34.05,17.34
10538,-18.17,6.63,-56.17,-344.238,-361.328,1403.320,-12.45,-37.65,-34.05,17.77
10548,-1.25,4.95,-51.93,-63.477,-676.270,1502.441,-12.45,-36.75,-33.30,17.77
10558,4.07,2.53,-48.89,44.922,-970.215,890.625,-12.45,-36.75,-33.30,17.77
10570,-4.03,1.90,-50.80,-395.020,-564.941,1397.949,-13.05,-37.35,-33.90,17.53
10580,6.82,3.15,-45.11,-215.332,-289.062,800.781,-12.75,-36.45,-34.05,17.68
10590,13.34,-3.84,-51.72,-66.895,-530.273,1599.609,-13.35,-37.05,-33.15,17.53
10600,8.05,-5.98,-58.70,-51.270,-759.277,1455.566,-12.75,-36.00,-34.50,17.63
10610,4.67,-7.59,-50.20,-25.391,-1113.770,585.449,-12.75,-36.00,-34.50,17.34
10632,-15.28,-2.02,-47.03,-189.453,-107.910,1281.250,-14.10,-35.40,-34.20,17.77
10641,-2.21,-0.95,-49.13,-187.012,-421.387,1001.465,-14.10,-35.40,-34.20,17.53
10653,9.35,1.23,-47.00,-12.207,-856.934,773.926,-13.35,-34.95,-36.15,17.49
10663,-2.29,5.75,-49.23,66.895,-836.426,1112.793,-13.80,-34.95,-33.45,17.68
10673,-10.80,1.86,-55.18,-16.602,-700.684,1128.418,-14.70,-34.35,-34.50,17.63
10683,-2.69,2.60,-54.85,-516.113,41.016,746.582,-14.70,-34.35,-34.50,17.87
10693,11.19,7.06,-44.63,-94.727,-625.000,509.766,-13.05,-34.95,-34.65,17.34
10703,2.95,5.75,-58.73,83.984,-465.332,542.480,-13.35,-34.65,-34.20,17.68
10713,1.38,-0.18,-55.77,-168.945,-689.941,1140.137,-13.80,-32.55,-33.45,17.68
10725,-3.24,1.87,-52.92,-24.414,-851.074,830.566,-14.85,-33.75,-34.20,17.77
10735,-2.94,-2.20,-47.21,-76.172,-156.250,1523.438,-14.85,-33.75,-34.20,17.77
10745,4.32,-0.27,-54.34,-45.898,-176.758,694.336,-13.80,-34.65,-34.65,17.44
10755,1.18,2.39,-41.95,-347.168,-699.219,698.242,-13.20,-31.95,-36.30,17.63
10765,8.84,-4.37,-29.66,-114.258,-1014.648,178.711,-13.20,-31.95,-36.30,17.53
10775,-3.73,5.93,-60.38,-192.871,-207.031,1537.109,-13.05,-33.45,-34.20,17.34
10787,9.43,7.60,-56.45,-114.258,-507.812,940.918,-13.50,-31.65,-33.75,17.68
10797,2.54,4.89,-47.40,-313.965,-937.988,1606.445,-15.45,-33.60,-33.30,17.49
10807,6.33,2.20,-44.45,-132.812,-1068.359,736.816,-13.05,-31.05,-33.15,17.49
10817,0.90,13.14,-52.35,253.418,-965.820,1113.770,-13.05,-31.05,-33.15,17.53
10827,8.61,5.67,-45.06,-221.191,-1004.883,1486.328,-13.80,-33.00,-33.45,17.63
10837,-34.09,94.78,-174.19,-539.062,1171.875,-219.238,-13.50,-32.40,-33.75,17.44
10847,-27.50,6.49,-67.71,-108.398,416.992,58.105,-14.10,-30.60,-33.15,17.68
10859,-44.21,99.10,-191.83,46.387,515.137,-455.078,-15.90,-30.00,-32.25,17.53
10869,-11.79,-42.51,-192.55,221.191,-697.266,-1374.512,-15.90,-30.00,-32.25,17.63
10879,6.38,-3.37,-74.07,-342.285,108.398,1999.939,-13.50,-31.95,-33.00,17.34
10889,5.18,7.82,-46.82,56.641,-292.480,502.930,-13.95,-29.55,-32.55,17.68
10899,7.08,-5.36,-35.50,164.062,-828.613,335.937,-13.95,-29.55,-32.55,17.53
10909,13.85,6.84,-50.61,-293.457,-409.668,352.539,-14.10,-30.60,-32.40,17.77
10921,13.41,11.06,-48.60,20.508,-1526.367,302.246,-13.80,-28.95,-31.95,17.82
10931,3.23,-5.24,-33.97,-716.309,-956.055,1999.939,-13.20,-30.45,-32.25,17.87
10941,9.65,-2.81,-42.64,-257.324,-902.344,1218.750,-14.10,-30.15,-31.95,17.63
10951,19.25,-5.01,-55.85,229.492,-880.859,1018.555,-14.10,-30.15,-31.95,17.77
10961,21.53,-4.60,-39.37,136.719,-677.734,174.805,-14.40,-28.80,-31.05,17.49
10971,27.20,-13.37,-52.18,-268.066,-401.855,1729.492,-14.85,-29.85,-31.20,17.68
10981,21.98,-19.98,-50.66,-224.609,-1512.695,1999.939,-14.85,-29.85,-31.20,17.49
10993,23.33,-25.15,-49.27,-38.086,-1160.645,1238.281,-15.45,-29.25,-29.85,17.68
11003,9.34,-19.96,-45.71,-300.781,-1120.605,1277.344,-16.50,-27.75,-28.65,17.63
11013,-0.77,-23.97,-53.11,156.250,-1059.570,1999.939,-16.05,-28.20,-29.70,17.49
11023,-13.00,-22.52,-49.37,-35.645,-892.578,986.328,-16.05,-28.20,-29.70,17.82
11033,-31.19,-31.02,-47.00,309.082,-602.051,362.305,-17.25,-27.00,-29.70,17.77
11043,-18.42,-34.95,-50.84,103.516,-83.496,228.516,-17.25,-28.95,-27.45,17.29
11055,-21.72,-22.71,-67.32,-187.012,42.480,770.020,-19.35,-27.60,-29.10,17.77
11065,12.12,-16.98,-75.83,-255.371,8.301,896.973,-18.90,-28.35,-29.85,17.44
11075,14.35,-16.69,-41.60,-271.484,-878.418,764.648,-18.90,-28.35,-29.85,17.49
11085,-3.89,-18.35,-40.83,-62.012,-1091.797,729.004,-19.95,-25.80,-29.70,17.49
11095,-20.64,-21.15,-45.94,-22.461,-657.227,1162.598,-18.45,-30.15,-29.40,17.53
11105,-11.34,-17.33,-48.86,-38.574,20.020,240.234,-18.45,-30.15,-29.40,17.49
11115,-12.88,-13.98,-50.01,18.555,312.988,135.742,-19.20,-28.65,-28.65,17.53
11127,22.39,0.76,-48.76,-253.418,-179.687,819.336,-20.55,-28.80,-29.85,17.77
11137,21.40,-14.79,-49.24,-381.836,125.000,1847.656,-19.50,-27.45,-29.70,17.49
11153,28.29,2.61,-43.18,-226.562,-445.801,1025.391,-19.35,-27.15,-29.10,17.82
11162,11.90,-2.07,-41.39,-577.637,-943.359,1405.762,-19.35,-27.15,-29.10,17.68
11172,11.98,5.14,-42.46,-180.664,-631.348,896.973,-20.25,-25.50,-29.70,17.77
11182,12.69,4.66,-38.32,251.465,-425.781,1305.664,-21.90,-27.00,-30.15,17.77
11194,-5.43,3.18,-42.37,-40.039,-262.695,1463.867,-20.85,-26.85,-30.75,17.68
11204,10.74,18.15,-52.97,-317.871,-490.723,43.457,-20.70,-25.50,-31.20,17.49
11214,10.17,7.02,-31.74,-174.805,-348.633,866.699,-20.70,-23.85,-31.20,17.63
11224,17.19,0.92,-39.85,125.488,-585.937,1938.965,-21.30,-26.40,-32.25,17.34
11234,9.48,1.16,-38.63,-161.133,-747.070,1660.156,-21.30,-26.40,-32.25,17.53
11244,0.69,2.99,-42.78,-44.434,-1231.445,789.062,-20.85,-25.20,-31.05,17.63
11256,-14.80,2.02,-41.35,-227.539,-315.918,1133.301,-21.00,-26.25,-30.15,17.77
11266,-6.79,-2.12,-48.95,47.852,-123.535,1857.422,-20.85,-24.90,-30.30,17.77
11276,9.51,4.43,-45.74,331.055,-334.473,525.391,-21.45,-27.00,-30.45,17.53
11286,6.69,1.85,-30.74,-150.879,-138.184,1234.375,-21.45,-27.00,-30.45,17.68
11296,7.04,-2.27,-43.89,76.660,-347.656,1104.004,-20.25,-26.55,-29.40,17.63
11306,-7.68,0.05,-42.18,-330.566,-640.137,995.117,-21.45,-26.25,-30.15,17.34
11316,-8.12,-3.87,-46.70,134.766,-625.000,637.207,-21.45,-26.25,-30.15,17.44
11328,-13.41,-4.56,-45.02,-21.484,-22.949,1625.000,-22.35,-25.95,-29.55,17.49
11338,-9.22,-5.08,-32.64,155.762,-210.449,218.262,-22.65,-25.50,-30.90,17.34
11348,-10.75,-3.56,-41.31,-53.223,-408.691,822.266,-21.90,-26.25,-28.95,17.53
11358,-15.53,-4.18,-49.18,198.242,-129.395,1125.000,-22.80,-26.40,-31.80,17.49
11368,-9.22,-6.99,-30.54,-100.586,-80.078,1389.160,-22.80,-26.40,-31.80,17.63
11378,1.50,-7.03,-41.98,-109.375,-433.594,628.906,-22.35,-26.40,-29.55,17.68
11390,-1.36,-9.89,-36.63,-243.652,-85.938,1277.832,-22.65,-23.85,-30.90,17.53
11400,-2.56,-9.20,-41.96,128.418,-612.793,6.348,-22.20,-26.25,-29.70,17.77
11410,3.79,-0.06,-35.14,-148.437,-179.199,231.934,-22.20,-24.60,-30.15,17.49
11420,10.25,5.46,-37.21,-490.234,15.625,-547.852,-22.20,-24.60,-30.15,17.25
11430,16.37,1.97,-30.13,103.027,-646.973,912.598,-21.90,-26.55,-30.45,17.77
11440,21.59,-3.95,-43.29,29.297,-594.238,669.922,-24.60,-23.40,-31.20,17.53
11450,7.69,5.83,-40.93,347.656,-518.555,697.266,-24.60,-23.40,-31.20,17.77
11461,0.99,9.82,-28.82,116.699,-502.441,626.465,-22.35,-23.25,-30.30,17.53
11471,7.36,-0.35,-38.66,281.738,-497.559,994.141,-22.65,-23.10,-30.15,17.63
11481,12.41,0.50,-33.21,177.734,-721.680,679.687,-22.05,-24.45,-29.85,17.44
11491,-2.99,-9.69,-49.69,-299.316,-514.648,1999.939,-22.35,-22.80,-30.30,17.49
11501,10.24,-10.82,-36.90,3.418,-497.559,1101.563,-22.35,-22.80,-30.30,17.63
11511,13.26,-0.53,-38.38,211.914,-274.414,837.891,-22.95,-23.85,-31.20,17.53
11521,8.44,-7.66,-37.33,118.652,-435.547,1501.465,-23.25,-21.60,-30.75,17.63
11532,6.74,-16.07,-29.64,191.406,-600.586,697.754,-23.25,-24.90,-29.85,17.63
11542,7.35,-4.78,-36.00,-70.801,-497.559,866.211,-24.00,-23.70,-30.30,17.68
11552,-5.45,-12.02,-39.29,-238.281,-231.934,1652.832,-24.00,-23.70,-30.30,17.34
11562,-4.43,-5.61,-40.85,-191.895,-212.402,1145.508,-23.55,-23.70,-30.75,17.63
11572,-0.98,-4.22,-34.85,290.039,-342.285,1158.203,-23.25,-21.30,-31.80,17.77
11582,-15.11,1.75,-47.10,-198.242,-113.770,1137.207,-23.25,-21.30,-31.80,17.49
11594,-16.13,5.04,-31.31,-176.758,-298.828,242.676,-21.90,-20.70,-30.90,17.63
11604,-12.68,3.99,-32.80,-290.039,-190.918,1478.027,-21.90,-20.70,-30.90,17.53
11614,-4.31,6.81,-43.31,4.883,-58.105,1043.945,-24.30,-20.85,-31.80,17.49
11624,4.07,4.15,-33.19,476.074,-252.441,835.937,-24.30,-20.85,-31.80,17.63
11634,3.26,-4.20,-35.66,111.816,-181.641,1221.680,-24.30,-20.85,-31.80,17.10
11644,17.86,-3.08,-43.50,647.949,-491.699,398.926,-22.05,-20.10,-31.50,17.68
11654,-0.03,-0.50,-31.40,-281.738,-82.520,858.887,-22.05,-20.10,-31.50,17.63
11671,7.02,-1.50,-38.21,-220.215,-339.355,621.582,-23.40,-22.20,-30.90,17.77
11680,-2.79,-0.01,-27.44,-376.953,-360.840,1525.879,-22.80,-19.65,-31.05,17.63
11690,11.73,-9.60,-40.87,652.344,-367.676,827.148,-24.60,-19.80,-30.90,17.53
11700,0.50,0.67,-35.79,22.461,-172.363,1093.750,-24.90,-20.25,-31.65,17.44
11710,2.08,-9.49,-33.76,-311.035,-707.031,1999.939,-24.90,-20.25,-31.65,17.49
11720,14.51,1.66,-50.19,209.473,-720.215,193.359,-22.80,-20.40,-31.05,17.63
11730,-3.04,15.19,-39.85,130.371,-305.176,977.539,-24.30,-18.90,-31.50,17.53
11742,-10.87,7.27,-28.71,186.035,-502.441,834.473,-23.40,-21.00,-30.45,17.77
11752,-14.81,9.50,-40.48,389.648,-633.789,959.961,-23.25,-20.10,-31.80,17.82
11762,-13.17,9.93,-28.27,68.848,-175.781,1117.676,-23.25,-20.10,-31.80,17.53
11772,-7.66,-2.96,-39.38,228.516,-339.355,533.691,-22.20,-22.20,-31.20,17.68
11782,-6.02,2.25,-48.96,-102.051,-310.547,1152.344,-24.30,-19.65,-31.50,17.49
11792,-5.04,-4.11,-28.59,-132.812,93.262,1501.953,-24.30,-19.65,-31.50,17.77
11802,7.18,-5.11,-49.05,447.754,-744.141,822.266,-22.80,-22.50,-31.80,17.77
11814,-12.89,-0.01,-46.20,106.445,-622.559,946.777,-24.60,-19.05,-32.40,17.34
11824,-12.61,3.71,-35.88,-10.742,-367.676,855.957,-24.15,-21.00,-30.15,17.63
11834,-12.44,-5.93,-33.82,-388.672,-191.406,1835.938,-22.80,-20.85,-31.05,17.63
11844,-3.73,-6.33,-33.68,387.207,-840.820,478.027,-22.80,-20.85,-31.05,17.68
11854,-0.27,5.48,-36.60,-6.348,-233.887,696.289,-22.65,-21.90,-30.15,17.53
11864,-3.20,-4.76,-31.85,-349.609,-356.934,1999.939,-24.15,-20.25,-29.70,17.34
11876,-3.94,1.93,-33.47,-468.262,-334.961,1970.215,-25.50,-20.10,-31.50,17.77
11886,1.62,0.01,-42.07,26.855,-800.781,598.633,-24.15,-18.60,-32.70,17.49
11896,-1.82,4.87,-39.40,119.141,-224.121,253.418,-22.35,-18.90,-30.30,17.63
11906,1.24,0.48,-32.76,-241.211,-279.785,1950.195,-23.25,-20.10,-30.30,17.49
11916,12.86,-2.89,-39.76,539.062,-847.656,354.980,-23.25,-20.10,-30.30,17.49
11926,3.86,5.16,-35.60,-385.254,-207.031,781.250,-22.05,-20.10,-30.75,17.53
11936,11.11,-4.51,-38.60,177.734,-421.387,1757.813,-23.70,-18.60,-30.90,17.34
11948,3.53,-8.15,-38.79,-159.668,-827.148,1999.939,-23.40,-16.20,-30.15,17.49
11958,6.82,-13.51,-31.23,362.305,-554.199,591.309,-22.80,-18.90,-28.35,17.63
11968,3.10,-0.29,-38.76,-165.039,-198.242,875.000,-22.80,-18.90,-28.35,17.44
11978,3.92,-11.16,-41.40,75.195,-107.910,1368.164,-23.55,-16.50,-28.05,17.63
11988,12.91,-0.75,-30.48,268.555,-544.922,234.375,-23.70,-17.85,-28.95,17.82
11998,-6.61,3.21,-36.94,-175.781,-832.520,1999.939,-23.70,-17.85,-28.95,17.77
12010,-21.53,-0.34,-32.47,-513.672,476.562,1445.313,-24.30,-16.80,-28.80,17.63
12020,-2.76,-5.74,-33.12,237.793,-1002.441,934.570,-24.00,-19.65,-30.75,17.53
12030,-8.60,-6.23,-47.75,161.133,-447.754,1029.785,-25.35,-16.65,-31.20,17.63
12040,-17.04,9.09,-41.56,-398.926,126.465,1896.484,-22.35,-17.70,-28.35,17.53
12050,5.57,-1.86,-40.92,483.398,-723.145,10.742,-22.35,-17.70,-28.35,17.49
12060,-22.99,1.23,-38.15,-613.770,882.324,805.176,-24.90,-15.45,-29.70,17.53
12070,6.60,3.15,-27.91,804.199,-448.730,1669.434,-24.00,-17.70,-29.55,17.49
12081,-5.56,-0.55,-48.15,-607.910,-47.852,1489.746,-24.90,-16.20,-30.45,17.68
12091,7.23,-2.40,-36.44,270.508,-1079.590,165.039,-22.95,-15.90,-31.20,17.63
12101,-0.77,5.91,-39.77,-423.340,77.637,1057.129,-22.95,-15.90,-31.20,17.53
12111,16.37,-6.53,-44.17,791.992,-1016.113,896.973,-23.25,-16.80,-32.55,17.63
12121,0.02,2.48,-26.82,-366.699,-82.520,857.910,-23.25,-15.30,-30.30,17.25
12131,11.99,-12.24,-30.02,265.137,-918.945,1263.184,-23.25,-15.30,-30.30,17.63
12143,9.47,-12.84,-27.37,327.637,-1089.844,1260.254,-23.70,-15.90,-31.20,17.53
12153,1.86,3.94,-37.43,239.746,-39.063,165.527,-22.65,-12.75,-28.95,17.63
12163,6.99,-9.60,-36.73,61.035,-1634.277,1999.939,-22.65,-15.90,-28.20,17.68
12173,1.68,-1.41,-36.44,-84.473,-375.488,513.672,-24.00,-14.40,-29.55,17.44
12188,-6.22,-5.82,-31.59,-193.848,-1455.078,1999.939,-24.00,-15.30,-27.60,17.34
12197,9.66,1.60,-33.99,196.289,-344.238,357.910,-24.60,-14.25,-29.40,17.49
12209,5.46,-1.32,-41.04,230.957,263.672,1224.609,-24.60,-14.25,-29.40,17.34
12219,-27.53,-5.14,-38.18,-733.887,-232.422,1978.516,-24.00,-15.60,-29.10,17.63
12229,11.18,-2.43,-35.44,-376.953,-243.164,1041.504,-24.30,-14.40,-30.30,17.77
12239,-9.64,-5.47,-34.47,-425.781,-587.402,1999.939,-24.60,-13.05,-30.45,17.53
12249,5.53,-3.76,-35.18,-150.879,-76.172,607.910,-24.30,-14.85,-30.30,17.53
12259,-6.68,4.19,-36.02,-395.508,-777.832,1999.939,-24.30,-14.85,-30.30,17.49
12269,5.38,0.79,-35.24,409.668,-408.203,387.695,-24.00,-12.90,-31.05,17.44
12281,17.96,2.26,-36.53,478.027,-553.223,294.922,-22.20,-14.25,-31.65,17.77
12291,-12.34,-1.69,-42.76,-765.625,111.328,1999.939,-24.30,-11.70,-32.55,17.29
12301,15.65,-3.67,-44.73,52.734,-473.145,587.891,-22.80,-11.70,-31.05,17.63
12311,-9.75,-3.67,-40.22,-226.562,-255.371,1999.939,-22.80,-11.70,-31.05,17.49
12321,21.73,-3.55,-41.45,327.148,-942.383,206.543,-22.20,-12.75,-32.40,17.77
12331,-10.73,-8.44,-38.20,-383.301,-338.379,1999.939,-22.05,-11.25,-31.80,17.34
12343,-17.76,-5.88,-30.72,-210.937,85.938,1521.484,-22.05,-11.25,-31.80,17.63
12353,25.89,2.92,-52.73,179.687,-451.660,-373.535,-23.40,-13.80,-32.40,17.63
12363,-22.19,0.13,-39.52,-260.742,-27.832,709.473,-21.90,-12.30,-30.90,17.49
12373,0.09,-0.07,-33.16,-174.316,46.875,679.199,-22.05,-13.20,-30.75,17.29
12383,-16.87,-2.60,-44.37,337.891,-941.895,1996.582,-21.90,-12.30,-31.65,17.68
12393,-14.09,-8.85,-39.40,-349.609,263.184,1321.777,-21.90,-12.30,-31.65,17.77
12403,-7.15,-1.79,-33.77,753.906,-1794.434,1999.939,-20.55,-13.20,-28.80,17.63
12415,14.89,-5.55,-33.82,605.957,-912.598,1999.939,-22.80,-13.65,-30.75,17.77
12425,-18.36,8.82,-45.24,-599.121,33.203,627.441,-21.90,-11.10,-31.65,17.53
12435,19.75,-0.85,-42.34,915.039,-1316.406,-78.125,-21.00,-13.05,-31.95,17.53
12445,-9.61,3.78,-38.92,-272.461,-462.402,753.906,-21.45,-13.50,-30.90,17.63
12455,12.70,-3.33,-47.02,473.145,-1366.211,-64.941,-19.95,-10.35,-30.45,17.34
12465,-22.88,3.37,-40.40,-145.508,135.254,583.496,-21.30,-10.50,-29.85,17.77
12477,-19.29,2.73,-50.78,-242.187,-188.477,1743.652,-21.30,-8.85,-31.05,17.49
12487,5.45,7.30,-40.24,-82.031,-544.434,547.852,-21.00,-11.55,-30.15,17.49
12497,-2.30,5.90,-24.25,-121.582,-1099.609,1473.633,-21.45,-11.85,-30.45,17.49
12507,11.87,11.31,-48.21,-915.527,-222.168,-36.621,-21.60,-8.85,-30.75,17.63
12517,25.63,-2.09,-52.22,848.145,-864.258,1237.305,-21.60,-8.85,-30.75,17.77
12527,13.38,7.95,-82.15,466.309,-683.594,84.473,-21.45,-9.45,-30.15,17.44
12537,-24.66,-0.57,-50.31,793.457,-2000.000,1778.809,-21.90,-9.90,-30.90,17.53
12549,-1.18,-8.90,-40.24,31.250,-824.219,1928.223,-21.90,-9.90,-30.90,17.53
12559,-14.19,-5.84,-57.34,-153.809,-761.719,1790.527,-19.65,-6.90,-30.75,17.34
12569,-9.80,3.18,-47.46,-441.895,294.922,1022.461,-21.00,-10.65,-30.90,17.77
12579,-5.63,-9.80,-42.47,-142.578,176.758,812.500,-21.00,-7.05,-31.95,17.68
12589,14.22,-12.64,30.08,172.363,-46.387,145.508,-20.85,-6.15,-30.75,17.68
12599,10.53,-9.20,-13.25,-243.164,-402.344,1999.939,-20.85,-6.15,-30.75,17.34
12611,4.02,-2.11,-44.19,225.098,-1268.066,1999.939,-20.10,-8.55,-30.75,17.53
12621,-3.08,16.17,-47.36,-736.328,25.391,1287.109,-20.10,-8.10,-30.30,17.53
12631,13.14,-0.79,-39.82,301.270,-1110.352,1654.785,-19.35,-5.70,-31.05,17.68
12641,-5.32,15.26,-43.16,-445.312,-559.570,854.004,-19.35,-8.85,-30.75,17.44
12651,-10.55,6.23,-49.81,-45.410,-347.168,1869.141,-19.35,-8.85,-30.75,17.49
12661,1.09,7.50,-27.14,-129.395,-467.285,101.563,-19.20,-7.50,-31.20,17.53
12671,2.12,1.13,-31.88,-35.156,255.371,1048.340,-19.20,-8.25,-30.15,17.63
12683,6.26,-1.24,-40.13,338.379,-847.656,647.949,-19.20,-8.25,-30.15,17.53
12693,-13.09,1.87,-40.09,80.566,228.027,220.215,-20.10,-6.15,-29.85,17.77
12708,-4.37,-3.59,-38.50,-259.277,-264.160,717.773,-18.15,-9.75,-28.35,17.44
12717,-5.31,1.16,-32.76,370.605,-559.570,487.793,-19.35,-8.85,-30.75,17.53
12727,-20.35,0.07,-35.55,73.242,-616.211,783.691,-19.35,-8.85,-30.75,17.63
12737,-5.10,-9.08,-17.26,-420.410,-608.887,503.906,-18.75,-7.50,-30.90,17.68
12747,4.55,-14.08,-34.61,854.004,-834.473,1999.939,-19.95,-9.90,-30.45,17.44
12759,4.19,4.67,-36.70,278.320,-314.941,932.129,-19.95,-9.90,-30.45,17.63
12769,18.03,-2.53,-24.26,543.457,-972.168,1689.941,-18.90,-5.70,-31.50,17.77
12779,-5.80,1.25,-43.35,-767.090,-116.211,1467.773,-18.15,-7.35,-31.05,17.63
12789,20.41,-5.29,-39.60,23.437,-644.043,254.395,-19.20,-6.30,-30.45,17.34
12799,-6.59,3.15,-41.63,568.359,-708.008,1999.939,-18.15,-4.50,-31.80,17.68
12809,-13.85,5.00,-37.90,-666.016,-303.711,1184.570,-18.15,-4.50,-31.80,17.63
12819,-1.46,8.95,-45.90,208.496,-73.242,649.902,-18.75,-5.85,-30.90,17.53
12831,1.31,8.91,-45.82,-395.508,64.941,1579.590,-17.25,-5.10,-30.90,17.77
12841,18.92,2.97,-40.82,382.324,-994.629,1274.902,-17.40,-5.25,-30.75,17.49
12851,-0.31,12.15,-35.37,-160.645,-750.488,590.820,-18.15,-6.45,-29.85,17.63
12861,-2.95,0.37,-28.02,98.633,-358.398,1251.465,-18.15,-6.45,-29.85,17.68
12871,-8.11,-3.02,-38.82,119.141,-903.320,447.754,-16.65,-4.05,-29.55,17.25
12881,-11.94,-3.89,-29.00,56.152,-293.457,1432.129,-16.80,-5.10,-28.95,17.44
12891,-8.82,-11.10,-41.29,561.523,-149.414,703.613,-16.80,-5.10,-28.95,17.82
12903,26.87,-15.10,-44.60,-24.902,665.039,1280.762,-17.40,-4.50,-28.80,17.44
12913,32.15,-10.43,-44.25,155.273,-870.117,999.512,-17.85,-2.85,-28.80,17.63
12923,11.09,-13.52,-34.09,187.988,-1259.277,1451.172,-16.20,-4.95,-28.05,17.82
12933,0.24,-0.59,-48.44,-423.340,-97.168,1453.613,-17.85,-5.70,-29.10,17.29
12943,16.27,-4.95,-29.46,104.492,-1401.855,1808.105,-17.85,-5.70,-29.10,17.49
12953,1.65,-4.65,-28.95,125.000,-1073.730,1807.617,-17.40,-2.55,-30.75,17.34
12965,15.34,-16.03,-29.61,721.680,-897.949,244.141,-17.10,-5.25,-30.75,17.53
12975,-11.61,0.89,-35.25,47.852,-593.262,911.133,-16.20,-4.95,-31.05,17.34
12985,-9.80,5.55,-39.88,-677.246,-144.043,1794.922,-17.40,-2.55,-32.25,17.82
12995,-3.38,-1.11,-42.08,52.734,-252.441,514.160,-17.55,-3.15,-31.20,17.82
13005,1.50,-4.32,-40.12,446.289,-619.141,875.488,-16.65,-4.05,-32.55,17.49
13015,-4.27,5.07,-45.60,-173.340,-107.910,752.441,-16.20,-2.55,-33.00,17.63
13025,-3.46,-0.81,-41.14,-25.879,-344.727,1396.484,-16.20,-2.55,-33.00,17.63
13037,-17.92,0.13,-48.85,-751.465,156.738,1932.617,-14.85,-3.45,-31.20,17.63
13047,7.98,-4.55,-38.32,-316.895,-276.855,456.543,-14.85,-3.45,-31.20,17.63
13057,5.01,-4.40,-34.63,340.820,-925.293,1258.789,-14.70,-2.55,-30.75,17.44
13067,-0.30,-5.57,-40.27,-276.367,-420.410,1350.586,-14.70,-2.55,-30.75,17.63
13077,-1.34,2.73,-39.06,-325.195,-190.918,439.941,-14.70,-2.55,-30.75,17.68
13087,9.68,-4.54,-52.09,494.141,-312.500,1456.055,-14.55,-2.25,-30.45,17.49
13097,6.37,-12.18,-33.84,-165.039,-879.395,933.594,-14.55,-2.25,-30.45,17.53
13109,12.60,-12.46,-45.13,47.363,-473.633,908.691,-15.15,-4.05,-30.30,17.63
13119,4.63,-2.10,-39.16,-20.020,-1058.594,1302.246,-14.70,-2.10,-32.25,17.77
13129,-13.11,5.85,-47.92,-334.961,-212.402,817.871,-12.60,-1.95,-33.15,17.82
13139,3.64,-2.27,-42.56,-125.977,-415.039,1211.426,-13.20,-2.85,-32.55,17.25
13149,6.82,7.47,-53.15,-277.832,-673.340,1289.551,-13.20,-2.85,-32.55,17.63
13159,2.24,7.50,-46.79,-140.625,-896.484,1532.715,-13.80,-0.75,-31.20,17.77
13171,-4.30,5.36,-50.90,-181.641,-524.902,1766.602,-13.50,-2.10,-33.00,17.68
13181,-5.09,-1.73,-32.90,36.133,-695.312,943.848,-13.05,-1.95,-30.90,17.63
13191,-13.76,5.95,-52.03,-359.375,-709.473,549.316,-13.35,-2.25,-31.95,17.49
13201,-9.11,-0.91,-45.14,214.355,-429.687,1761.230,-13.35,-2.25,-31.95,17.53
13211,-7.01,-4.65,-48.39,-176.758,-679.687,838.867,-12.45,-2.10,-32.25,17.63
13226,3.79,-1.72,-44.51,-329.102,-556.152,388.672,-12.75,-0.90,-31.50,17.49
13235,9.27,-2.58,-49.42,-348.145,-485.840,530.762,-12.75,-0.90,-31.50,17.68
13247,6.67,-2.60,-49.76,-297.852,-708.984,596.191,-12.30,-1.50,-30.45,17.44
13257,11.27,-7.79,-46.50,193.359,-830.566,648.926,-12.30,-1.95,-30.90,17.68
13267,0.44,-8.73,-44.56,-265.137,-376.953,982.422,-12.30,-0.75,-31.95,17.77
13277,-3.43,-10.02,-36.41,-309.570,-795.410,1386.719,-13.05,-1.50,-33.15,17.49
13287,-11.32,-2.30,-42.68,-126.465,-581.543,1097.168,-13.05,-1.50,-33.15,17.29
13297,-7.86,-5.15,-44.79,-343.750,-670.410,699.219,-11.10,-1.95,-34.65,17.63
13307,-1.66,-1.85,-36.40,-93.750,-272.949,1166.016,-12.00,-0.45,-32.55,17.63
13319,10.51,5.53,-41.40,-276.855,-558.105,945.312,-10.50,-0.45,-33.00,17.63
13329,13.11,-0.12,-36.25,-236.328,-908.203,1427.734,-11.40,0.00,-32.40,17.49
13339,5.10,11.06,-51.26,-423.340,-468.262,952.148,-11.40,0.30,-31.65,17.82
13349,3.63,6.45,-42.47,68.359,-947.266,826.172,-11.25,-0.15,-34.05,17.34
13359,-6.05,3.75,-44.43,-168.945,-548.828,756.348,-11.25,-0.15,-34.05,17.49
13369,-6.45,4.22,-45.88,85.938,-704.590,743.652,-10.50,0.15,-33.75,17.34
13381,-8.08,-2.34,-47.61,-240.723,-234.863,960.937,-11.25,0.15,-33.30,17.63
13391,4.21,-4.71,-35.76,53.223,-532.715,1999.939,-11.10,0.00,-32.70,17.25
13401,1.34,0.32,-41.20,-58.105,-405.762,1219.727,-10.35,-0.30,-32.40,17.77
13411,0.73,-4.22,-39.79,-44.434,-521.973,936.523,-10.35,-0.30,-32.40,17.77
13421,1.76,-6.66,-40.74,156.738,-417.969,1259.766,-9.30,0.90,-32.25,17.53
13431,5.07,-6.33,-40.23,-215.332,-414.551,1056.152,-9.60,0.75,-32.40,17.44
13441,9.78,-6.56,-42.11,-248.535,-829.102,774.414,-9.60,0.75,-32.40,17.49
13453,2.37,-9.55,-43.08,-166.504,-730.957,1536.133,-9.00,1.35,-33.00,17.53
13463,2.48,-3.34,-51.73,-402.344,-425.781,791.992,-9.90,0.00,-33.15,17.49
13473,10.63,-3.56,-35.73,-101.074,-898.926,1009.766,-8.40,1.05,-32.40,17.49
13483,5.56,-3.10,-41.48,-175.781,-615.723,1137.207,-9.00,1.35,-34.50,17.53
13493,-0.59,2.59,-38.79,-532.227,-517.090,723.633,-9.00,1.35,-34.50,17.53
13503,9.60,2.73,-44.01,-132.324,-970.703,335.449,-8.55,0.45,-33.75,17.49
13513,6.81,9.65,-42.37,-59.082,-297.852,1409.180,-8.70,-0.30,-33.90,17.49
13525,2.85,5.26,-44.00,-20.508,-813.477,885.742,-7.95,1.50,-33.45,17.63
13535,-7.64,2.42,-44.15,-272.461,-664.551,776.367,-7.20,0.75,-33.90,17.77
13545,-3.63,-1.01,-44.53,-13.672,-691.895,1129.883,-7.20,0.75,-33.90,17.53
13555,-9.92,4.24,-42.61,-48.340,-33.691,1097.656,-8.25,0.45,-33.00,17.44
13565,5.00,-6.24,-39.98,-113.281,-653.809,1313.965,-7.35,1.35,-32.55,17.77
13575,-0.45,0.21,-44.82,-247.070,-98.633,1129.395,-7.35,1.35,-32.55,17.63
13585,10.33,-3.51,-44.98,-133.301,-680.176,924.316,-7.20,1.50,-33.90,17.68
13597,-3.08,-2.50,-44.66,-94.238,-516.113,1305.176,-6.90,1.95,-33.90,17.63
13607,2.15,1.46,-39.02,-121.582,-1057.129,1100.098,-7.20,1.50,-33.90,17.49
13617,-4.19,5.77,-50.63,-211.426,-316.406,1622.559,-6.30,2.55,-35.25,17.44
13627,-1.25,0.31,-42.50,-446.289,-209.473,1161.621,-6.30,2.55,-35.25,17.53
13637,7.98,8.12,-42.89,-84.961,-468.750,1476.074,-5.25,1.50,-34.95,17.49
13647,6.57,4.72,-39.76,147.949,-564.941,665.039,-4.95,1.05,-34.20,17.49
13656,8.15,-2.17,-42.15,-189.453,-773.437,1466.797,-4.95,1.05,-34.20,17.68
13668,-3.27,-5.36,-48.02,-345.703,-430.664,1781.250,-4.20,1.50,-35.70,17.49
13678,3.64,-7.36,-45.37,182.129,-349.609,960.937,-4.20,1.50,-35.70,17.49
13688,0.27,-8.47,-46.64,-277.832,-864.746,1321.289,-4.95,1.95,-34.20,17.49
13698,1.73,-8.60,-39.18,-171.875,-652.344,1027.832,-3.90,2.10,-34.80,17.29
13708,3.48,-10.07,-52.40,-96.191,-819.824,1578.125,-3.90,2.10,-34.80,17.29
13718,-1.70,-3.94,-42.09,-64.453,-529.297,1156.738,-4.35,2.10,-34.80,17.44
13730,-9.75,-5.16,-38.28,-239.258,10.742,1169.922,-3.60,4.05,-35.25,17.53
13745,0.65,-8.52,-45.71,-57.129,-847.656,795.410,-1.80,1.95,-37.35,17.53
13754,-6.02,-0.97,-43.91,-250.000,-208.984,1106.445,-1.80,1.95,-37.35,17.53
13764,9.79,-1.86,-44.95,200.684,-780.273,810.059,-1.80,1.05,-34.20,17.49
13774,0.81,-2.97,-38.84,-181.641,-230.957,895.996,-1.65,2.10,-34.50,17.53
13784,19.26,-4.95,-42.99,-266.602,-791.992,499.512,-1.65,2.10,-34.50,17.63
13794,7.60,1.50,-30.50,-61.523,-575.684,1195.313,-2.10,0.90,-33.30,17.53
13806,3.06,-1.97,-41.54,-50.781,-937.988,959.961,-2.40,2.10,-34.05,17.77
13816,-5.69,6.89,-40.40,-113.281,-921.875,714.844,-1.80,1.95,-33.15,17.49
13826,-9.73,7.59,-51.35,-279.297,-545.898,1187.500,-2.10,2.10,-33.00,17.63
13836,-4.35,2.49,-39.48,-137.695,-187.012,457.031,-2.10,2.10,-33.00,17.53
13846,1.45,2.34,-41.85,-28.809,-221.191,899.414,-2.40,2.10,-33.75,17.49
13856,4.92,11.37,-44.40,-319.336,23.437,558.594,-1.50,1.50,-33.90,17.34
13868,23.44,13.03,-50.47,-125.977,-885.742,270.020,-1.50,1.50,-33.90,17.44
13878,18.27,8.78,-44.69,-121.582,-1117.676,1395.020,-1.80,1.50,-33.45,17.49
13888,-4.23,12.24,-50.99,122.070,-1383.789,191.406,-1.20,2.85,-31.80,17.49
13898,-17.81,2.28,-47.18,-97.168,-625.977,576.660,-0.30,3.15,-33.45,17.49
13908,-24.92,5.17,-40.50,-114.258,-128.418,1166.992,-0.75,2.25,-33.15,17.49
13918,-12.00,-2.67,-36.09,-136.230,-203.613,1729.980,-0.75,2.25,-33.15,17.63
13928,-16.75,8.29,-49.90,-31.738,-132.812,576.172,-0.15,2.85,-32.25,17.53
13940,-12.75,6.25,-42.94,-383.301,-280.273,1208.496,0.00,1.95,-34.20,17.53
13950,5.51,7.02,-36.40,45.410,-1106.445,1805.664,0.00,0.75,-33.45,17.53
13960,-3.99,3.10,-42.44,-233.887,1.953,-34.180,0.00,0.75,-33.45,17.49
13970,-13.00,-9.10,-59.59,55.176,-1876.465,1712.891,1.65,0.90,-33.75,17.53
13980,-31.12,-3.30,-51.24,-85.449,-52.246,1334.961,1.65,0.15,-32.55,17.68
13990,-16.31,-7.30,-42.56,-357.422,-141.602,1255.371,1.65,0.15,-32.55,17.53
14000,9.58,-18.91,-40.23,-5.371,479.980,1374.512,1.65,1.35,-31.80,17.49
14012,28.98,-19.24,-44.08,158.203,-308.594,1169.922,1.50,0.30,-34.20,17.53
14022,25.23,-20.09,-65.16,-26.855,-892.090,1554.688,1.20,0.90,-33.30,17.49
14032,17.48,-18.49,-51.53,-120.605,-1205.078,679.199,1.65,2.55,-32.55,17.44
14042,-4.45,-5.85,-38.37,64.453,-429.687,653.809,1.65,2.55,-32.55,17.34
14052,0.79,-18.13,-49.66,-6.836,-899.414,144.531,1.05,1.50,-34.95,17.68
14062,-9.26,-24.51,-45.13,-331.055,-812.012,1999.939,1.80,1.50,-33.45,17.49
14072,7.31,-30.60,-59.52,-412.598,-399.414,445.801,0.15,0.15,-34.50,17.49
14084,20.73,-44.55,-47.06,350.586,-657.227,744.141,2.25,0.75,-34.20,17.63
14094,-1.26,-36.08,-77.12,47.852,-819.824,852.539,0.90,1.35,-34.50,17.63
14104,-8.44,-41.69,-40.74,-191.406,-812.012,41.504,1.20,1.35,-34.05,17.68
14114,-35.73,-32.54,-45.71,-391.602,-665.039,1279.785,0.15,1.35,-34.80,17.44
14124,-8.27,-11.06,29.56,628.906,-1212.891,-260.742,0.15,1.35,-34.80,17.29
14134,-27.60,-24.50,-48.02,210.937,-458.496,594.238,1.65,1.35,-35.25,17.49
14144,-29.33,-29.18,-49.02,-412.109,-365.234,515.137,0.30,0.75,-33.45,17.82
14156,-10.95,-7.98,-44.89,-416.016,-491.211,430.176,0.75,1.50,-33.90,17.63
14166,6.17,-3.65,-44.79,-835.449,-372.559,1970.703,0.15,0.90,-34.05,17.82
14176,25.88,6.82,-56.40,-561.035,-860.352,1779.785,0.15,0.90,-34.05,17.53
14186,33.86,5.59,-79.69,-636.230,-348.633,1359.375,2.10,1.35,-33.30,17.44
14195,18.85,18.21,-42.34,-852.539,-857.910,-290.039,1.65,0.90,-35.25,17.25
14205,18.79,22.10,-52.13,100.098,-1293.945,792.969,1.65,0.90,-35.25,17.44
14216,-2.97,16.32,-51.51,-13.672,-780.762,388.672,2.10,0.45,-33.75,17.63
14226,-12.95,19.45,-60.91,-249.023,-730.469,1328.125,3.15,2.55,-34.80,17.53
14236,-18.91,19.27,-52.71,-216.797,237.305,1669.434,3.75,1.95,-34.65,17.49
14245,15.30,13.90,-52.75,-350.586,-541.016,1999.939,3.90,2.55,-35.25,17.34
14259,12.53,14.29,-50.60,203.613,-554.199,501.953,3.90,2.55,-35.25,17.63
14269,-2.13,7.57,-51.10,-126.953,-298.340,1197.266,5.10,0.45,-35.25,17.63
14279,7.41,5.58,-44.67,-250.977,-821.777,787.598,5.55,1.65,-34.50,17.53
14288,3.92,0.61,-55.52,16.113,-710.449,1209.961,5.10,0.90,-36.00,17.49
14299,4.37,4.40,-55.24,292.480,-1051.758,380.859,5.85,1.65,-34.50,17.68
14308,-4.79,-4.56,-40.21,-131.836,-210.937,359.863,5.85,1.65,-34.50,17.68
14318,-9.23,-5.50,-53.10,-496.094,-520.020,1140.137,7.05,1.35,-34.50,17.63
14328,-0.66,-0.47,-52.32,-432.617,-883.789,1848.633,6.30,0.15,-35.25,17.77
14338,0.48,1.88,-48.77,178.711,-810.547,290.039,6.30,0.15,-35.25,17.25
14348,0.63,-0.01,-50.63,-68.359,-406.250,1292.480,5.70,0.30,-34.95,17.53
14358,9.18,-0.81,-46.50,-41.504,-814.941,344.727,5.85,0.45,-34.05,17.53
14370,4.73,-6.26,-68.02,527.344,-1059.570,401.855,7.05,0.90,-34.80,17.53
14380,6.47,-1.24,-59.10,146.973,-1083.984,812.012,7.05,0.90,-34.80,17.49
14390,-3.01,-1.37,-47.35,-408.203,-1188.965,1005.859,7.80,1.65,-35.55,17.44
14400,-0.34,1.98,-52.24,64.453,-605.469,728.027,7.80,0.45,-36.00,17.53
14409,3.02,1.35,-41.92,-142.578,-475.586,561.523,7.80,0.45,-36.00,17.49
14419,-1.30,-3.60,-48.63,-254.395,-744.629,1717.285,6.30,0.15,-36.00,17.49
14429,6.35,-1.24,-51.89,-157.227,-943.359,464.844,7.05,0.90,-34.80,17.53
14441,-3.26,-5.45,-53.84,8.789,-578.125,1170.410,7.65,1.95,-34.95,17.77
14451,6.91,4.84,-45.80,60.547,-698.242,1377.441,9.15,2.25,-33.90,17.77
14461,2.04,6.24,-42.13,-301.270,-1251.953,1903.809,9.15,2.25,-33.90,17.68
14471,2.24,-0.40,-46.42,9.766,-566.895,659.668,8.40,0.00,-36.15,17.49
14480,0.45,0.81,-48.16,-84.473,-306.641,691.895,8.40,0.75,-34.95,17.49
14490,-8.47,2.24,-45.55,-88.867,-804.199,1291.504,8.40,0.75,-34.95,17.63
14500,-1.89,1.62,-48.24,-398.437,-706.055,1651.367,10.05,1.65,-35.55,17.49
14512,5.33,4.59,-44.31,72.266,-592.773,1027.344,10.05,1.65,-35.55,17.44
14521,-1.07,-0.18,-50.96,-330.078,-509.766,1813.965,9.75,1.35,-35.25,17.49
14531,1.83,2.54,-49.66,2.930,-421.387,644.531,10.05,1.35,-34.80,17.68
14541,1.74,1.47,-41.88,-56.152,-440.430,729.492,10.05,1.35,-34.80,17.63
14550,12.44,2.01,-45.79,211.914,-869.141,1227.539,10.05,1.35,-34.80,17.68
14560,6.77,-4.90,-46.33,-134.277,-359.375,1195.801,12.45,1.35,-35.55,17.53
14570,-0.26,-4.44,-43.45,-72.754,-570.801,922.363,12.45,1.35,-35.55,17.77
14582,3.85,-2.21,-43.11,61.523,-185.059,797.363,10.35,0.30,-36.60,17.49
14592,3.84,-3.82,-43.75,-143.066,-577.148,769.531,10.35,0.30,-36.60,17.77
14602,-1.65,-3.34,-54.16,-198.730,-797.363,765.625,10.65,-0.30,-36.15,17.63
14612,2.15,-3.08,-39.15,-62.012,-464.355,1143.066,13.20,0.15,-33.75,17.44
14622,-1.57,-4.76,-44.49,-24.414,-649.902,736.816,13.05,-0.30,-34.20,17.25
14632,0.65,-5.66,-51.63,-608.887,-512.207,1445.801,11.70,1.35,-36.30,17.49
14644,3.79,3.83,-50.96,147.461,-936.035,215.332,11.70,1.35,-36.30,17.49
14653,-4.15,-8.37,-49.08,-598.145,-514.648,1839.844,12.75,-1.65,-36.30,17.53
14663,-4.64,-9.79,-43.61,88.379,-751.465,1372.070,12.60,0.75,-36.15,17.63
14673,4.59,-12.59,-41.85,134.277,-281.250,1060.547,12.60,0.75,-36.15,17.49
14683,4.13,0.23,-49.31,-49.805,-245.117,1171.875,13.35,-1.95,-36.15,17.25
14693,10.96,-17.19,-36.61,-70.313,-700.684,450.684,11.70,-0.90,-34.80,17.77
14703,-4.15,3.37,-91.42,223.145,-1031.250,639.160,11.70,-2.10,-34.50,17.68
14715,1.56,1.40,-34.36,-239.746,-792.969,968.750,14.40,-0.15,-36.00,17.49
14725,-4.47,2.89,-48.61,-78.125,-375.488,759.277,14.40,-0.15,-36.00,17.49
14735,-8.66,-5.72,-47.68,-175.293,-68.359,1829.102,14.70,-2.55,-35.55,17.82
14745,-1.90,-8.44,-47.36,-345.703,-251.953,1214.355,13.35,-1.50,-36.90,17.77
14755,9.21,3.37,-45.51,71.777,-532.715,372.559,12.30,-3.15,-35.40,17.63
14780,5.89,-2.21,-49.35,118.652,-281.250,645.508,14.10,-1.50,-36.15,17.29
14790,3.79,2.58,-48.88,-154.785,-568.359,1381.348,14.55,-3.45,-36.60,17.49
14800,8.34,-0.66,-45.56,-57.617,-946.777,942.871,13.50,-2.10,-36.75,17.44
14810,13.69,5.53,-47.51,93.750,-885.254,625.488,13.50,-2.10,-36.75,17.63
14820,-3.91,-1.63,-41.99,-552.734,-191.406,1829.590,15.30,-1.95,-36.15,17.34
14830,-3.04,-5.08,-49.75,84.473,-1163.086,1026.855,15.30,-2.25,-37.65,17.44
14840,-2.74,2.65,-45.20,76.172,-903.320,549.805,14.85,-2.70,-35.40,17.82
14852,5.74,0.74,-41.44,-83.008,-117.188,595.703,14.85,-2.70,-36.15,17.44
14862,9.63,5.67,-45.37,231.445,-158.691,1073.242,16.80,-2.70,-36.60,17.49
14872,4.27,-0.82,-95.78,-534.668,-1416.504,1520.996,16.05,-2.25,-36.15,17.44
14882,-12.66,-1.77,-37.71,-7.812,-1270.508,1279.785,16.05,-2.25,-36.15,17.49
14892,-13.87,15.21,-52.55,-370.605,36.133,1145.508,16.05,-4.35,-36.60,17.63
14902,4.28,1.98,-44.84,166.992,-553.223,1107.422,14.70,-3.30,-36.00,17.49
14911,3.15,9.25,-45.15,107.910,-675.293,190.430,14.70,-3.30,-36.00,17.49
14923,-7.80,3.18,-56.85,-437.012,-317.383,645.996,16.50,-3.15,-37.35,17.44
14933,-4.46,8.73,-51.62,-167.969,-258.301,853.027,16.50,-3.15,-37.35,17.34
14943,0.79,5.89,-52.01,187.988,-155.762,803.711,16.50,-5.55,-35.40,17.53
14953,2.27,4.60,-54.42,-9.766,-569.824,1632.813,17.10,-4.05,-36.30,17.63
14963,8.78,4.49,-41.02,249.023,-353.027,332.520,17.55,-4.65,-35.70,17.77
14973,-2.04,3.82,-56.20,-179.199,-688.477,676.270,16.80,-5.85,-36.60,17.34
14983,3.63,-9.15,-46.36,-71.777,-420.898,900.879,16.80,-5.85,-36.60,17.53
14995,-10.18,-6.75,-48.11,-541.016,-1061.035,1999.939,18.15,-5.70,-35.55,17.44
15005,8.95,1.37,-52.45,-167.969,-502.930,564.941,17.40,-5.70,-36.75,17.53
15015,2.14,3.34,-55.39,-350.586,-564.941,1026.855,17.40,-5.70,-36.75,17.82
15025,5.46,4.00,-39.24,-70.801,-129.395,1281.738,17.85,-6.45,-36.30,17.77
15035,3.44,4.44,-38.24,96.680,-611.328,315.918,17.85,-5.70,-37.80,17.63
15045,-2.50,3.94,-50.31,-188.477,-681.152,1317.871,18.45,-5.55,-37.35,17.49
15055,-6.08,7.20,-50.83,-61.523,-762.695,1103.027,18.60,-5.25,-36.75,17.15
15067,-1.93,6.46,-53.01,-290.039,-606.934,1467.285,18.60,-5.25,-36.75,17.49
15077,2.16,3.44,-40.98,183.594,-367.187,883.301,18.90,-8.10,-37.05,17.49
15086,5.75,2.90,-49.14,414.062,-591.309,351.074,19.20,-5.85,-36.60,17.68
15096,-1.06,2.56,-44.18,-70.801,-460.449,1298.340,19.35,-5.25,-36.00,17.77
15106,3.65,-4.60,-47.61,6.348,-560.547,1248.047,20.25,-7.05,-36.90,17.49
15116,4.75,1.43,-46.50,104.004,-830.078,129.395,19.35,-6.15,-37.80,17.77
15128,-2.34,-3.55,-54.67,-2.930,-767.090,709.961,20.10,-5.25,-37.50,17.63
15138,3.39,-2.25,-45.73,269.043,-539.062,350.098,18.90,-8.10,-37.80,17.49
15148,-8.50,-5.51,-53.53,-170.410,-193.848,1680.176,18.90,-8.10,-37.80,17.34
15158,1.83,-6.96,-42.76,-139.160,-482.910,940.918,19.35,-6.45,-37.05,17.34
15168,-0.76,-4.08,-38.42,-105.469,-703.125,739.258,19.35,-8.10,-36.75,17.49
15178,-2.85,-5.38,-51.58,-260.742,-476.562,920.410,20.85,-5.70,-37.50,17.49
15188,-4.33,-4.60,-51.29,-176.270,-572.266,1075.684,20.10,-8.55,-37.05,17.77
15200,-5.24,-2.83,-46.44,-431.152,-268.066,1098.145,20.10,-8.55,-37.05,17.44
15210,9.34,-7.93,-40.15,-65.430,-601.074,833.008,20.85,-8.55,-36.00,17.63
15220,3.33,-0.59,-49.91,-432.617,-662.598,895.020,20.10,-8.85,-36.75,17.53
15230,10.17,1.11,-43.92,-161.621,-492.187,1627.930,20.10,-8.85,-36.75,17.44
15240,7.90,-2.02,-46.87,18.555,-375.000,872.070,22.20,-8.70,-36.90,17.49
15250,10.34,-3.49,-45.55,-29.297,-803.223,1282.715,19.95,-7.50,-38.10,17.63
15260,10.12,3.50,-61.40,-44.922,-664.551,1062.988,20.25,-8.25,-37.65,17.49
15272,5.82,6.25,-41.03,-231.445,-637.207,774.902,21.90,-9.15,-37.65,17.44
15282,0.98,-7.18,-46.44,-197.266,-405.762,1386.719,21.60,-8.85,-37.50,17.49
15297,3.20,3.71,-48.67,-235.352,-381.348,454.102,20.55,-10.50,-37.05,17.63
15307,-7.97,2.94,-47.21,-275.879,-305.176,1481.445,20.70,-7.95,-37.65,17.25
15317,-5.17,0.34,-44.46,4.395,-714.844,1845.703,21.60,-9.30,-37.50,17.53
15327,-0.55,9.92,-47.98,416.992,-521.484,939.453,21.60,-9.30,-37.50,17.63
15337,3.21,5.03,-32.87,-352.539,-239.258,1341.309,22.05,-8.55,-37.50,17.53
15347,0.69,7.41,-51.95,-171.875,-819.824,657.227,21.30,-12.15,-38.25,17.53
15359,-9.60,3.79,-45.31,-349.121,-472.656,923.340,21.30,-12.15,-38.25,17.53
15369,-1.09,10.47,-50.39,277.344,-983.887,474.609,22.20,-10.35,-36.60,17.49
15379,-15.93,7.36,-42.32,-70.313,-308.594,463.867,22.35,-12.90,-37.80,17.49
15389,-9.27,-2.27,-43.00,-249.512,-636.230,1479.492,21.30,-11.25,-37.80,17.34
15399,-5.43,3.10,-50.97,-13.672,-398.437,476.562,23.40,-11.10,-37.65,17.68
15409,6.10,6.40,-42.70,-252.930,-748.047,868.164,23.40,-11.10,-37.65,17.63
15421,13.34,3.36,-51.94,307.617,-460.449,494.629,20.85,-12.15,-37.80,17.77
15431,4.36,10.72,-46.85,117.676,-345.215,1148.926,22.65,-12.75,-38.10,17.63
15441,12.28,1.73,-38.44,-90.332,-658.203,1119.141,22.65,-12.75,-38.10,17.53
15451,1.73,4.88,-38.37,141.602,-647.461,965.820,23.25,-10.95,-38.25,17.68
15461,0.70,9.89,-46.73,-263.184,-123.535,979.980,21.60,-12.90,-39.30,17.77
15471,5.41,2.20,-49.72,147.461,-839.844,1449.707,24.60,-11.55,-40.35,17.34
15480,-2.76,1.21,-39.55,170.410,-633.789,1063.965,22.20,-11.85,-38.40,17.68
15492,-5.94,7.89,-45.06,-251.953,-809.082,319.336,22.20,-11.85,-38.40,17.53
15502,-12.73,8.20,-53.07,153.320,-487.305,141.602,23.40,-13.80,-40.65,17.34
15512,-12.34,-5.08,-57.58,-193.359,-391.602,1820.313,23.40,-13.80,-40.65,17.68
15522,-7.93,-4.02,-36.98,140.137,-559.082,1216.309,23.25,-12.45,-39.75,17.44
15532,6.53,0.48,-37.79,157.227,164.551,1252.441,23.70,-12.75,-38.10,17.77
15542,8.38,-5.76,-40.02,-70.801,-1575.684,1999.939,23.70,-12.75,-38.10,17.44
15552,-0.66,1.83,-42.92,-266.113,47.363,1344.238,24.60,-13.65,-39.30,17.49
15564,2.08,0.15,-47.99,-6.836,-209.473,416.992,24.60,-13.80,-39.60,17.29
15574,-2.34,1.17,-25.05,-573.242,-584.473,1788.086,23.40,-14.70,-40.35,17.49
15584,16.24,3.08,-43.44,187.012,-771.973,356.445,24.00,-15.30,-38.25,17.63
15594,-7.66,4.84,-38.60,-890.137,-929.199,1518.066,21.90,-14.70,-39.60,17.53
15604,-4.97,-2.28,-27.70,-203.125,-457.520,1598.633,24.00,-14.40,-39.00,17.44
15614,-6.70,6.98,-45.59,295.410,-975.586,964.355,24.00,-14.40,-39.00,17.34
15626,-5.40,-6.24,-42.24,51.758,-566.406,775.391,23.70,-15.90,-39.15,17.68
15636,-2.62,4.55,-48.57,-288.086,-307.617,1165.527,24.00,-15.30,-39.00,17.63
15646,-2.17,2.98,-41.10,22.949,-574.707,1742.188,25.05,-15.60,-39.00,17.53
15656,1.36,1.01,-46.76,624.023,-634.766,735.840,22.80,-14.85,-39.75,17.68
15666,-5.18,-0.41,-41.37,-185.059,-518.555,968.262,23.25,-15.30,-40.05,17.49
15676,4.63,-7.52,-47.08,333.008,-615.723,329.102,24.15,-19.05,-39.60,17.77
15686,5.96,-2.58,-44.76,534.180,-581.543,201.660,22.80,-15.60,-39.75,17.53
15698,16.95,-1.08,-52.34,314.941,-741.699,223.145,22.80,-15.60,-39.75,17.77
15708,-15.24,0.09,-46.94,-375.488,-36.621,1021.484,23.40,-17.85,-39.60,17.63
15718,1.41,-9.26,-39.46,389.648,-1012.695,636.719,23.55,-16.50,-39.75,17.53
15728,-9.60,4.56,-56.48,423.828,-227.539,247.559,24.00,-19.20,-37.80,17.44
15738,-7.17,-1.15,-25.93,-258.789,-137.695,1999.939,22.80,-18.45,-40.50,17.44
15748,12.08,-7.17,-43.53,273.437,-520.508,615.723,22.80,-18.45,-40.50,17.63
15758,-9.10,-0.09,-40.98,-751.465,-310.547,1999.939,24.30,-19.65,-39.75,17.53
15770,-1.43,9.02,-45.50,-405.273,-5.859,496.094,23.55,-18.00,-39.75,17.53
15780,2.06,-3.65,-48.18,263.184,-1141.113,1999.939,23.55,-18.00,-39.75,17.49
15790,16.64,-0.37,-38.85,17.090,-335.937,1034.668,24.30,-19.20,-39.30,17.53
15800,-0.76,-0.56,-33.96,-487.793,-833.496,1999.939,24.60,-19.50,-39.60,17.49
15814,2.55,2.92,-43.81,313.477,-845.703,334.961,25.50,-20.85,-39.30,17.63
15824,-11.85,13.73,-37.19,247.070,60.547,328.613,25.50,-20.85,-39.30,17.49
15838,0.76,6.08,-48.20,-369.629,-770.020,1999.939,24.75,-18.90,-39.75,17.49
15848,-0.77,5.98,-47.08,390.137,-673.828,139.648,24.60,-20.25,-39.60,17.34
15858,-9.79,10.40,-33.28,-191.895,-762.207,1880.371,24.15,-19.05,-39.15,17.53
15868,-1.46,-0.92,-41.11,102.539,-967.285,945.801,24.90,-20.25,-39.60,17.68
15878,-7.75,7.01,-36.40,-199.707,12.695,777.344,24.90,-20.25,-39.60,17.68
15888,5.72,-5.65,-36.24,233.887,-542.480,1608.398,23.70,-19.50,-39.15,17.53
15898,4.15,5.60,-35.97,40.039,-214.355,740.723,25.05,-21.30,-37.80,17.25
15909,6.50,-1.95,-36.82,421.875,-1137.695,-284.180,25.05,-21.30,-37.80,17.34
15919,-7.87,6.60,-39.66,-275.879,136.719,402.344,24.15,-18.60,-40.35,17.49
15929,-1.20,-6.43,-42.33,351.074,-384.766,1183.594,24.30,-21.60,-39.75,17.63
15939,-6.65,8.78,-43.21,-48.828,241.211,1037.109,23.25,-20.85,-40.05,17.44
15949,-0.02,1.32,-39.53,-181.152,-667.480,1999.939,24.90,-21.00,-40.35,17.49
15959,15.48,3.65,-41.92,-131.348,-468.750,185.547,24.90,-21.00,-40.35,17.77
15969,-23.37,1.80,-39.24,-864.746,365.234,1983.398,23.70,-21.90,-41.10,17.44
15981,-24.60,4.89,-40.54,-696.289,193.359,979.004,23.70,-20.70,-39.90,17.53
15991,15.53,5.76,-40.63,758.789,-1041.016,-268.066,23.70,-20.70,-39.90,17.49
16001,-20.92,5.77,-48.86,-452.637,748.535,308.594,25.05,-22.50,-41.25,17.34
16011,19.37,-1.47,-39.84,956.543,-1524.902,-604.004,23.70,-20.25,-38.85,17.87
16021,-16.09,0.08,-52.80,298.340,-162.598,-173.340,24.60,-23.40,-39.60,17.68
16031,4.32,-7.24,-27.95,-169.922,-454.102,226.562,24.15,-23.40,-39.60,17.77
16043,-0.31,1.73,-48.96,81.543,207.520,393.555,24.15,-23.40,-39.60,17.44
16053,-0.81,-3.56,-33.33,666.016,-784.668,1234.863,23.40,-23.40,-40.35,17.63
16063,-1.23,2.21,-35.80,-579.102,-525.391,387.695,23.40,-23.40,-40.65,17.77
16073,7.18,-12.56,-45.14,720.215,-1459.473,1479.004,23.55,-21.30,-40.80,17.25
16083,-17.37,10.76,-38.88,-505.859,375.977,1345.703,24.60,-23.40,-39.60,17.77
16093,18.60,-2.39,-34.37,1023.926,-1202.637,571.289,24.60,-23.40,-39.60,17.49
16103,-5.44,7.56,-33.60,-267.578,-544.434,521.484,24.15,-20.70,-39.90,17.49
16115,-4.61,4.29,-49.67,-440.430,168.945,1378.418,23.55,-25.20,-40.05,17.68
16125,8.79,-11.78,-29.95,578.125,-1101.074,1999.939,23.55,-22.50,-40.50,17.68
16135,-4.78,11.20,-45.97,-437.012,-558.594,1152.832,24.75,-25.65,-40.05,17.53
16145,3.01,-11.91,-45.69,534.668,-1473.633,1999.939,22.95,-25.50,-41.10,17.53
16155,-16.27,13.16,-50.11,-479.492,574.219,1759.766,24.75,-24.00,-40.50,17.44
16165,15.47,-0.99,-67.05,696.777,-1539.063,1638.184,24.75,-24.00,-40.50,17.49
16177,15.49,-8.89,-56.55,1051.270,-1900.879,828.613,23.40,-26.55,-41.10,17.53
16187,-12.24,0.23,-48.63,-573.242,258.301,91.309,24.30,-24.45,-41.55,17.49
16197,18.85,-4.97,-14.42,1163.574,-1747.070,86.914,24.30,-24.45,-41.55,17.82
16207,-17.13,6.63,-52.74,-133.789,470.703,45.898,23.70,-26.55,-39.90,17.77
16217,11.78,-18.67,-38.19,968.750,-1046.875,-254.883,23.40,-25.50,-41.85,17.44
16227,-12.77,7.36,-41.48,-222.656,-355.469,-460.937,24.30,-26.85,-40.80,17.82
16237,6.19,-9.18,-31.85,56.641,-681.641,-509.766,22.20,-27.45,-40.65,17.63
16249,17.21,-6.58,-39.20,-111.816,-151.367,90.820,22.20,-27.45,-40.65,17.34
16259,-1.83,-3.51,-47.68,94.727,-1104.004,1848.145,22.80,-26.40,-41.25,17.68
16269,6.95,-5.14,-39.82,-249.512,-216.309,623.535,22.80,-27.60,-40.50,17.53
16279,0.14,-2.93,-28.53,331.055,-1326.172,1999.939,23.25,-26.40,-40.50,17.49
16289,12.17,1.61,-43.75,-505.859,-202.148,606.934,23.25,-27.15,-41.25,17.53
16299,-13.24,7.66,-45.63,541.992,-2000.000,1999.939,23.25,-27.15,-41.25,17.82
16311,-9.16,14.60,-32.84,213.379,-709.961,1999.939,22.20,-26.55,-41.85,17.49
16321,-8.96,16.07,-32.83,-333.984,506.836,1728.027,23.25,-28.35,-40.80,17.53
16335,14.63,-2.43,-44.49,417.969,-1385.742,1999.939,23.70,-27.45,-40.65,17.53
16345,-9.14,8.67,-52.53,-666.504,214.355,1320.801,22.20,-27.75,-40.35,17.68
16355,21.01,-5.23,-58.50,855.957,-1516.602,-63.965,22.05,-28.05,-42.00,17.63
16365,-16.72,6.83,-54.46,-196.289,-30.762,593.262,22.65,-27.75,-41.85,17.82
16375,20.21,-1.44,-28.40,683.594,-931.641,-889.648,22.65,-27.75,-41.85,17.53
16387,19.40,-6.29,-48.75,264.160,-817.871,-748.047,22.35,-28.80,-41.25,17.68
16397,-19.54,-1.89,-39.79,-85.938,-466.309,1981.934,20.85,-28.80,-42.00,17.77
16407,7.40,-6.29,-49.15,44.434,-411.133,160.645,20.85,-28.80,-42.00,17.44
16417,-17.61,1.12,-45.85,-5.859,42.480,1999.939,22.95,-29.85,-41.40,17.49
16427,16.48,-4.64,-48.41,-426.758,-107.422,593.262,22.05,-29.55,-40.05,17.68
16437,0.95,0.56,-45.09,543.945,-1252.930,1999.939,21.45,-27.45,-41.10,17.77
16446,19.51,-8.28,-46.95,453.613,-1319.824,223.145,23.40,-30.60,-42.15,17.49
16458,4.94,-4.27,-60.13,207.031,-1178.223,-187.500,23.40,-30.60,-42.15,17.63
16468,-25.15,1.44,-37.15,-10.254,318.848,61.035,22.05,-28.35,-42.00,17.63
16478,14.24,3.23,-45.86,266.602,-542.969,-326.172,22.65,-30.15,-39.90,17.44
16488,-10.89,-0.92,-48.16,-109.375,-488.770,1655.273,19.95,-29.85,-41.10,17.68
16498,11.76,5.26,-41.31,-565.918,187.012,643.555,20.85,-29.25,-41.25,17.77
16508,-7.07,-3.72,-49.99,200.684,-1237.305,1999.939,20.85,-29.25,-41.25,17.44
16518,-3.17,10.65,-36.88,-511.719,39.063,1049.316,21.30,-31.20,-41.25,17.68
16529,12.20,-1.06,-68.85,-63.965,-563.477,498.047,20.70,-28.95,-40.65,17.49
16539,-12.53,-10.27,-32.90,182.617,-626.953,1999.939,20.70,-28.95,-40.65,17.49
16549,1.99,-0.75,-53.87,-569.336,130.371,396.484,20.55,-31.95,-40.50,17.49
16559,0.08,3.26,-27.75,634.277,-1860.352,1999.939,21.00,-30.15,-41.40,17.53
16568,13.37,-3.56,-44.39,-100.586,-744.629,-142.090,20.55,-31.20,-40.50,17.49
16578,-1.56,-0.46,-33.53,-134.277,-337.402,1896.973,20.85,-32.40,-40.80,17.63
16590,-11.50,-0.11,-41.59,-2.441,-583.984,1999.939,20.85,-32.40,-40.80,17.53
16600,17.21,1.68,-38.11,-320.312,-322.754,679.687,18.90,-31.20,-41.55,17.68
16610,-1.37,3.78,-41.81,252.441,-744.629,1999.939,19.95,-32.55,-40.35,17.53
16620,-0.27,-3.15,-19.05,-719.238,60.059,905.273,19.95,-32.55,-40.35,17.29
16630,-3.95,-1.24,-50.79,193.359,-1497.070,1993.164,19.50,-31.05,-40.65,17.49
16640,-16.27,5.08,-16.22,-238.770,330.078,729.980,19.35,-31.95,-40.80,17.53
16650,7.96,-7.66,-47.11,37.109,-1160.645,664.062,19.95,-32.25,-40.35,17.68
16662,27.89,-4.18,-37.88,-37.109,-564.453,-69.824,19.20,-31.05,-40.35,17.82
16672,-22.89,-8.76,-47.54,97.656,-20.020,1111.816,19.20,-31.05,-40.35,17.63
16682,7.72,-0.27,-58.54,28.320,109.863,336.914,18.60,-33.15,-40.05,17.49
16692,6.45,0.39,-19.98,225.098,-1228.516,1999.939,19.20,-30.15,-40.35,17.53
16701,14.49,-6.28,-43.98,-18.066,-669.434,69.336,19.65,-34.05,-40.50,17.49
16711,-7.24,-5.40,-34.05,250.977,-983.398,1999.939,18.90,-32.40,-41.25,17.49
16721,-3.67,0.33,-46.57,-186.035,309.082,1212.402,18.00,-31.35,-41.40,17.68
16733,2.85,2.15,-45.47,-943.848,-431.641,763.672,19.50,-33.45,-41.10,17.49
16743,2.58,-10.31,-36.11,737.793,-826.172,1712.402,18.00,-34.65,-41.10,17.82
16753,-14.48,6.29,-42.75,-478.027,274.414,794.434,18.00,-34.65,-41.10,17.63
16763,11.02,-3.60,-41.04,109.863,-558.105,199.219,18.60,-34.35,-40.50,17.44
16773,-6.07,9.13,-31.24,-20.508,-897.461,1758.301,18.45,-34.95,-41.10,17.25
16783,21.79,1.97,-31.27,-172.852,-739.746,96.680,19.35,-32.40,-41.25,17.53
16795,7.77,1.44,-61.50,-378.906,-496.094,547.852,17.25,-33.00,-41.10,17.63
16805,-9.35,0.42,-38.59,368.164,-339.355,1543.945,18.45,-33.45,-40.65,17.63
16815,-6.60,-2.63,-25.37,-277.832,-55.176,774.414,17.10,-31.95,-39.30,17.68
16825,-3.74,-0.58,-36.20,-145.996,-312.988,1612.793,17.10,-31.95,-39.30,17.68
16835,4.16,-3.53,-40.61,531.738,-881.836,1385.254,16.80,-34.65,-41.10,17.44
16851,8.49,-8.69,-51.93,433.105,-871.094,1299.316,18.15,-32.85,-41.55,17.25
16861,-7.50,-2.27,-26.50,-190.918,213.867,873.535,18.15,-33.15,-39.30,17.34
16871,6.84,-0.92,-31.81,-99.121,-854.004,1042.969,16.20,-34.05,-39.00,17.53
16881,-1.10,-2.52,-44.16,146.484,-899.902,1295.410,16.20,-34.05,-39.00,17.49
16891,-3.65,0.84,-47.50,-493.652,-211.426,958.496,17.40,-33.15,-39.30,17.49
16901,6.26,-2.28,-10.58,444.336,-1156.738,847.168,17.55,-36.15,-39.15,17.63
16911,-6.00,0.59,-48.25,-189.453,-167.969,237.305,16.05,-33.45,-40.35,17.44
16923,4.32,-2.61,-38.97,90.332,-1005.859,1117.676,16.65,-33.60,-39.00,17.77
16933,5.21,-0.66,-33.97,-84.961,-52.734,952.637,16.80,-35.40,-40.35,17.49
16943,14.40,-12.41,-40.74,842.773,-1198.730,1999.939,16.50,-34.65,-39.90,17.49
16953,-11.44,0.54,-37.25,-155.762,92.285,622.070,17.25,-34.95,-40.65,17.63
16963,6.34,2.71,-24.18,96.680,-664.062,565.918,17.25,-34.95,-40.65,17.63
16973,5.53,-1.31,-37.98,226.074,-481.934,1030.762,15.30,-34.65,-39.90,17.53
16983,-4.64,-9.35,-37.47,-614.746,-134.277,1190.430,16.20,-34.80,-39.75,17.53
16995,-18.84,-1.98,-32.99,-690.918,359.375,793.457,15.45,-34.65,-40.65,17.53
17005,7.01,-6.30,-33.25,432.617,-519.531,1363.770,15.45,-36.00,-39.30,17.53
17015,-24.53,-0.17,-37.82,-539.062,166.504,717.773,15.45,-36.00,-39.30,17.44
17025,-1.76,3.00,-31.42,-418.945,-318.359,1087.891,15.75,-35.85,-39.15,17.49
17035,5.29,0.34,-23.21,298.340,-652.832,1999.939,15.75,-35.85,-39.60,17.63
17045,-5.75,1.88,-46.99,-174.316,-435.547,467.773,15.75,-35.85,-39.60,17.77
17057,-3.69,-1.99,-36.45,-49.316,-511.719,1178.223,14.55,-34.95,-38.40,17.44
17067,8.69,-1.49,-33.50,-456.543,-62.500,1159.180,15.15,-36.00,-38.25,17.53
17077,9.94,2.75,-25.01,153.320,-1805.664,1999.939,14.70,-34.05,-38.55,17.63
17086,0.81,-14.40,-33.97,-657.227,-324.707,692.383,14.70,-34.05,-38.55,17.77
17096,0.86,7.62,-32.57,525.879,-106.934,1290.039,16.50,-35.85,-39.90,17.34
17106,-1.20,3.34,-40.36,-172.363,-703.613,886.230,14.40,-34.80,-40.05,17.49
17116,2.52,4.32,-32.73,450.195,-909.180,141.113,13.95,-34.35,-39.00,17.82
17128,-6.13,-1.37,-31.94,-294.922,-661.621,767.578,13.35,-36.60,-38.40,17.63
17138,-4.30,0.03,-15.66,141.602,-1287.109,898.437,13.95,-35.55,-39.75,17.49
17148,-0.03,1.77,-28.24,-91.797,-171.875,59.082,13.35,-33.75,-39.15,17.63
17158,14.11,-14.25,-34.37,-56.641,-808.105,895.996,13.20,-36.75,-38.25,17.68
17168,-2.92,-0.39,-37.24,24.414,-1089.844,583.984,13.20,-36.75,-38.25,17.63
17178,-0.94,2.21,-35.88,-866.699,-553.711,111.816,14.70,-34.05,-39.00,17.53
17188,4.88,-10.98,-28.79,771.973,-618.164,953.613,14.85,-35.40,-38.85,17.49
17200,8.78,4.11,-35.05,72.754,-535.645,335.937,13.95,-36.00,-37.80,17.44
17210,-5.52,-0.06,-29.63,410.156,-75.684,1690.430,13.05,-34.95,-38.85,17.53
17220,-8.86,6.11,-39.37,-473.145,-11.719,863.281,13.05,-34.95,-38.85,17.44
17230,-2.98,8.90,-30.24,-27.832,-452.637,737.793,14.70,-36.00,-38.55,17.82
17240,9.82,-2.34,-30.95,184.082,-961.914,1999.939,13.50,-36.00,-40.05,17.63
17250,1.33,15.47,-32.08,-86.914,-346.680,727.051,13.50,-36.00,-40.05,17.34
17262,-5.43,5.83,-32.39,-408.691,-270.020,668.945,14.10,-36.60,-38.85,17.82
17272,9.13,1.14,-38.38,357.910,-857.422,1214.844,13.20,-37.20,-40.05,17.29
17282,-14.02,6.39,-32.26,365.723,40.527,853.027,13.20,-34.80,-39.00,17.49
17291,6.27,2.60,-24.54,313.965,-1172.852,1577.637,12.75,-36.75,-39.00,17.34
17301,-2.11,0.24,-33.15,-117.676,-143.555,531.250,12.75,-36.75,-39.00,17.49
17311,-0.69,-3.81,-49.15,-178.223,-192.383,1949.219,11.40,-35.85,-39.15,17.68
17321,11.91,-6.70,-27.34,52.246,-1072.754,393.066,11.40,-35.85,-38.40,17.44
17333,9.08,0.38,-29.92,120.117,-301.270,1394.043,12.75,-38.40,-38.25,17.44
17343,0.43,0.31,-28.25,252.930,-641.602,-79.102,13.05,-37.05,-38.85,17.44
17353,14.10,-2.21,-24.54,-295.898,-814.453,1090.332,12.30,-36.15,-39.15,17.53
17368,-1.40,0.79,-33.15,-22.461,-1389.160,338.379,11.85,-35.85,-38.40,17.63
17377,-3.38,1.93,-51.03,-208.984,5.859,566.406,11.85,-35.85,-38.40,17.53
17387,-0.49,4.20,-34.52,395.020,-945.801,1137.695,12.45,-36.45,-38.25,17.29
17397,0.73,7.30,-46.27,15.625,-340.820,551.758,12.60,-35.85,-38.85,17.44
17409,-0.34,3.89,-28.14,593.750,-128.418,1791.016,12.30,-36.60,-39.60,17.29
17419,-6.59,3.57,-38.06,-334.473,-81.543,871.582,12.60,-37.05,-38.10,17.44
17429,13.92,2.25,-42.54,238.281,-965.332,818.359,12.60,-37.05,-38.10,17.49
17439,0.17,-3.56,-32.40,-303.711,-489.258,1992.676,12.30,-35.40,-39.15,17.63
17449,4.47,-1.97,-36.00,-125.488,-817.383,916.504,11.25,-36.45,-38.55,17.53
17459,-1.67,-8.93,-40.68,-89.844,-724.121,1220.703,11.25,-36.45,-38.55,17.49
17469,1.31,1.69,-42.11,-298.828,-445.312,542.969,11.40,-37.05,-39.15,17.34
17481,2.66,-5.61,-33.94,-104.492,6.348,1373.535,11.70,-34.80,-39.30,17.49
17491,7.34,3.15,-42.74,-377.930,-674.805,802.734,11.85,-37.80,-38.85,17.29
17501,-0.07,-1.18,-47.72,200.684,-675.781,952.637,10.35,-36.60,-39.90,17.25
17511,8.85,2.20,-36.93,-121.582,-339.844,662.598,10.35,-36.60,-39.90,17.49
17521,10.66,-2.30,-35.20,-152.344,-392.578,239.258,10.95,-36.45,-37.50,17.49
17531,1.69,-0.05,-44.74,-81.055,-474.121,426.758,10.95,-36.00,-39.75,17.44
17543,-3.51,2.69,-39.50,-407.715,-215.332,864.258,11.25,-36.45,-37.80,17.68
17553,6.58,-3.37,-49.58,-183.105,-1212.891,663.574,11.70,-36.75,-38.55,17.49
17563,-0.11,8.68,-46.56,24.414,-134.766,755.859,11.40,-36.60,-38.85,17.49
17573,6.40,0.79,-37.90,214.355,-184.570,338.379,10.65,-36.15,-39.15,17.34
17583,4.39,2.43,-47.83,-66.895,-764.160,1289.551,11.25,-37.20,-39.00,17.63
17593,0.49,1.85,-39.35,-579.590,-484.375,851.074,11.25,-37.20,-39.00,17.63
17603,8.99,9.26,-34.60,-31.738,-753.906,983.887,11.25,-37.65,-39.30,17.49
17614,7.16,-0.08,-50.04,-174.805,-500.977,876.953,11.10,-36.60,-38.85,17.68
17624,4.32,6.09,-43.15,-245.605,-1019.043,1127.930,10.95,-36.00,-38.55,17.49
17634,-0.99,0.92,-44.29,-272.949,-881.836,724.121,11.40,-37.80,-40.35,17.63
17644,-5.14,4.50,-45.89,-280.762,-548.340,1118.164,11.40,-37.80,-40.35,17.34
17654,3.55,6.16,-47.32,228.516,-879.883,713.867,10.35,-36.60,-38.85,17.53
17664,-9.60,0.76,-51.41,-614.258,-590.332,1244.629,10.95,-37.65,-39.00,17.53
17674,-3.27,6.14,-53.98,-67.871,-524.414,527.832,10.95,-37.65,-39.00,17.29
17686,4.24,0.06,-49.23,147.949,-938.477,972.656,10.35,-36.60,-38.40,17.49
