Time_ms,GyroX_degps,GyroY_degps,GyroZ_degps,AccelX_g,AccelY_g,AccelZ_g,MagX_uT,MagY_uT,MagZ_uT,Temp_C
1312,1.53,-1.08,-0.19,45.898,18.066,975.098,-25.35,-11.55,-31.95,16.58
1328,0.15,0.00,-1.50,70.801,37.598,1006.348,-23.40,-11.10,-31.95,16.48
1338,-2.21,-1.02,-7.89,144.043,26.367,1018.066,-20.55,-11.25,-29.10,16.58
1348,-4.73,0.59,3.38,87.402,33.203,1031.250,-21.00,-11.85,-28.65,16.72
1358,0.58,1.09,-0.56,71.289,15.625,1033.691,-20.55,-11.70,-29.55,16.58
1367,-2.58,2.15,-3.06,134.277,18.555,1012.207,-20.25,-12.75,-28.65,16.48
1377,2.37,-0.47,-3.04,193.359,57.129,1037.598,-20.25,-12.75,-28.65,16.43
1387,0.26,1.21,1.61,130.859,-0.488,959.961,-19.35,-13.20,-28.80,16.48
1399,0.08,-3.61,-1.50,97.168,2.930,1114.258,-17.85,-11.70,-28.05,16.62
1409,-2.77,-0.79,-11.90,191.895,73.730,891.113,-20.55,-12.45,-29.10,16.77
1419,0.62,-1.82,1.96,187.500,28.320,1055.664,-20.55,-10.05,-29.55,16.58
1429,0.41,0.48,-3.10,20.508,-39.063,1091.797,-20.25,-12.75,-30.45,16.38
1439,0.98,0.05,-0.99,257.812,33.691,985.352,-20.85,-12.45,-30.75,16.43
1449,-1.24,0.14,2.24,183.105,10.254,1011.719,-23.70,-12.75,-33.15,16.38
1458,-0.73,1.69,3.17,18.066,5.859,1012.695,-23.70,-12.75,-33.15,16.62
1470,0.82,-0.45,-0.43,326.172,21.484,928.223,-24.60,-10.65,-33.45,16.72
1480,0.77,-2.35,0.67,111.328,43.457,1041.504,-24.75,-11.25,-33.00,16.48
1490,0.87,0.34,-0.53,68.848,8.789,1154.785,-25.80,-12.15,-33.75,16.77
1500,-0.40,0.67,-0.36,387.207,-86.426,944.824,-26.70,-12.45,-32.25,16.72
1510,-0.21,-2.42,-3.82,58.594,85.449,1023.437,-26.70,-12.45,-32.25,16.38
1520,0.41,-3.69,-0.27,211.426,-54.199,931.641,-22.95,-10.65,-30.45,16.43
1530,1.07,-0.06,0.23,295.410,26.367,835.449,-22.05,-12.45,-28.35,16.58
1542,3.06,-0.13,-0.20,86.426,46.875,1246.582,-22.05,-12.45,-28.35,16.43
1552,2.51,0.94,0.20,263.184,-103.027,728.027,-19.20,-12.30,-27.15,16.43
1562,1.46,-2.08,0.75,17.090,-20.996,1402.344,-18.75,-11.85,-27.45,16.91
1572,4.13,0.52,-0.37,217.285,14.160,810.059,-18.15,-10.50,-29.10,16.62
1581,1.50,3.01,0.58,48.340,2.930,1277.344,-19.65,-11.25,-29.10,16.72
1591,1.58,0.60,-0.04,228.027,-65.430,1012.695,-19.65,-11.25,-29.10,16.38
1601,2.81,-0.75,-0.51,92.285,-90.820,1035.645,-23.25,-10.50,-33.30,16.72
1613,-2.02,-0.40,0.58,219.238,41.992,1002.930,-25.35,-9.90,-34.20,16.38
1623,1.70,3.31,-0.44,136.719,31.250,1046.387,-27.00,-12.90,-32.25,16.48
1633,-0.27,-1.47,-2.24,308.105,23.437,861.328,-24.30,-10.95,-30.75,16.58
1643,2.07,1.19,-3.85,98.145,115.723,1123.535,-21.90,-10.95,-30.75,16.72
1652,-2.51,-0.97,-3.29,261.230,-19.043,1127.930,-21.90,-11.10,-28.95,16.82
1662,3.56,2.95,2.72,219.238,-48.340,913.086,-22.05,-12.90,-29.10,16.58
1671,-0.67,-3.53,1.44,134.277,50.293,1052.246,-22.05,-12.90,-29.10,16.48
1683,-0.41,-2.43,-5.94,279.297,-127.930,1040.527,-20.55,-10.95,-29.55,16.58
1693,0.35,-2.50,-1.85,123.047,97.656,849.121,-20.55,-10.95,-29.55,16.72
1703,-1.47,-1.24,-1.04,141.602,47.852,1397.949,-24.90,-10.35,-33.15,16.77
1713,-1.49,-1.10,0.73,213.867,156.250,791.504,-26.40,-11.85,-34.20,16.77
1723,-0.27,-1.09,1.69,132.812,-49.316,878.418,-26.40,-11.85,-34.20,16.82
1733,-1.04,1.60,-3.88,306.152,-29.785,1193.359,-26.40,-10.35,-31.65,16.72
1743,2.17,2.74,-1.79,169.922,75.684,904.297,-26.40,-10.35,-31.65,16.58
1755,-4.11,-3.15,-3.58,263.672,10.254,1080.566,-19.95,-13.50,-27.90,16.48
1765,-2.90,-0.50,1.40,247.559,-13.184,838.379,-18.90,-11.70,-26.85,16.91
1775,-3.69,-1.75,-3.63,122.070,231.445,1336.914,-18.60,-10.50,-27.60,16.82
1785,-0.89,-1.85,-0.66,188.965,15.625,680.664,-21.30,-10.95,-31.80,16.72
1795,-0.31,0.51,-2.63,265.137,-45.410,934.082,-21.30,-10.95,-31.80,16.62
1805,2.28,-0.31,-4.44,222.168,-15.625,845.215,-27.15,-9.90,-34.20,16.72
1815,0.24,-0.38,-1.57,-6.836,105.957,1314.941,-25.50,-13.20,-33.30,16.48
1840,-1.62,-0.90,-2.24,312.012,-86.426,1132.324,-21.60,-14.10,-26.85,16.72
1849,-1.79,2.52,-3.91,24.414,80.566,696.777,-18.60,-11.25,-28.80,16.62
1859,0.47,0.27,-0.56,216.797,100.586,1498.535,-18.15,-10.95,-28.05,16.48
1868,1.76,0.13,-0.32,272.461,-64.453,723.145,-22.65,-9.90,-32.70,16.62
1878,-3.77,-0.92,3.73,193.848,24.902,1257.324,-22.65,-9.90,-32.70,16.58
1888,0.24,-0.22,-2.85,80.078,76.172,851.562,-25.80,-11.25,-33.30,16.58
1900,1.66,0.52,3.87,297.363,-5.859,1215.332,-25.50,-12.45,-31.80,16.48
1910,1.96,0.97,-1.76,379.883,-117.676,788.574,-25.50,-12.45,-31.80,16.72
1920,-1.97,-1.21,2.47,43.945,23.437,1063.965,-18.75,-12.30,-28.20,16.48
1930,0.52,3.79,0.83,315.918,-10.742,1059.570,-19.95,-10.35,-29.70,16.62
1939,-3.82,-1.31,6.53,225.098,49.316,602.051,-22.35,-10.95,-32.55,16.82
1949,-5.03,-0.62,0.71,189.941,24.902,1261.230,-25.65,-7.95,-34.95,16.77
1959,-1.44,-0.07,-13.41,49.316,48.340,992.187,-25.65,-7.95,-34.95,16.62
1971,0.53,0.36,-0.37,262.695,91.797,1110.840,-23.70,-11.10,-31.20,16.77
1981,-0.27,1.80,-1.83,349.121,-77.148,1022.461,-19.65,-12.15,-27.60,16.62
1991,1.69,0.23,-3.13,104.004,65.430,1180.664,-19.65,-12.15,-27.60,16.48
2001,1.15,3.62,-0.47,152.832,-122.559,1075.684,-21.90,-9.90,-31.65,16.62
2011,2.63,4.53,-1.02,318.359,-25.391,899.414,-25.80,-9.30,-34.05,16.62
2021,-0.36,-2.25,0.31,145.996,-24.414,701.660,-25.05,-10.50,-34.50,16.77
2031,-0.89,3.33,-0.50,164.551,119.629,907.715,-22.65,-11.55,-32.40,16.72
2043,2.15,-0.02,-2.11,81.543,-112.793,991.211,-22.65,-11.55,-32.40,16.82
2053,-2.45,1.11,-3.51,145.996,-105.469,1152.344,-18.75,-8.70,-28.65,16.48
2063,1.22,0.50,-3.37,151.855,72.266,898.926,-20.70,-9.15,-32.70,16.62
2073,1.76,-0.94,-3.86,74.219,38.574,1140.137,-25.05,-9.30,-33.00,16.48
2083,1.73,0.61,-3.20,219.727,-98.145,1003.418,-23.70,-10.35,-33.90,16.91
2093,-0.34,-1.73,-2.23,196.289,-22.461,1162.109,-22.05,-12.45,-31.05,16.77
2103,-2.22,0.23,-2.82,88.867,111.816,1030.273,-19.65,-11.25,-27.60,16.77
2115,-1.36,1.79,-4.92,-3.906,-15.137,1187.500,-19.20,-8.70,-30.15,16.72
2125,-3.04,-1.01,-4.56,282.715,70.313,1129.883,-24.75,-9.30,-35.25,16.62
2135,1.64,0.27,-3.70,53.711,88.379,789.551,-21.90,-11.10,-31.65,16.62
2145,1.85,-2.34,-3.70,129.883,87.402,902.344,-20.55,-10.95,-29.10,16.82
2155,1.37,-0.10,-7.45,51.270,-75.195,1128.906,-17.85,-10.50,-28.35,16.43
2165,1.22,3.00,-4.99,156.250,72.266,1089.844,-17.85,-10.50,-28.35,16.82
2174,-0.33,-1.15,-5.44,227.539,-205.566,1277.832,-24.30,-10.95,-34.50,16.96
2186,0.18,-1.92,-5.75,248.535,-125.488,1099.609,-24.90,-11.55,-31.65,16.77
2196,-2.77,-3.53,-3.61,104.004,114.258,980.469,-24.90,-11.55,-31.65,16.82
2206,-1.02,-2.36,-6.32,233.398,-67.383,1168.945,-18.90,-9.30,-29.55,16.96
2216,-0.01,-2.97,-7.56,20.020,-8.789,1397.461,-21.30,-8.85,-33.30,16.91
2226,-1.51,-1.11,-9.48,239.746,-46.875,1135.254,-26.10,-9.90,-34.95,16.62
2236,-2.02,-7.87,-9.47,325.195,51.270,866.699,-22.35,-12.15,-32.55,16.62
2248,0.43,-0.44,-10.14,330.566,-79.102,500.977,-22.35,-12.15,-32.55,16.58
2258,3.39,0.66,-6.89,194.336,-165.527,1201.660,-18.60,-10.50,-29.10,16.77
2268,1.01,-0.58,-16.46,242.187,9.766,857.910,-22.80,-9.30,-32.55,16.96
2278,-0.85,-0.70,-9.89,118.652,-140.625,1473.145,-22.80,-9.30,-32.55,16.96
2288,2.04,-1.83,-8.76,153.320,-267.578,1127.930,-20.55,-10.95,-29.85,16.77
2298,-2.05,0.60,-13.21,60.059,-65.918,942.383,-18.00,-12.30,-28.65,16.72
2308,0.66,-5.41,-8.85,245.605,48.828,1418.457,-18.90,-9.75,-30.75,16.62
2320,-3.61,-3.40,-12.11,159.668,-47.363,635.742,-23.70,-11.10,-33.45,16.82
2330,3.46,-2.66,-11.73,108.398,-77.637,1293.945,-23.70,-11.10,-33.45,16.48
2340,3.24,-1.90,-10.73,358.398,-125.488,915.527,-18.75,-11.85,-27.45,16.91
2355,1.55,1.03,-10.61,277.344,21.484,852.051,-18.60,-8.55,-29.10,16.77
2365,7.23,2.45,-10.62,118.652,-86.914,1099.609,-23.40,-11.10,-30.45,16.82
2375,4.80,-0.69,-10.40,160.156,-165.039,923.828,-19.20,-13.50,-25.95,16.77
2385,0.63,0.76,-11.79,219.727,-46.875,895.996,-18.60,-8.85,-26.85,16.38
2397,-1.60,-1.11,-14.02,148.926,-199.219,1099.121,-23.40,-9.45,-31.20,16.82
2407,-1.10,1.55,-4.38,144.531,-56.152,795.410,-23.40,-9.45,-31.20,16.72
2417,-6.19,1.11,-9.09,309.570,-80.566,938.477,-19.95,-13.05,-25.65,16.72
2427,-6.30,2.20,-14.86,325.684,-42.969,940.918,-18.15,-10.95,-26.85,16.96
2437,0.67,-1.30,-4.86,97.656,111.816,1190.918,-20.85,-10.05,-30.30,16.82
2447,-2.72,3.91,-18.27,190.918,31.738,391.113,-23.55,-11.70,-29.55,16.77
2457,2.11,2.97,-14.79,239.258,-140.625,1272.949,-21.00,-15.00,-25.95,16.77
2469,3.38,2.35,-13.12,62.012,102.539,1484.375,-18.00,-10.65,-26.70,16.82
2479,2.55,-1.95,-10.21,333.496,-226.562,1298.828,-22.80,-10.50,-29.10,16.96
2489,2.31,0.48,-17.07,9.766,-151.367,869.629,-22.80,-10.50,-29.10,16.38
2499,-1.21,2.51,-21.51,452.148,-309.082,1141.602,-19.65,-12.45,-25.35,16.96
2509,-5.69,-2.33,-13.70,39.551,-2.930,842.773,-20.10,-10.05,-27.30,16.72
2519,-3.66,-5.31,-22.53,385.742,-295.410,1030.762,-25.35,-10.65,-31.20,16.91
2529,-5.72,-1.28,-19.07,-97.168,75.195,940.430,-24.75,-12.15,-28.05,16.96
2541,-6.63,-6.34,-15.50,84.961,-105.957,1791.016,-24.75,-12.15,-28.05,16.91
2551,0.79,-3.65,-13.46,139.160,-77.637,1466.309,-20.70,-9.90,-28.20,17.01
2561,-4.32,-6.40,-18.51,32.715,-151.855,716.797,-25.05,-11.70,-33.30,16.82
2571,-0.46,-3.79,-18.61,184.570,17.578,1432.129,-25.05,-11.70,-33.30,16.58
2581,-1.07,-5.08,-20.50,78.613,-94.238,1236.328,-19.35,-10.05,-26.10,16.77
2591,0.24,-2.66,-9.95,267.578,-337.402,1200.195,-22.95,-9.45,-31.65,16.91
2605,0.60,2.56,-17.65,130.859,-52.734,948.730,-19.95,-12.30,-27.45,16.91
2615,1.99,-0.57,-23.04,372.559,-218.750,588.379,-19.95,-12.30,-27.45,16.82
2625,-5.19,-0.30,-23.31,216.797,3.418,1415.527,-24.30,-10.95,-32.25,16.96
2635,1.18,-0.86,-17.40,9.766,151.855,1105.957,-22.35,-12.15,-28.05,16.72
2645,-1.93,2.94,-23.29,285.645,20.508,770.020,-22.35,-12.15,-28.05,16.91
2655,1.72,0.70,-22.26,121.094,-209.473,966.309,-23.55,-9.75,-32.55,16.82
2665,-2.68,-3.29,-21.85,134.766,-83.496,1216.309,-23.55,-11.70,-31.05,17.01
2677,-0.24,-1.04,-22.11,157.715,-362.793,1377.441,-18.45,-10.65,-27.45,16.82
2687,1.21,-3.13,-19.98,-205.566,55.664,1648.926,-20.55,-8.55,-29.85,16.96
2697,1.08,-3.12,-19.40,152.344,-145.020,877.930,-20.55,-8.55,-29.85,16.72
2707,1.81,3.56,-20.45,311.523,-62.500,474.121,-21.00,-11.55,-29.40,16.96
2717,-3.15,-0.29,-19.30,136.719,-176.270,1187.500,-19.65,-8.55,-29.10,16.82
2727,-1.53,-5.93,-25.27,112.305,-160.156,1789.063,-22.05,-7.65,-33.75,16.72
2737,1.68,-4.20,-20.66,144.043,-150.391,1268.555,-21.90,-11.85,-30.45,17.01
2749,-0.38,-7.18,-23.78,-4.395,-174.316,1272.461,-18.90,-8.55,-28.80,16.82
2759,5.86,-2.89,-21.25,0.488,-118.652,1256.836,-21.60,-6.90,-33.00,17.01
2769,0.07,2.43,-25.52,-28.809,-96.191,1737.793,-21.90,-9.45,-31.65,16.82
2779,-2.22,5.37,-24.40,113.770,-229.492,877.930,-21.90,-9.45,-31.65,16.62
2789,2.14,9.02,-26.54,362.305,-204.590,359.863,-20.85,-7.65,-31.80,16.96
2799,4.41,1.37,-25.71,193.359,-313.965,1017.578,-22.35,-8.85,-33.00,16.82
2809,-1.66,1.06,-20.75,437.012,-379.395,596.191,-18.90,-8.85,-28.80,16.82
2821,-6.21,1.11,-27.52,220.703,-243.164,780.762,-20.85,-7.35,-31.50,16.82
2831,-3.55,-0.47,-27.69,482.422,24.414,900.391,-20.85,-7.35,-31.50,17.01
2841,-4.14,-7.37,-31.50,509.277,-192.871,1036.133,-18.15,-8.10,-28.80,16.96
2851,2.26,-5.16,-25.44,-7.812,-16.602,680.176,-19.35,-6.45,-31.50,16.91
2861,-0.92,-12.73,-25.60,213.379,-105.469,1181.641,-19.35,-6.45,-31.50,16.82
2876,5.77,-2.10,-17.96,-212.402,101.563,1033.691,-20.85,-6.45,-32.55,16.91
2885,1.27,-9.91,-32.90,233.398,-257.324,866.699,-20.85,-6.45,-32.55,16.77
2897,0.11,-4.89,-27.87,242.676,-69.824,1011.230,-18.45,-7.95,-28.95,17.10
2907,0.18,-4.27,-25.37,-149.902,-243.164,1515.137,-18.45,-7.95,-28.95,16.96
2917,-4.47,1.28,-25.92,-7.324,-109.375,1973.145,-21.45,-7.50,-34.20,16.91
2927,-7.99,-1.42,-24.02,24.414,54.688,1960.449,-18.00,-7.50,-29.40,16.58
2937,-5.22,3.63,-22.81,330.566,-87.402,1716.309,-18.00,-7.50,-29.40,17.01
2947,-5.69,2.91,-24.17,-295.410,-5.859,1999.939,-20.25,-7.50,-33.45,16.91
2957,-3.39,5.70,-25.58,249.512,-208.008,1260.254,-17.10,-6.90,-28.35,16.82
2969,2.27,8.11,-27.76,231.934,-146.484,799.316,-18.90,-5.70,-31.05,17.01
2979,0.97,7.21,-26.93,164.551,-173.828,1296.875,-20.55,-6.90,-32.55,16.82
2989,5.95,3.89,-26.75,328.125,-233.398,906.250,-20.55,-6.90,-32.55,16.77
2999,-0.50,-3.45,-25.79,209.473,-259.277,1270.508,-19.35,-5.25,-32.25,16.96
3009,-2.83,-5.52,-26.50,-2.441,-329.102,1708.496,-19.65,-6.45,-31.05,16.62
3019,-2.18,0.11,-29.15,165.039,-223.633,1008.301,-15.90,-5.25,-28.35,17.01
3029,-0.92,-8.49,-31.51,419.434,-234.863,1886.719,-19.50,-4.35,-32.70,16.91
3041,-2.17,-4.35,-29.14,86.426,26.367,374.512,-18.15,-8.10,-30.75,16.91
3051,4.18,-7.15,-30.49,260.254,37.109,1160.156,-16.80,-4.35,-29.40,16.82
3061,0.89,-4.64,-28.99,-219.727,88.867,1376.953,-19.95,-4.65,-32.70,16.82
3071,3.11,1.89,-33.71,134.277,-361.328,336.914,-19.95,-4.65,-32.70,16.91
3081,2.05,-5.16,-31.70,243.652,-93.262,1132.324,-17.10,-5.25,-31.50,16.82
3091,-2.69,0.08,-31.84,34.668,-226.074,1114.258,-19.95,-6.30,-32.40,16.58
3101,7.69,0.62,-28.77,39.063,-7.324,872.070,-17.25,-7.95,-28.95,17.01
3113,1.10,-2.11,-30.34,208.496,-377.930,1421.387,-18.75,-4.65,-32.40,16.48
3123,-1.19,-2.57,-28.24,-95.215,185.547,1115.723,-18.75,-4.65,-32.40,16.91
3133,-0.10,-2.03,-27.80,355.469,-250.488,852.051,-15.45,-7.65,-28.35,16.77
3143,-9.83,-5.90,-29.17,499.023,-367.187,1260.742,-19.50,-5.10,-31.95,16.82
3153,-6.13,-0.72,-24.13,278.320,198.730,988.281,-19.50,-5.10,-31.95,16.91
3163,-6.17,0.63,-26.62,-13.672,-234.863,717.285,-16.05,-4.65,-30.45,16.91
3175,-5.95,1.28,-21.71,293.945,52.246,1242.188,-18.15,-6.45,-33.30,16.96
3185,7.30,2.98,-28.67,-102.051,-422.852,1016.113,-16.50,-7.05,-29.70,16.77
3195,10.18,4.19,-24.53,-37.598,-129.395,1403.809,-17.10,-3.30,-31.05,16.48
3205,4.22,4.20,-26.19,-1.465,-520.020,1329.590,-17.10,-3.30,-31.05,17.01
3215,0.18,5.85,-32.73,125.488,-450.684,789.062,-15.75,-5.55,-27.15,16.82
3225,-7.20,1.73,-29.94,4.395,-575.684,1072.266,-19.65,-4.05,-31.05,16.82
3235,-13.29,0.63,-36.41,-75.684,-424.316,1078.125,-19.65,-4.05,-31.05,16.91
3247,-15.53,2.42,-36.83,-35.156,-171.387,1122.070,-18.60,-5.70,-31.05,16.77
3257,-10.16,-4.01,-32.51,243.164,-254.395,1065.430,-14.70,-6.90,-27.30,16.77
3267,0.49,-2.41,-35.74,125.977,-196.777,973.145,-17.55,-3.15,-29.70,16.82
3277,2.17,0.64,-33.18,-41.016,154.297,1167.969,-17.55,-3.15,-29.70,16.91
3287,4.46,-6.76,-36.43,16.113,-144.043,1333.008,-15.90,-3.75,-28.35,16.77
3297,5.49,-3.50,-38.18,165.039,-35.156,898.926,-17.85,-3.30,-32.25,16.91
3307,4.91,-0.15,-38.14,-36.621,-395.508,898.437,-16.05,-5.55,-28.95,16.96
3319,-4.62,-0.86,-33.01,-13.184,-1.953,937.012,-16.50,-1.95,-31.65,16.96
3329,-0.18,-3.47,-33.24,242.676,-170.410,1636.230,-17.25,-6.30,-30.45,16.96
3339,0.15,1.25,-32.05,131.836,-149.414,508.789,-14.85,-1.50,-29.70,16.91
3349,-2.96,-0.62,-31.92,-143.555,52.246,1594.727,-19.20,-4.35,-31.95,17.15
3359,1.58,1.07,-32.11,357.422,-17.578,509.766,-19.20,-4.35,-31.95,16.62
3369,4.69,7.44,-31.58,-30.273,-290.527,711.914,-18.15,-1.65,-32.25,16.82
3379,2.73,5.22,-21.10,269.043,-334.473,573.242,-16.50,-5.85,-30.90,17.15
3396,4.43,-1.31,-23.78,-50.293,-316.406,1309.570,-13.95,-2.55,-29.55,17.01
3405,3.37,7.82,-29.51,175.293,-223.633,786.133,-16.20,-3.30,-32.55,16.91
3415,0.82,-0.56,-35.10,-323.242,-326.172,1662.109,-16.20,-3.30,-32.55,16.82
3425,-6.83,1.84,-31.39,171.875,-514.648,715.820,-14.55,-1.95,-32.70,16.72
3435,-7.49,5.08,-36.82,359.375,-271.973,761.719,-14.55,-3.90,-30.90,16.91
3445,-10.50,-8.04,-33.79,128.418,-254.395,956.543,-14.55,-3.90,-30.90,16.96
3455,-4.34,-6.40,-22.78,23.437,-438.477,812.012,-16.50,-3.15,-31.65,17.01
3467,-3.26,-7.24,-29.81,-163.574,-266.113,1133.301,-15.30,-2.25,-31.65,16.96
3477,2.89,-9.53,-34.09,167.480,-324.219,939.453,-13.35,-3.90,-30.90,16.96
3487,8.51,-4.41,-19.06,-38.574,-156.250,1602.539,-13.35,-3.90,-30.90,17.15
3497,-5.03,-6.92,-73.08,166.992,-602.539,703.613,-15.45,-5.25,-30.75,16.91
3507,2.59,-3.26,-43.51,-62.500,-42.969,1138.672,-12.30,-2.25,-28.95,16.72
3517,8.33,-4.03,-37.77,77.148,-673.340,611.328,-12.30,-2.25,-28.95,16.77
3527,-0.03,-2.60,-21.98,160.645,-236.816,1170.898,-13.80,-3.45,-27.45,16.91
3539,-1.02,-2.69,-56.87,51.270,-175.293,1177.246,-14.40,-2.10,-33.00,16.82
3549,-8.73,-6.44,-32.67,-47.852,-176.758,648.926,-14.40,-4.50,-29.85,17.01
3559,1.14,-0.37,-37.90,30.273,184.570,872.559,-14.55,-1.95,-30.15,16.82
3569,2.50,-6.22,-21.05,-105.957,-567.383,1117.676,-14.55,-1.95,-30.15,16.96
3579,1.17,3.91,-42.95,-283.691,-73.730,980.957,-13.20,-2.55,-32.25,17.10
3589,0.16,4.49,-28.69,-392.578,164.062,868.164,-12.60,-0.30,-31.65,16.91
3599,1.84,1.92,-28.49,-418.945,-643.555,1360.840,-12.60,-0.30,-31.65,16.96
3611,3.50,4.11,-42.02,231.934,-429.199,1751.465,-12.45,-0.90,-30.75,16.77
3621,-0.28,-1.78,-32.43,-202.148,-582.520,1565.430,-13.20,-0.15,-32.55,16.96
3631,1.92,-2.44,-39.82,-156.738,-487.305,1412.598,-12.75,-0.45,-31.80,17.10
3641,-5.16,-1.52,-38.25,29.785,-74.219,406.250,-12.60,0.00,-31.95,16.82
3651,-6.37,-3.92,-41.78,68.359,-97.168,162.598,-12.60,0.00,-31.95,16.96
3661,4.11,-8.58,-37.13,-34.180,-155.273,643.555,-12.30,-0.30,-31.20,17.01
3671,4.00,-5.82,-43.19,17.090,-283.691,624.023,-12.30,0.30,-30.90,16.91
3683,3.76,-7.37,-38.47,-182.129,246.094,1009.277,-11.40,-0.30,-31.65,16.82
3693,13.20,-7.13,-36.98,-86.914,-501.465,1289.551,-10.05,-0.45,-31.80,16.96
3703,6.85,-6.44,-40.10,-270.508,-339.844,1250.000,-12.30,0.30,-31.20,16.91
3713,1.60,1.42,-35.08,39.551,-230.957,553.223,-12.60,0.00,-31.65,16.91
3722,0.26,-5.06,-33.99,-380.371,79.102,1653.809,-12.30,0.00,-33.15,16.82
3732,-5.12,-2.27,-33.18,-32.227,-692.871,821.289,-12.30,0.00,-33.15,16.62
3744,-17.25,2.15,-36.95,21.484,-172.852,1165.527,-11.85,0.75,-31.95,16.91
3754,-3.55,1.94,-34.20,5.371,-39.063,755.371,-10.65,-0.75,-31.65,16.77
3764,-6.16,6.27,-32.32,-395.996,-207.031,1954.102,-11.85,0.75,-32.40,16.62
3774,-0.63,2.12,-35.34,-157.715,-34.180,1094.727,-11.85,-0.30,-34.20,17.01
3784,4.05,1.31,-38.14,-57.617,-319.336,1129.395,-11.85,-0.30,-34.20,16.96
3794,6.22,7.29,-26.73,-93.262,-408.691,502.441,-12.00,0.45,-33.30,17.01
3804,-4.62,0.86,-35.95,-36.621,-321.777,1055.664,-11.40,0.00,-33.15,16.91
3816,-6.90,0.08,-44.45,136.719,-709.473,814.453,-11.40,0.00,-33.15,16.77
3826,-12.30,2.05,-49.24,-410.156,-79.102,1101.074,-10.65,1.05,-32.70,17.01
3836,-9.23,-2.66,-34.03,181.152,-485.840,1081.055,-10.05,0.15,-33.30,16.72
3846,-0.82,2.46,-34.21,-330.566,-108.887,759.766,-10.35,0.30,-32.70,16.82
3856,-1.84,-1.65,-37.74,-87.891,-311.035,1114.258,-9.75,0.45,-34.50,17.01
3866,1.79,-0.53,-43.30,-219.238,249.512,1234.375,-9.75,0.45,-34.50,16.82
3876,8.21,-5.83,-14.91,-330.078,-314.941,977.051,-10.05,0.90,-32.55,16.96
3888,1.34,-1.02,-32.70,-394.043,-196.777,1139.648,-9.15,0.75,-34.95,17.10
3898,11.53,-0.15,-53.33,206.055,-402.832,75.195,-8.70,1.05,-33.15,17.10
3912,4.86,3.29,-31.05,47.363,-657.715,1023.437,-7.65,1.05,-33.90,17.10
3922,-2.76,1.39,-32.21,357.422,-467.773,974.609,-7.80,0.90,-33.30,16.96
3932,-7.92,2.68,-35.51,-137.695,-83.984,414.062,-9.15,0.75,-33.45,16.91
3942,-10.73,-0.67,-31.61,-112.793,-200.684,1062.500,-9.15,0.75,-33.45,17.01
3954,-0.63,-0.01,-31.66,222.168,-168.457,1098.633,-7.20,0.75,-33.90,17.01
3964,5.29,-3.41,-31.50,-86.914,-41.016,1159.668,-9.15,0.30,-33.90,17.15
3974,9.15,-2.79,-29.31,-95.215,-151.367,1049.805,-8.25,0.45,-32.25,17.10
3984,14.08,2.34,-33.20,-183.105,-99.609,1158.691,-7.95,0.75,-34.65,17.10
3994,15.47,1.90,-33.50,-33.691,-564.941,520.508,-6.60,-0.15,-32.55,16.72
4004,2.83,-2.02,-28.06,-268.066,125.977,1655.273,-6.60,1.35,-34.05,16.91
4014,1.85,-5.82,-30.93,97.168,-362.793,836.914,-7.20,0.00,-33.15,16.91
4026,-3.05,4.46,-27.16,25.879,-446.289,1539.063,-7.20,0.00,-33.15,17.01
4036,-7.89,-0.18,-16.90,-99.121,288.574,950.195,-6.90,0.30,-33.90,16.96
4046,2.31,-1.77,-35.79,-134.766,-538.086,699.219,-6.60,0.15,-32.25,16.96
4056,-3.17,-1.86,-23.29,-309.082,461.426,1737.305,-7.20,1.50,-33.15,16.82
4066,6.52,-9.98,-33.69,184.082,-161.621,1281.250,-6.45,-0.75,-32.70,16.72
4076,9.88,-5.03,-31.92,-80.078,-5.371,1312.012,-6.45,-0.75,-32.70,16.72
4086,11.82,-9.05,-34.53,57.129,-665.527,1746.582,-7.65,1.50,-32.40,17.10
4098,2.18,-6.11,-31.49,25.879,-589.844,1104.004,-6.45,1.50,-31.65,16.77
4108,-9.02,1.84,-39.19,-242.676,-141.113,707.031,-6.45,1.05,-32.40,17.15
4118,-10.66,-1.39,-27.01,154.785,-287.598,1190.918,-7.80,2.10,-34.05,16.96
4128,1.03,4.29,-2.89,-209.961,166.992,525.879,-7.20,0.75,-32.40,17.01
4137,31.01,8.91,41.55,-52.246,-113.770,769.531,-7.20,0.75,-32.40,16.77
4147,1.93,1.54,-23.05,59.082,-102.539,486.328,-6.30,2.55,-31.80,16.82
4156,11.37,7.25,-16.86,55.176,72.754,535.156,-6.30,2.55,-31.80,16.96
4167,-6.16,3.54,-3.14,29.785,-283.203,740.234,-7.35,0.45,-31.50,17.15
4177,5.77,2.58,-27.82,-185.059,-257.324,1311.035,-7.05,2.10,-34.05,16.96
4187,2.15,2.34,-28.57,182.617,-536.133,660.156,-7.05,2.10,-34.05,17.10
4197,-0.71,4.34,-38.96,116.699,17.578,1041.504,-6.45,2.70,-34.95,16.72
4206,-0.44,2.24,-18.76,-249.023,-211.426,1359.863,-6.45,1.50,-33.90,16.77
4216,3.82,-3.86,-28.12,186.035,-2.441,689.941,-4.95,1.05,-33.90,16.96
4226,9.83,-5.63,-25.93,-164.062,-223.145,1205.566,-6.45,1.95,-34.65,16.91
4238,7.10,-1.10,-24.09,-15.625,-278.320,1284.668,-5.85,2.85,-34.50,17.01
4248,6.25,-5.06,-12.48,-99.609,-34.180,1190.918,-5.70,0.30,-34.20,17.15
4258,1.57,-9.50,-26.82,68.848,-353.027,1541.992,-3.75,1.95,-34.65,16.96
4268,-2.38,-2.48,-7.40,-18.066,25.879,584.961,-5.55,0.45,-33.75,16.91
4278,-5.57,-1.59,-14.43,-176.270,81.543,1455.078,-3.75,0.30,-33.15,17.01
4288,-1.47,-1.95,-21.11,-11.230,24.414,459.473,-5.10,0.90,-34.05,17.29
4298,3.75,-1.41,-17.18,153.809,78.613,1341.797,-4.20,1.05,-33.15,17.01
4310,-0.75,-2.78,-23.18,92.285,-394.531,1238.281,-4.20,1.05,-33.15,17.29
4320,4.25,6.89,-20.02,7.812,69.336,562.012,-3.00,1.95,-33.45,16.96
4330,3.71,1.21,-28.24,-72.266,-234.863,1999.939,-4.20,1.95,-33.45,16.91
4340,4.54,5.66,-14.74,-38.574,-222.168,431.641,-5.55,0.90,-34.80,17.01
4350,1.01,-2.81,-26.40,-113.281,101.563,1666.992,-2.85,0.15,-34.05,16.77
4360,5.62,-2.69,-21.47,150.391,-211.426,1296.387,-2.85,0.15,-34.05,16.96
4370,-6.73,0.56,-14.76,-143.555,-88.379,740.723,-4.50,1.50,-34.65,17.10
4382,-8.10,-0.34,-25.53,161.621,-124.023,656.738,-4.95,3.15,-35.70,16.96
4392,-4.35,-5.04,-23.64,-222.168,-289.551,1830.566,-4.95,3.15,-35.70,17.25
4402,-8.38,-1.65,-23.42,-19.531,-159.180,241.211,-3.60,2.10,-33.75,17.10
4412,-7.67,-6.85,-26.82,-102.051,182.129,1766.602,-4.35,1.65,-36.75,16.91
4426,3.95,-9.98,-26.52,82.520,-61.523,906.738,-2.55,1.05,-33.90,16.82
4436,17.73,-6.62,128.83,156.250,194.336,1005.859,-2.55,2.25,-38.40,17.10
4446,-7.25,-2.50,44.92,-75.684,-330.078,1096.680,-2.55,2.25,-38.40,17.01
4456,-0.85,-1.97,-41.92,107.910,-167.969,513.184,-0.90,1.65,-35.55,17.10
4468,-1.47,-3.11,-24.62,52.246,-154.297,558.105,-2.10,0.45,-36.75,17.01
4478,-5.53,-3.94,-22.66,166.504,-397.949,1144.531,-2.10,1.35,-34.80,17.10
4488,-6.25,3.34,-23.73,-119.629,191.895,895.996,0.00,1.05,-32.70,17.01
4498,1.02,-3.27,-20.17,13.184,62.012,600.098,0.00,1.05,-32.70,16.77
4507,-0.11,7.03,-18.77,-25.391,-41.504,265.625,-1.05,3.15,-33.90,16.91
4517,3.28,-0.87,-26.28,-103.516,154.297,1328.613,-1.65,0.45,-32.25,17.29
4527,9.39,6.37,-14.57,58.594,-41.504,990.234,-1.65,0.45,-32.25,17.15
4539,10.07,-1.65,-22.31,-112.793,-439.453,1096.191,-0.90,2.10,-33.30,17.10
4549,8.47,1.17,-21.37,-27.832,-524.414,1137.695,-1.65,1.35,-33.75,17.10
4559,-1.34,-3.50,-21.72,-56.641,-541.504,1428.711,0.30,1.95,-32.40,16.91
4569,-6.18,-5.03,-26.73,-21.973,-424.805,1509.277,0.30,1.95,-32.40,16.77
4579,-6.80,-7.55,-23.15,65.430,-70.801,861.816,-0.75,0.30,-32.70,17.10
4589,-2.48,-8.24,-26.33,-94.727,-220.703,1328.613,-1.50,1.95,-33.15,17.49
4599,15.91,-3.67,-19.69,27.832,-148.926,782.715,-1.50,1.95,-33.15,16.96
4611,9.39,-1.95,-32.18,-98.145,-202.637,1132.324,-1.20,2.10,-32.55,17.10
4621,8.76,-0.54,-26.85,-258.789,-250.488,850.098,-1.50,0.00,-32.70,17.15
4631,5.01,-2.66,-22.46,336.914,-341.797,1476.074,0.30,2.70,-31.95,16.91
4641,0.53,3.38,-70.10,-145.020,-530.762,1325.195,-1.65,1.65,-34.50,17.01
4651,3.63,3.82,-24.48,-186.523,-416.016,1143.555,-1.65,1.65,-34.50,16.82
4661,-4.05,8.82,-46.71,132.812,-565.430,489.258,-2.10,3.30,-33.75,17.10
4671,-7.44,-2.27,-108.05,-201.172,-471.191,1569.824,-0.30,0.75,-30.90,17.29
4683,-10.82,0.92,-38.95,13.184,-270.020,1884.277,-0.30,0.75,-30.90,16.96
4693,-29.34,4.84,-41.01,-38.574,-244.629,433.105,-1.20,0.90,-32.25,16.96
4703,-13.49,0.21,-14.74,65.430,-40.527,1201.172,-0.15,3.30,-33.00,16.96
4713,-5.56,2.88,-24.64,-32.715,130.859,1029.297,-1.05,2.25,-32.70,17.25
4723,-1.98,4.87,-29.24,-137.207,-8.789,850.098,1.50,2.70,-31.65,16.96
4733,-3.18,3.95,-23.81,-13.184,-196.289,423.340,1.50,2.70,-31.65,16.62
4743,-12.05,2.44,-25.92,-155.762,100.098,1040.527,0.30,0.00,-31.20,17.10
4754,-11.44,3.79,-37.71,-304.687,31.738,1035.645,-0.75,3.15,-34.65,17.01
4764,-16.28,-1.37,-19.15,119.629,-262.695,887.207,0.75,0.75,-32.40,16.77
4774,-11.34,-2.56,-5.88,-360.840,-106.934,733.887,0.30,3.15,-33.15,17.10
4784,-13.18,2.24,-34.21,73.242,-148.926,1236.816,0.45,0.45,-31.80,16.96
4793,-16.15,3.11,-27.24,88.867,-119.629,763.184,1.65,1.65,-33.00,16.82
4803,-4.12,2.22,-30.43,209.473,-171.875,872.559,-0.15,0.90,-33.00,17.01
4813,-0.56,-7.44,-4.77,243.652,-294.922,1521.973,-0.15,0.90,-33.00,17.10
4825,-10.95,-13.64,-16.66,339.355,-89.355,1938.965,1.20,0.45,-33.75,17.25
4835,-9.50,-9.12,-19.45,-598.633,684.082,1132.813,2.25,2.25,-31.65,17.10
4845,11.84,-18.50,-14.24,309.082,-364.258,898.926,0.30,0.75,-32.70,17.10
4855,30.82,-16.68,-19.83,157.715,-434.082,1999.939,1.80,-0.75,-31.95,16.96
4865,14.58,-12.95,-28.34,-93.750,-870.117,1220.703,1.80,-0.75,-31.95,16.96
4875,6.26,-11.16,-24.31,174.805,-332.031,959.473,2.10,0.45,-31.80,17.15
4884,-2.07,-16.76,-23.08,-150.879,-77.637,1675.781,-0.15,0.90,-34.05,16.96
4896,-3.95,-7.07,-23.74,-168.945,-328.125,391.602,-0.15,0.90,-34.05,17.10
4906,-4.62,-9.82,-40.53,-19.043,-302.734,91.309,0.90,1.35,-33.75,17.15
4916,8.62,-15.80,-24.45,141.602,-168.945,1457.520,1.80,-0.75,-31.20,17.01
4926,1.12,-13.63,-21.43,-56.641,224.121,1347.656,1.50,3.15,-34.20,16.96
4940,-1.67,-23.30,-19.12,593.750,451.172,1855.469,0.00,-0.75,-31.65,17.10
4950,4.66,-16.49,-16.80,98.633,321.289,1319.824,1.80,1.05,-31.95,17.01
4962,7.74,-22.23,-15.85,-200.684,-401.855,547.852,-0.15,0.90,-33.00,16.91
4972,-6.49,-13.24,-32.78,21.484,-645.020,67.871,0.15,0.15,-32.55,17.10
4982,-17.89,-11.56,-20.25,213.867,-420.410,430.664,0.15,1.65,-33.30,16.91
4992,-15.62,-15.60,-27.23,540.039,-127.930,502.441,0.00,0.00,-31.95,16.82
5002,-16.49,-20.37,-23.60,-84.473,-60.547,895.996,0.45,2.10,-33.75,16.82
5012,-12.95,-16.66,-40.96,-461.914,-139.160,944.824,0.45,-0.45,-31.05,16.77
5022,-11.62,-14.21,-18.82,93.750,-545.898,548.828,0.45,-0.45,-31.05,17.01
5034,-2.09,-1.02,-32.47,-249.023,-468.262,375.977,0.15,0.15,-33.00,17.25
5044,-9.48,-7.79,-33.91,201.172,-674.316,489.258,1.65,1.65,-32.25,17.25
5054,-12.27,-7.62,-29.15,263.184,-597.168,636.230,0.75,-0.75,-32.70,17.01
5064,-10.11,-11.79,-33.05,-43.457,-417.480,1411.133,0.90,0.90,-33.30,17.10
5074,-4.85,-6.07,-27.51,-337.891,-81.543,1999.939,0.90,0.90,-33.30,16.96
5084,6.40,12.50,-33.53,-369.629,-305.664,1426.758,0.45,0.45,-31.50,16.91
5093,0.37,7.17,-38.79,-422.363,-309.082,1770.508,-0.75,0.75,-34.65,17.01
5105,8.60,21.40,-35.58,-5.859,-29.785,542.480,-0.75,0.75,-34.65,17.15
5115,13.67,21.36,-32.64,-426.270,-401.367,770.020,-0.90,0.45,-34.80,17.01
5125,6.46,22.57,-29.85,350.098,-727.051,597.168,0.75,0.00,-32.70,17.01
5135,-1.05,12.50,-34.15,598.145,-656.250,1070.313,0.30,1.95,-34.20,16.91
5144,-10.69,6.75,-26.02,13.672,29.785,1101.074,1.50,-0.75,-33.90,16.82
5154,-18.96,2.37,-37.95,-72.266,-196.289,503.906,1.50,-0.75,-33.90,17.01
5164,-13.07,-1.20,-38.23,357.422,-434.570,1183.594,2.40,-1.35,-33.30,17.25
5176,-2.07,-2.69,-30.14,-257.324,-189.453,244.629,2.40,1.35,-34.80,17.01
5186,16.18,-2.78,-33.76,123.047,-505.859,801.758,2.25,-0.75,-32.70,17.25
5196,11.94,1.50,-28.40,32.715,261.230,548.340,2.25,1.50,-33.90,16.96
5206,8.27,-0.72,-28.43,43.945,21.484,559.082,1.50,0.30,-32.70,17.25
5215,7.78,0.47,-29.59,301.758,-855.957,203.613,3.45,1.50,-32.70,16.91
5225,-6.50,2.95,-29.10,-1.953,-524.902,502.441,3.45,-0.30,-33.45,17.01
5235,-7.17,2.65,-35.02,-363.770,-71.289,573.242,3.45,-0.30,-33.45,17.10
5247,6.83,-2.85,-30.62,344.238,-571.289,1314.453,1.65,0.15,-34.50,17.10
5257,-4.57,9.34,74.73,-397.461,-424.805,565.430,3.90,1.65,-34.50,17.01
5267,-1.24,-4.96,-33.10,198.242,-182.617,1086.914,3.15,-0.45,-34.80,17.01
5277,-8.99,4.10,-39.27,-208.496,-819.824,608.887,4.95,0.75,-31.95,16.96
5287,-7.16,8.08,-34.86,-39.063,-230.957,656.250,4.95,0.75,-31.95,16.96
5297,3.88,1.20,-42.39,293.457,-516.602,987.305,5.25,0.30,-32.70,16.96
5306,4.92,5.26,-22.95,-301.758,-233.398,1348.633,3.00,-0.75,-34.65,17.10
5317,7.89,2.97,-30.84,143.066,-540.039,1322.754,3.00,-0.75,-34.65,17.15
5327,5.02,3.61,-35.32,-116.211,-726.562,1399.902,3.75,1.50,-35.40,17.01
5337,2.22,1.61,-36.37,195.801,-987.305,739.746,6.30,0.45,-33.75,17.01
5346,-10.11,1.24,-49.73,24.902,43.457,1027.832,3.90,0.45,-35.25,16.77
5356,0.60,-3.90,-41.50,-109.863,214.355,1416.016,6.45,0.75,-32.70,16.91
5366,-0.85,-4.08,-37.76,-144.531,-107.910,976.562,6.45,0.75,-32.70,17.10
5376,8.61,-0.72,-39.05,177.246,-373.047,1029.297,6.15,-0.30,-33.15,17.01
5388,-6.89,3.78,-44.27,-229.004,-566.895,689.453,5.70,1.05,-34.95,16.91
5398,-4.98,-0.04,-42.83,-88.379,-561.035,327.637,5.70,1.05,-34.95,16.82
5408,-3.18,-1.71,-29.21,45.410,-284.668,1342.285,6.15,0.75,-34.65,16.96
5418,-3.98,-6.95,-45.66,38.574,-6.836,1423.828,7.20,-1.05,-33.45,17.15
5428,-5.31,-1.89,-45.60,-132.812,-70.801,1331.543,6.15,0.30,-33.15,17.01
5438,3.20,-1.64,-37.38,-62.012,56.152,917.969,8.25,-0.90,-33.30,17.01
5454,1.24,3.65,-39.32,170.898,-395.020,1318.848,7.65,-0.30,-32.70,17.15
5464,0.02,6.68,-40.68,-17.578,-426.758,625.000,7.35,0.45,-35.25,17.10
5474,1.35,-1.05,-43.23,438.965,-547.363,736.328,7.05,-2.10,-32.55,17.01
5484,-2.53,0.60,-31.45,232.910,-755.371,824.707,7.95,1.05,-33.90,17.10
5494,-6.96,-1.16,-38.84,109.375,-608.398,1573.730,7.95,1.05,-33.90,17.01
5504,-13.65,1.07,-38.18,-237.793,-264.648,737.305,7.05,0.45,-34.05,17.10
5514,-12.32,-1.34,-49.11,-184.570,-214.844,976.074,9.30,-1.65,-33.75,17.01
5526,4.06,-0.16,-41.45,22.949,-4.883,779.297,9.30,-1.65,-33.75,16.96
5536,11.25,-1.41,-38.06,-333.984,-48.340,648.926,9.60,-2.70,-33.45,16.91
5546,15.80,5.24,-37.69,24.902,-329.590,956.543,9.75,0.90,-35.25,17.29
5555,6.04,4.08,-17.28,294.434,-900.391,949.707,8.70,-1.95,-33.15,17.01
5565,-1.13,3.95,-54.31,233.887,-1020.996,1182.617,9.30,0.90,-34.50,17.15
5574,-6.31,3.37,-40.98,-72.754,-191.406,1146.973,9.30,0.90,-34.50,17.25
5584,-1.30,1.91,-45.32,-116.211,-143.555,1399.414,9.90,0.75,-35.70,17.01
5594,1.85,4.68,-38.68,-210.449,-291.992,1460.449,10.35,-1.50,-33.15,17.15
5606,2.87,-2.04,-46.47,59.570,-637.207,1112.305,10.35,-1.50,-33.15,17.15
5616,0.24,-1.76,-37.95,-151.855,-467.773,523.926,11.40,-1.95,-33.90,17.01
5626,11.50,0.05,-46.78,7.812,-455.078,1244.141,9.75,-1.35,-34.50,17.01
5636,9.35,-1.57,-43.41,-242.187,-685.547,1490.234,10.50,-2.55,-33.30,16.82
5646,5.10,-1.65,-44.34,-399.414,-415.039,1066.406,11.70,1.35,-34.80,17.25
5656,2.20,-4.34,-43.95,-14.160,-325.195,1750.488,11.70,1.35,-34.80,17.15
5668,4.43,-2.83,-48.21,61.035,-674.805,1029.297,11.10,0.30,-33.90,17.10
5678,-3.53,-0.44,-45.93,-160.645,-395.508,925.781,10.50,-3.30,-33.00,16.96
5688,-0.22,1.25,-39.30,-225.586,-496.582,680.664,9.75,0.45,-35.25,17.10
5698,-3.12,-1.93,-46.87,-76.660,-89.355,691.895,12.00,-2.85,-33.30,17.25
5708,3.21,3.74,-41.56,-276.367,-40.039,335.937,10.95,-0.15,-35.25,16.96
5718,-0.53,3.76,-50.81,135.742,305.176,883.789,11.10,-2.70,-31.95,16.91
5728,3.84,-6.02,-38.35,7.812,-791.504,995.117,11.10,-0.30,-35.70,16.96
5740,-3.10,-12.05,-46.82,231.934,-512.695,856.445,11.10,-0.30,-35.70,16.96
5750,-1.86,-2.08,-46.99,-53.223,143.555,871.094,11.40,-1.50,-35.70,17.10
5760,-4.78,-0.92,-42.53,-101.563,363.770,923.828,13.35,-2.25,-33.45,16.96
5770,-4.06,-1.37,-47.06,-85.449,250.488,1017.090,10.50,-1.35,-34.80,17.01
5780,1.92,-2.92,-42.98,156.738,-809.082,1585.449,13.05,-1.95,-32.40,17.15
5790,0.70,-5.05,-38.21,180.176,-244.141,1587.891,13.05,-1.95,-32.40,16.96
5800,-8.59,-2.94,-39.98,-266.113,-291.016,1005.859,13.35,-2.25,-32.70,17.10
5812,1.07,-1.63,-44.42,-4.395,-481.934,1115.234,12.30,-3.45,-35.70,16.77
5822,-0.79,3.38,-43.02,69.824,-754.883,1329.102,12.60,-4.65,-34.95,17.01
5832,-0.26,0.57,-44.69,-83.496,-265.625,522.949,13.80,-1.50,-32.70,17.15
5842,1.12,1.10,-46.83,-122.070,-137.695,1060.059,13.80,-4.65,-33.90,17.01
5852,-1.66,-1.09,-50.48,-229.492,-288.086,1260.742,14.70,-2.10,-34.50,17.10
5862,-0.63,-2.17,-39.33,217.285,-662.598,953.613,14.70,-2.10,-34.50,16.91
5872,1.82,1.98,-37.09,99.121,-525.879,1003.906,14.70,-1.35,-35.55,16.91
5885,0.65,0.84,-39.28,58.105,-220.215,1660.156,14.40,-4.95,-33.30,17.25
5895,0.73,3.95,-45.21,-186.523,-147.949,971.191,13.80,-1.05,-36.15,17.01
5905,-3.37,0.60,-41.31,-300.293,-347.656,1284.668,15.90,-4.95,-34.05,16.72
5915,3.98,2.29,-41.72,-69.824,-462.402,1063.965,13.80,-3.45,-35.40,17.15
5925,3.20,-3.57,-44.30,295.898,-657.715,1958.984,15.75,-5.10,-33.15,17.25
5935,1.69,-3.80,-39.61,-98.145,-327.148,1374.023,14.55,-3.45,-36.15,17.10
5945,-0.82,-2.53,-54.35,-451.172,-356.445,1147.461,14.55,-3.45,-36.15,17.25
5957,8.36,4.34,-43.57,-128.906,162.109,936.523,14.40,-4.05,-35.55,17.01
5979,-6.24,6.16,-45.56,32.715,-695.312,382.812,16.50,-5.10,-35.40,17.10
5989,-10.24,5.27,-50.18,-349.609,-582.520,1593.750,16.20,-1.35,-34.80,17.01
5999,5.74,4.60,-44.65,91.309,-840.820,1238.281,16.20,-1.35,-34.80,17.10
6008,-8.79,7.21,-52.59,-107.422,-353.027,1230.957,15.90,-4.05,-34.80,17.25
6018,3.50,-1.19,-41.47,490.234,-583.008,83.008,16.80,-5.85,-34.65,17.01
6028,-0.82,-1.15,-51.71,-53.711,-231.445,542.969,16.80,-5.85,-34.65,17.25
6040,-3.50,1.34,-54.71,-24.414,-624.023,847.656,18.00,-4.65,-33.15,17.10
6050,-4.60,0.89,-51.21,-75.684,-784.180,726.074,16.05,-6.30,-35.70,17.15
6060,-6.73,0.69,-43.56,-24.414,-251.465,1762.695,17.85,-4.05,-33.75,17.25
6070,0.48,-7.62,-44.13,-129.395,-239.746,854.004,16.80,-7.50,-35.70,17.01
6080,-7.94,-0.39,-47.05,166.992,-257.812,785.645,16.80,-7.50,-35.70,16.96
6090,3.73,1.85,-39.81,233.398,-725.586,1014.160,16.65,-6.15,-34.80,17.01
6099,-2.82,4.34,-44.96,156.250,-599.121,921.875,16.50,-4.35,-34.95,17.25
6111,0.71,2.38,-45.91,-59.570,-713.867,1538.574,16.50,-4.35,-34.95,17.25
6121,6.43,6.68,-26.68,-98.633,-375.488,1038.574,18.60,-5.25,-35.25,17.15
6131,4.65,6.61,-55.05,127.930,-585.937,685.547,18.60,-5.25,-35.25,17.01
6141,6.02,-1.80,-44.18,-60.547,-485.840,1999.939,18.90,-7.95,-35.40,17.25
6151,5.18,0.77,-32.22,-129.883,-390.137,1134.277,18.90,-4.50,-35.25,16.82
6161,-3.98,-6.67,-61.41,132.812,-827.148,1336.914,18.90,-4.50,-35.25,17.25
6173,-2.23,1.76,-36.75,323.730,-922.852,1385.254,19.65,-7.35,-35.25,16.77
6183,-0.38,2.91,-40.08,-341.797,-326.660,875.000,17.85,-5.70,-36.75,17.10
6193,-1.44,1.33,-50.46,54.199,-144.531,1005.859,18.90,-5.70,-34.05,17.10
6203,-0.11,5.76,-43.55,-103.516,-374.023,1132.813,18.75,-7.05,-36.60,17.10
6213,7.44,-0.35,-52.65,-5.859,-441.895,1032.715,18.75,-6.30,-35.40,17.15
6223,5.27,3.34,-43.39,105.957,-411.133,818.359,18.45,-9.15,-36.15,16.96
6233,10.02,-0.21,-38.17,363.281,-548.340,813.477,18.45,-9.15,-36.15,16.91
6245,3.18,-4.38,-45.98,61.523,-627.441,1430.176,20.25,-7.95,-35.70,16.91
6255,-7.63,-5.15,-50.44,-12.695,-291.504,1126.465,18.90,-7.65,-36.30,16.96
6265,-8.32,-4.91,-44.23,379.395,45.898,685.059,19.50,-7.50,-35.40,17.01
6275,-11.19,-2.47,-42.11,54.199,-356.934,1057.617,19.35,-10.05,-36.00,17.15
6285,-4.61,-4.91,-44.09,367.187,-583.008,577.148,19.35,-10.05,-36.00,17.01
6295,-3.24,-5.32,-56.05,-178.711,-454.102,1272.949,19.65,-10.50,-36.00,16.96
6305,-2.02,-8.18,-48.81,160.645,-367.187,476.074,18.45,-6.30,-35.40,17.10
6317,1.60,-0.67,-39.86,93.750,-520.508,1069.824,18.45,-6.30,-35.40,17.01
6327,3.79,0.53,-49.93,-206.055,-192.383,870.117,18.75,-7.95,-37.35,16.96
6337,-7.67,-3.03,-44.75,-301.758,-248.047,1707.031,21.30,-7.65,-34.50,16.77
6347,-5.77,-7.88,-40.70,207.520,-260.254,613.770,19.95,-10.65,-34.95,17.01
6357,-0.34,-8.76,-41.31,44.922,-467.285,1294.434,20.25,-6.75,-37.35,17.25
6367,1.83,-5.63,-42.87,518.555,-564.453,733.398,20.25,-6.75,-37.35,17.25
6377,0.67,-1.20,-34.00,-186.035,-444.824,1017.090,18.90,-8.85,-36.30,17.01
6389,7.15,-7.62,-36.58,-24.902,-323.730,1103.516,21.45,-9.15,-34.65,16.91
6399,7.82,2.64,-44.40,39.551,-856.934,652.344,19.65,-11.25,-36.30,17.15
6409,11.04,-2.17,-33.75,85.938,-537.109,1252.930,19.95,-7.50,-36.15,17.25
6419,1.46,0.40,-42.93,-157.715,-465.332,1467.285,23.40,-11.55,-35.70,16.62
6429,15.18,-4.87,-42.60,125.488,-131.836,1492.676,20.70,-7.50,-36.15,17.25
6439,4.56,2.38,-37.92,249.512,-503.906,787.109,21.60,-10.05,-35.55,17.15
6448,10.07,8.98,-39.69,332.520,-349.609,566.406,21.60,-10.05,-35.55,16.91
6460,0.73,8.43,-37.40,385.254,-584.473,422.852,22.20,-9.15,-35.70,17.01
6470,-5.35,5.82,-38.98,69.336,-482.422,416.016,20.55,-12.15,-36.00,17.01
6480,-6.00,5.89,-46.70,281.738,-641.602,470.215,20.70,-8.70,-37.35,17.10
6496,-6.89,0.14,-39.65,-287.598,-328.613,1679.199,22.20,-10.35,-35.70,17.15
6505,-3.54,5.14,-25.71,511.719,-507.324,62.500,21.45,-9.15,-36.90,17.10
6515,2.02,4.05,-46.06,43.457,-714.844,1582.031,21.60,-12.90,-36.00,17.15
6524,-2.98,8.53,-45.14,63.477,-622.559,887.695,21.60,-12.90,-36.00,17.01
6535,-10.00,-0.26,-38.63,57.617,-145.996,1317.383,22.05,-11.70,-36.30,16.77
6545,-5.98,0.67,-58.69,-60.547,-398.926,1006.348,21.30,-12.15,-37.50,16.77
6555,-1.89,0.92,-34.50,-136.719,-164.062,1206.543,23.40,-10.35,-37.65,17.15
6565,-1.31,3.16,-55.02,-54.199,-232.422,1999.939,22.05,-13.20,-37.05,17.34
6575,-5.68,4.82,-36.71,103.027,-301.758,1520.996,22.05,-13.20,-37.05,17.15
6585,2.34,3.90,-57.21,236.328,-603.516,591.797,22.80,-12.90,-36.75,17.01
6594,-11.63,10.60,-37.63,124.023,-286.133,321.777,23.40,-14.25,-37.65,16.96
6606,2.90,1.84,-42.45,81.055,-722.168,618.164,23.40,-14.25,-37.65,16.82
6616,4.08,12.02,-42.30,188.477,-509.277,793.457,22.35,-12.45,-37.50,16.96
6625,9.27,15.06,-38.49,-128.906,-452.637,1000.000,22.65,-12.75,-39.90,17.29
6635,5.41,5.46,-39.56,-4.883,-601.562,1999.939,22.65,-11.85,-38.10,16.91
6645,-5.06,9.97,-40.24,541.504,-674.805,-610.352,22.65,-14.70,-36.90,17.25
6655,-5.69,12.71,-48.77,254.883,-531.250,-300.781,22.65,-14.70,-36.90,16.96
6667,-9.65,17.31,-49.68,-256.836,-22.949,105.957,23.70,-12.75,-38.40,17.01
6677,-2.50,-5.03,-44.27,946.777,-33.203,1659.668,23.70,-16.20,-37.35,16.91
6687,0.60,-3.22,-49.41,-142.578,-527.832,235.840,23.55,-13.65,-38.25,16.91
6697,5.00,-11.18,-36.01,422.363,-627.930,1108.887,24.90,-13.05,-38.40,17.15
6707,-0.87,1.45,-53.72,-349.609,-440.918,978.516,24.90,-13.05,-38.40,17.25
6717,5.44,-15.18,-59.77,517.090,-526.855,679.199,23.70,-14.25,-39.60,17.01
6727,6.47,2.30,-41.40,-447.754,-622.559,907.227,23.70,-13.80,-37.65,17.15
6739,10.56,5.93,-42.26,27.344,-610.840,1563.965,23.70,-13.80,-37.65,17.25
6749,-0.24,-7.37,-45.37,-312.500,-715.820,1999.939,22.95,-14.25,-39.15,17.29
6759,-2.27,2.64,-42.43,413.574,-1132.813,-259.277,24.90,-15.45,-37.65,16.96
6769,4.08,9.76,-48.31,226.562,-1114.746,1105.469,22.65,-16.65,-39.60,16.91
6779,-2.60,-0.97,-37.20,-329.102,-766.113,1999.939,23.25,-13.20,-38.55,17.10
6789,-5.21,7.53,-35.39,82.031,-668.457,966.309,23.25,-13.20,-38.55,17.25
6799,-1.42,5.41,-51.34,95.215,-192.383,728.516,24.30,-14.85,-39.75,17.01
6811,11.66,7.72,-51.22,34.668,-488.281,564.453,23.70,-14.70,-38.85,17.29
6821,2.86,-4.21,-35.21,467.773,-548.828,703.125,23.70,-14.70,-38.85,17.25
6831,-2.16,1.44,-46.25,318.359,-716.797,1371.582,21.90,-17.10,-39.60,17.10
6841,-8.04,-9.25,-40.42,-141.602,-750.977,1999.939,23.25,-16.80,-37.50,16.96
6851,-8.26,-6.37,-42.37,138.184,-458.496,18.066,23.70,-18.60,-36.90,17.25
6861,1.37,7.26,-41.48,-268.066,-167.480,916.504,22.20,-15.00,-38.40,17.34
6871,3.56,-5.77,-48.18,-152.344,31.250,1999.939,22.20,-15.00,-38.40,17.10
6883,-2.47,-8.21,-40.37,-330.566,-375.000,1288.574,24.75,-16.80,-38.25,17.01
6893,6.66,-2.25,-35.56,270.020,-761.230,-904.785,24.00,-17.70,-0.15,17.29
6903,13.67,9.93,-33.35,138.672,-556.641,525.879,22.95,-18.60,-39.15,17.29
6913,-1.24,-0.79,-36.34,90.820,-448.242,1999.939,23.70,-16.65,-39.90,17.10
6923,-2.00,11.28,-27.57,-214.355,-875.977,113.281,24.00,-19.20,-37.80,16.82
6933,0.27,-0.07,-34.99,-720.703,-61.523,1984.863,24.60,-18.30,-39.90,17.15
6945,-9.28,2.79,-56.30,-462.891,248.047,544.434,24.60,-18.30,-39.90,17.01
6955,4.84,-2.41,-36.98,706.543,-681.641,218.750,24.90,-20.70,-39.15,17.15
6965,4.83,4.84,-49.44,2.930,-841.797,1256.836,23.70,-19.05,-40.35,17.15
6974,-13.97,-0.12,-37.03,-374.512,410.645,1156.738,24.75,-19.65,-38.25,17.01
6984,2.27,0.92,-42.86,560.547,-408.691,829.590,25.05,-19.20,-39.75,17.34
6993,5.95,2.00,-45.56,147.461,-752.930,20.996,25.05,-19.20,-39.75,17.15
7008,-18.85,-5.59,-42.69,-455.078,565.430,1084.473,24.75,-18.90,-39.00,16.96
7017,8.82,-9.09,-40.82,511.719,-993.652,-329.102,24.30,-20.10,-40.05,17.10
7029,-5.91,-9.72,-34.95,543.945,-389.648,1999.939,24.30,-20.10,-40.05,17.10
7039,-3.83,4.69,-48.44,-295.410,-635.742,1394.043,25.35,-18.60,-38.85,17.10
7049,-0.53,-4.91,-49.71,35.156,-1078.613,1999.939,22.95,-20.70,-39.90,16.91
7059,-16.79,7.13,-45.34,244.141,-752.930,-275.879,24.60,-19.50,-40.35,17.10
7069,-14.56,1.34,-57.20,-721.680,323.242,1131.836,24.15,-21.45,-38.85,17.25
7079,-7.76,3.56,-43.12,505.859,-1124.023,-546.387,24.15,-21.45,-38.85,17.25
7089,-1.83,18.24,-47.10,-206.543,-430.664,19.531,23.70,-19.80,-40.65,17.25
7101,5.05,17.99,-47.49,25.391,-537.598,1525.391,24.75,-21.30,-39.75,17.01
7111,-6.47,0.11,-41.05,223.145,-0.488,1413.574,24.75,-21.30,-39.75,17.25
7121,-3.84,11.62,-43.32,43.457,-317.383,875.000,24.15,-19.50,-41.40,17.44
7131,-3.25,5.39,-45.00,178.223,-120.117,1723.145,24.75,-20.10,-42.45,16.96
7141,4.66,-0.42,-30.82,-131.836,-735.352,1042.969,25.50,-21.60,-41.25,17.01
7151,0.60,3.33,-58.60,-132.324,-555.664,966.797,25.35,-20.70,-41.10,17.25
7161,-2.72,4.34,-50.20,-243.652,-498.047,434.570,25.35,-20.70,-41.10,17.25
7173,1.71,-1.88,-43.04,134.766,-518.066,584.473,24.90,-21.90,-42.60,17.10
7183,-1.38,1.83,-48.10,-414.062,-452.148,689.941,24.90,-21.90,-42.60,16.96
7193,2.18,-4.52,-46.98,-140.625,-789.551,998.535,24.90,-21.45,-42.90,17.15
7203,-8.82,-0.40,-44.34,-145.996,-450.684,1094.727,25.05,-22.50,-40.80,17.25
7213,-5.63,2.13,-50.11,49.805,-525.879,981.445,25.05,-22.50,-40.80,16.91
7223,-9.13,3.84,-41.32,-191.895,-250.488,958.496,22.95,-21.45,-41.40,17.29
7235,-1.45,-0.83,-37.50,-56.152,-348.633,604.004,25.50,-22.50,-42.45,16.96
7245,-1.15,5.67,-45.00,188.965,-275.879,584.473,24.75,-22.50,-42.45,17.01
7255,0.38,7.83,-45.59,-301.758,-125.488,775.879,24.60,-23.85,-41.10,17.44
7265,-1.68,0.83,-41.29,-213.379,-683.105,1232.422,24.30,-23.25,-42.75,17.44
7275,-1.26,-2.59,-47.51,24.902,-749.023,1377.930,23.40,-23.85,-40.65,17.25
7285,-6.24,2.11,-41.82,48.340,-511.719,580.566,23.40,-23.85,-40.65,17.25
7295,-0.28,-1.73,-48.66,-20.508,-730.957,1659.180,24.15,-24.30,-42.15,16.96
7307,1.82,-8.00,-43.23,142.090,62.500,1095.215,24.60,-24.60,-41.10,17.25
7317,-0.02,-0.97,-34.32,194.824,-725.586,572.754,24.60,-24.60,-41.10,16.91
7327,-0.11,-3.82,-39.04,-154.785,-706.543,1661.621,24.15,-24.60,-41.40,17.10
7337,-10.18,-6.83,-45.14,-87.402,-658.203,570.801,22.95,-24.60,-41.10,17.15
7347,-4.71,-3.68,-45.79,-153.320,-2.441,831.543,23.40,-24.30,-42.60,17.01
7357,3.62,-5.18,-5.06,-348.145,-611.816,1154.785,23.70,-25.50,-42.60,16.96
7367,0.46,0.95,-43.54,-274.414,-171.875,1400.879,23.70,-25.50,-42.60,17.15
7379,0.92,1.98,-10.46,-4.395,-494.141,1056.641,24.00,-25.95,-42.00,17.15
7389,8.40,3.88,-25.10,-101.563,-562.988,911.621,23.25,-26.40,-41.25,17.01
7399,-0.28,-4.69,-38.71,-109.375,-317.871,1662.598,22.80,-25.20,-41.25,17.01
7409,1.49,1.08,-27.92,-43.457,-484.375,547.852,25.05,-26.85,-41.55,17.29
7419,1.95,-0.27,-36.47,20.020,-621.582,797.363,23.25,-25.95,-42.45,16.96
7429,-0.78,2.89,-33.03,-246.582,-634.277,1059.570,23.40,-25.80,-42.15,17.29
7439,-3.05,-1.18,-30.35,-11.719,-505.371,956.543,22.95,-26.25,-41.40,17.01
7451,-13.21,-3.37,-56.28,-230.469,-162.598,1006.836,22.95,-26.25,-41.40,17.29
7461,2.91,-0.99,-23.69,36.133,-257.812,1130.859,22.95,-26.55,-42.15,17.15
7471,-6.21,0.69,-40.86,-235.840,-636.719,1143.066,23.25,-27.60,-42.00,17.01
7481,-0.68,6.15,-27.62,-45.410,-188.477,715.332,23.55,-27.15,-41.55,16.91
7491,-3.67,-0.98,-42.54,-266.602,-172.363,1111.328,24.15,-27.00,-41.85,17.01
7501,2.42,-0.50,-41.81,-45.410,-661.133,840.820,24.15,-27.00,-41.85,17.44
7513,-2.67,-2.28,-33.79,-78.125,-577.637,978.027,23.25,-28.35,-41.55,17.25
7528,3.50,-2.03,-24.28,-309.082,-586.426,1316.895,23.25,-27.15,-42.00,16.96
7537,-1.51,0.56,-54.86,-331.543,-574.707,1304.199,22.05,-28.05,-42.45,17.29
7547,-3.20,3.43,-36.79,68.848,-196.777,1157.227,22.05,-28.05,-41.55,17.01
7557,1.40,0.20,-33.85,5.371,-508.301,951.172,21.90,-29.85,-42.60,17.10
7567,4.23,-1.08,-40.22,-92.773,-441.895,1284.668,22.05,-27.15,-42.75,17.25
7577,3.79,-1.60,-38.88,-312.500,-461.914,378.418,22.05,-27.15,-42.75,17.25
7589,7.40,3.10,-42.36,161.133,-634.277,589.355,20.55,-28.35,-42.00,17.10
7599,4.39,-1.38,-50.08,107.910,-561.035,1472.656,21.60,-28.80,-42.45,17.29
7609,-2.84,-5.11,-30.40,-129.395,-607.910,251.953,21.60,-28.80,-42.45,17.34
7619,-7.95,-6.32,-38.96,-158.203,-422.363,1601.563,21.45,-29.40,-41.85,17.10
7629,4.35,0.82,-30.08,95.703,-409.668,80.566,21.00,-28.20,-41.40,17.01
7639,0.79,-2.56,-61.42,-249.023,-390.625,1686.523,21.60,-28.80,-42.00,17.25
7651,2.42,2.30,-39.08,-44.434,-288.086,330.566,20.55,-29.25,-42.45,16.72
7661,0.79,-1.82,-33.79,-517.090,-469.238,887.207,20.55,-29.25,-42.45,17.25
7671,3.49,0.40,-33.98,-210.449,-436.035,754.883,22.20,-30.15,-41.85,17.29
7681,-2.57,0.27,-31.29,-88.867,-475.098,981.934,22.05,-29.25,-42.00,17.15
7691,-10.02,1.65,-25.39,-250.488,-380.371,1540.039,20.25,-31.80,-41.40,17.34
7701,0.71,3.16,-36.37,53.711,-534.180,1144.531,20.10,-28.80,-42.45,16.91
7710,-0.73,-6.78,-32.73,-153.320,-79.590,1402.344,20.10,-28.80,-42.45,17.25
7722,3.94,0.02,-34.11,-329.102,-613.281,1660.156,20.85,-31.20,-40.50,16.82
7732,-0.56,-6.13,-36.38,129.395,-464.355,1628.906,20.25,-28.95,-41.40,17.25
7742,1.34,-2.18,-34.50,-0.488,-598.633,1392.578,20.25,-28.95,-41.40,17.25
7752,4.56,1.93,-34.33,-48.828,-483.887,1262.207,20.85,-30.45,-41.25,17.10
7762,4.82,1.55,-34.56,-182.129,-445.801,989.258,19.95,-30.15,-41.40,17.29
7772,5.90,0.57,-36.37,-289.551,-387.695,1066.406,21.30,-31.20,-41.25,16.96
7782,11.73,0.30,-32.15,-217.773,-1011.719,1105.469,19.50,-30.60,-41.10,16.96
7794,-8.63,7.70,-50.73,-62.988,-401.367,340.820,19.50,-30.60,-41.10,16.77
7804,-7.06,0.92,-32.62,166.504,-191.895,659.668,18.90,-31.95,-40.80,16.96
7814,-3.50,0.03,-35.88,-134.766,-479.004,377.930,19.50,-31.05,-41.40,17.25
7824,-3.58,2.79,-33.65,-121.582,-370.605,617.187,19.50,-31.05,-41.40,17.15
7834,-4.00,-0.31,-38.02,33.203,-554.199,1000.977,19.35,-31.65,-42.45,17.01
7844,0.28,0.78,-43.50,18.555,-144.043,963.867,19.20,-31.35,-41.40,17.25
7853,9.41,-3.98,-35.66,20.020,-357.422,1129.883,19.35,-31.20,-39.30,16.82
7865,2.24,-7.05,-40.11,-52.246,-386.719,916.016,19.35,-30.75,-41.55,16.91
7875,0.76,0.56,-43.58,7.812,-694.824,880.371,18.90,-31.95,-41.25,16.91
7884,-7.39,-4.68,-57.96,-120.117,-566.895,831.543,18.90,-31.95,-41.25,17.10
7894,1.59,-0.74,-13.26,-252.441,-478.516,1498.535,18.75,-30.60,-42.15,17.25
7904,-4.18,3.34,-61.66,-172.852,98.633,1687.500,19.35,-31.65,-40.80,17.10
7914,7.89,0.29,-38.95,127.930,-400.391,911.621,18.60,-32.85,-40.80,17.10
7926,0.13,-0.99,-37.35,84.473,-254.883,1300.293,18.15,-32.85,-40.50,17.10
7936,-11.51,5.23,-51.79,-180.176,-792.969,966.797,18.00,-32.25,-41.10,17.01
7946,5.63,1.56,-56.10,-340.820,-507.324,946.289,18.00,-32.25,-41.10,16.96
7956,-2.66,-1.47,-29.82,-261.719,-225.586,1502.930,18.60,-32.85,-40.80,17.25
7966,5.25,-1.62,-35.64,284.180,-615.234,628.418,18.90,-32.85,-41.25,17.29
7976,-0.48,1.50,-47.12,109.375,-501.953,1299.805,18.90,-32.40,-41.25,17.15
7986,-4.28,-6.15,-26.05,-66.406,-232.422,1570.801,16.65,-33.60,-41.25,17.29
7998,-4.81,-3.55,-53.15,-183.594,-584.961,1205.078,16.65,-33.60,-41.25,17.29
8008,-2.56,-8.96,-29.89,-58.105,-222.168,1003.906,18.15,-32.40,-41.25,17.15
8018,-12.40,-7.68,-32.31,324.707,-344.238,86.914,18.00,-33.00,-41.10,17.10
8028,-0.47,-5.07,-47.73,-52.246,-390.625,1838.379,18.00,-33.00,-41.10,17.25
8043,7.07,-5.44,-31.47,-242.676,-390.625,964.355,17.40,-34.05,-40.50,17.25
8052,9.15,2.51,-40.37,40.039,-471.680,1007.324,18.00,-33.00,-40.65,17.25
8064,0.12,-0.56,-35.31,-134.277,-498.047,902.344,17.40,-33.60,-39.75,17.15
8074,-2.19,0.00,-40.85,138.184,-345.215,673.340,16.65,-33.60,-41.55,17.29
8084,-1.24,1.29,-26.32,-316.895,-638.184,1613.770,16.65,-33.60,-41.55,17.25
8094,0.88,5.21,-28.02,-151.367,-175.781,919.922,18.00,-34.20,-40.35,16.82
8104,3.83,0.40,-17.56,85.449,-98.145,1288.086,17.55,-33.00,-40.65,17.15
8114,7.66,0.53,-38.40,52.734,-691.895,1359.375,17.10,-33.15,-40.80,17.10
8123,7.73,0.83,-37.18,153.809,-516.602,1150.879,16.80,-34.95,-41.10,17.25
8135,1.71,-3.56,-30.57,21.484,-487.793,775.391,16.20,-32.85,-39.30,17.25
8145,-0.49,-5.24,-33.42,-78.125,-318.359,834.961,16.50,-34.95,-40.65,17.25
8155,8.32,-1.85,-21.22,-42.969,-423.828,995.605,16.50,-34.95,-40.65,17.10
8165,-3.04,-0.35,-30.88,19.531,-415.039,778.320,16.50,-34.95,-40.65,16.91
8175,0.92,-1.08,-22.90,-18.555,-451.660,712.402,16.65,-34.35,-40.50,17.25
8185,1.52,-2.55,-36.55,-134.766,-386.719,1638.184,16.65,-34.35,-40.50,16.96
8195,-6.71,-2.00,-29.18,-120.117,-278.320,849.121,15.90,-34.35,-40.05,17.25
8207,0.54,-3.98,-35.82,-37.109,-505.371,1632.324,16.65,-34.35,-40.50,17.25
8217,-5.22,-1.40,-36.38,-65.430,-273.437,790.527,15.45,-36.00,-40.05,17.10
8227,1.08,-1.96,-41.43,137.207,-343.750,672.363,16.20,-34.35,-40.05,17.01
8237,4.32,0.66,-35.24,33.203,-404.785,1243.164,16.20,-34.35,-40.05,17.10
8246,5.21,-0.73,-31.60,-234.375,-404.785,1387.207,15.45,-34.35,-40.05,17.25
8256,-1.56,-4.63,-31.33,-84.473,-455.566,852.539,15.15,-34.35,-39.30,17.29
8266,9.03,-6.90,-36.71,-191.406,-860.352,791.504,14.10,-35.85,-38.40,17.15
8278,0.58,-3.07,-36.60,121.094,-418.457,1270.996,14.85,-35.40,-40.35,17.15
8288,0.82,-2.79,-30.23,110.352,-480.469,1030.273,14.85,-35.40,-40.35,17.15
8298,-2.84,-0.15,-20.60,-49.316,-296.875,840.820,13.95,-36.75,-38.55,17.25
8308,-0.26,-6.49,-47.95,-268.555,-9.277,905.762,15.75,-34.20,-39.90,16.96
8318,8.72,-0.31,-30.96,-18.555,-676.270,1117.188,14.55,-36.15,-39.15,17.25
8328,3.11,-0.17,-30.62,-421.387,-604.980,1395.508,13.95,-37.20,-39.75,17.29
8340,-4.79,2.11,-34.16,141.602,-664.062,944.824,15.45,-34.35,-39.00,17.34
8350,-11.37,0.58,-33.98,17.578,-263.184,914.062,14.70,-36.00,-39.00,17.34
8360,-4.86,1.69,-26.95,-259.766,-169.434,1071.289,14.40,-34.80,-39.00,17.29
8370,10.35,1.28,-29.09,183.594,-389.648,784.668,14.40,-34.80,-39.00,17.25
8380,7.61,0.69,-34.97,-123.535,-11.719,935.059,14.10,-36.15,-39.90,17.10
8390,1.75,-8.59,-33.76,-200.684,-495.117,1516.113,12.75,-34.05,-39.30,16.91
8400,3.40,-2.89,-32.67,131.836,-557.617,988.770,14.10,-35.40,-39.15,17.29
8412,-10.61,-0.78,-41.98,110.352,-597.168,211.914,13.05,-35.40,-39.60,16.82
8422,-2.10,5.86,-29.14,-117.676,-218.750,559.082,13.05,-35.40,-39.60,17.10
8432,-3.82,-1.08,-33.79,23.926,68.359,1474.121,13.80,-36.15,-41.10,17.15
8442,-1.31,0.11,-33.27,137.695,-493.164,982.910,13.50,-34.35,-40.05,17.25
8452,-2.65,0.97,-35.66,84.961,-324.219,917.480,13.50,-34.35,-40.05,17.01
8462,2.89,4.01,-33.98,-197.266,-374.512,973.145,13.05,-35.40,-39.15,17.15
8472,6.85,4.31,-30.14,-343.750,-256.348,1095.703,14.10,-34.20,-39.15,17.01
8484,3.47,6.18,-31.78,-150.879,-453.613,1999.939,12.30,-37.05,-39.15,17.34
8494,7.66,-1.17,-31.18,64.941,-567.871,1019.043,12.75,-35.55,-39.30,16.91
8504,3.70,2.25,-32.56,88.379,-516.113,665.039,12.75,-35.55,-39.30,17.34
8514,-2.07,5.27,-28.68,311.523,-492.676,1227.539,12.60,-35.85,-39.15,17.25
8524,-7.83,-4.49,-27.22,-23.926,74.707,1950.195,13.20,-35.25,-39.30,17.25
8534,3.33,0.35,-38.54,34.668,-444.336,530.273,12.30,-37.80,-37.65,16.96
8543,-12.19,4.41,-70.63,-24.902,-404.785,490.234,12.45,-37.65,-38.55,17.15
8560,-2.78,-2.90,-31.44,-20.020,-513.184,682.129,12.60,-36.15,-38.85,17.25
8569,6.01,4.55,-43.62,-118.164,-309.570,285.156,12.30,-36.60,-38.85,17.15
8579,11.26,-8.45,-40.44,-186.523,-461.914,1602.051,12.30,-36.60,-38.85,17.25
8589,2.21,-4.74,-30.24,-283.691,-33.691,1999.939,11.85,-36.15,-38.10,17.29
8599,5.81,-5.27,-34.89,-0.488,-242.676,919.922,12.75,-35.55,-37.50,17.34
8609,-5.63,9.69,-81.63,166.016,-649.414,820.801,11.70,-36.75,-37.50,16.91
8619,5.43,-0.50,4.57,-189.941,-312.988,1877.930,12.30,-36.15,-38.85,17.25
8631,-5.61,-0.57,-53.11,-381.348,-641.602,1560.547,12.30,-36.15,-38.85,16.77
8641,-5.03,-2.41,-34.52,-165.039,-149.902,1003.906,10.50,-36.45,-39.30,17.10
8651,5.44,3.40,-25.37,311.035,-438.965,86.914,11.85,-35.85,-39.15,17.10
8660,4.79,4.25,-28.68,353.516,-597.656,567.871,11.85,-35.85,-39.15,17.10
8670,0.90,-2.00,-27.54,-233.398,-370.117,1829.102,11.85,-37.05,-38.10,17.34
8680,2.63,-1.08,-38.47,257.324,-555.664,1999.939,11.70,-36.45,-38.25,17.01
8690,14.36,0.68,-30.92,-157.227,-598.633,648.437,11.25,-37.20,-38.55,17.25
8701,7.26,-2.43,-30.42,125.977,-427.734,813.965,10.35,-36.15,-38.85,17.29
8711,1.56,-2.01,-33.16,337.402,-648.437,394.043,10.35,-36.15,-38.85,17.49
8721,0.40,-4.06,-40.70,125.488,-635.742,667.969,10.50,-36.75,-38.55,17.34
8731,-1.31,-4.79,-41.48,-437.500,-659.668,1229.004,10.50,-36.45,-37.05,17.25
8741,8.79,-4.08,-30.40,84.961,-740.723,49.805,10.50,-36.45,-37.05,17.25
8751,1.86,-3.99,-39.57,-269.531,-247.559,1753.906,11.10,-36.15,-39.15,16.96
8761,8.85,0.89,-19.47,313.477,-38.086,1549.805,9.90,-36.15,-37.65,17.29
8772,3.80,2.36,-38.44,168.457,-494.629,812.012,9.90,-37.80,-37.35,17.15
8782,7.79,-4.58,-21.90,-28.320,-232.910,1400.391,11.25,-36.75,-37.80,17.25
8792,12.52,0.70,-30.12,-50.293,-584.473,32.227,11.25,-36.75,-37.80,17.15
8802,1.69,10.92,-49.79,39.551,-303.223,916.504,11.10,-37.35,-37.65,17.10
8811,4.45,4.00,-32.86,-245.605,-635.742,1779.785,10.35,-35.85,-36.15,17.01
8821,-1.22,4.35,-27.46,-230.469,-145.020,1351.074,9.60,-38.25,-37.65,17.34
8831,0.54,5.70,-40.43,438.965,-548.340,733.398,10.50,-36.75,-38.25,16.96
8843,2.06,-1.47,-39.43,121.582,-353.027,1783.203,10.50,-36.75,-38.25,17.01
8853,7.17,9.22,-16.00,11.719,-451.172,377.930,9.90,-37.80,-38.40,17.44
8862,7.82,3.69,-28.58,124.023,-1055.664,901.367,9.00,-37.20,-37.80,17.29
8872,0.49,7.05,-36.87,-582.520,-1016.113,992.187,9.00,-37.20,-37.80,17.01
8882,0.66,6.10,-42.65,265.137,-714.355,876.953,10.65,-36.15,-38.40,16.91
8892,0.16,6.48,-23.00,55.664,-618.164,871.582,11.10,-37.35,-36.90,17.25
8901,3.71,6.89,-54.76,166.992,-264.648,1248.047,9.60,-38.25,-36.60,17.25
8913,-3.66,2.78,-51.97,49.316,-682.129,478.516,10.05,-36.45,-37.80,17.44
8923,-0.68,5.35,-76.35,-441.406,-626.465,1472.168,10.05,-36.45,-37.80,17.29
8933,-3.24,6.88,-46.69,-221.680,-296.387,1155.762,9.75,-37.65,-37.50,17.34
8943,-2.26,4.42,-44.11,485.352,-384.766,229.980,9.30,-37.65,-37.80,16.96
8953,-4.95,1.98,-31.53,-134.277,-490.234,1235.840,9.30,-37.65,-37.80,17.15
8963,-6.85,-0.23,-40.98,153.320,-322.266,583.984,8.40,-38.25,-37.65,17.15
8975,-1.57,-0.93,-43.40,-419.434,-426.270,1380.371,9.75,-38.40,-36.75,17.15
8985,-7.28,-3.92,-18.73,139.648,-441.406,666.016,9.00,-40.35,-36.75,17.25
8995,-2.47,-1.92,-43.02,-40.527,-308.105,928.711,10.05,-37.95,-37.80,17.44
9005,-5.24,-6.35,-49.05,39.551,-318.359,1816.406,10.05,-37.95,-37.80,17.25
9015,1.09,-3.50,-39.67,-255.371,-418.945,964.355,8.55,-37.65,-37.50,17.01
9025,12.76,5.06,-30.58,-219.238,-601.074,941.406,9.00,-36.75,-37.80,17.01
9035,12.91,-6.02,-38.37,-192.871,-306.152,1497.559,9.30,-37.95,-36.00,17.25
9047,2.99,-10.53,-97.82,-497.559,-585.937,1818.359,9.30,-37.95,-37.05,16.96
9057,8.93,-2.43,-64.10,314.453,-1108.398,441.895,8.25,-1.50,-37.05,17.49
9071,2.08,3.96,-41.22,288.086,-666.504,1012.207,7.95,-38.25,-37.35,17.34
9081,3.92,-5.76,-55.41,-290.039,-664.551,1840.820,7.95,-38.25,-37.35,17.15
9091,-5.40,-2.46,-42.56,25.391,-383.789,397.461,8.55,-39.15,-36.75,17.25
9101,-1.24,5.27,-43.30,-83.984,-347.656,735.840,8.40,-37.80,-37.35,17.25
9113,4.92,-1.47,-39.72,120.605,-747.559,460.937,8.70,-39.75,-36.90,16.96
9123,2.66,4.72,-38.50,-319.824,-1112.305,891.602,6.90,-39.30,-36.60,16.96
9133,3.60,-8.83,-41.16,314.453,-853.516,1134.766,6.90,-39.30,-36.60,17.29
9143,2.66,-0.85,-55.57,119.141,-320.312,914.551,7.20,-40.20,-35.40,17.44
9153,-1.88,-7.90,-47.92,-656.250,-183.105,1426.758,6.90,-38.55,-35.70,17.01
9163,1.21,-3.31,-34.81,41.016,-299.316,1387.695,6.90,-38.55,-35.70,17.15
9173,-1.27,-0.50,-53.17,194.336,-740.234,958.984,7.80,-41.10,-37.05,17.01
9185,0.83,-7.12,-45.85,179.199,-622.559,-45.410,7.95,-39.00,-36.60,17.15
9195,-4.35,3.03,-42.16,-625.977,-378.906,348.633,6.90,-38.55,-36.90,17.01
9205,1.09,-5.51,-51.71,-184.570,206.543,1999.939,6.60,-39.60,-37.05,17.01
9215,2.90,5.40,-30.40,229.004,-913.574,740.234,6.60,-39.60,-37.05,17.25
9224,-1.52,3.23,-39.44,50.781,-399.414,729.004,6.45,-39.00,-34.95,17.34
9234,3.72,-1.44,-35.16,-483.398,-303.223,1999.939,6.30,-39.15,-37.05,17.34
9244,7.34,5.43,-42.63,164.551,-476.074,511.230,7.05,-39.15,-35.55,17.25
9255,0.38,-2.30,-43.89,-719.238,-192.871,1632.813,7.05,-40.35,-36.00,17.15
9265,-2.18,-4.41,-45.02,594.238,-967.773,644.043,7.20,-39.30,-36.15,17.10
9275,0.79,10.23,-46.65,253.418,-891.602,1086.914,5.85,-38.70,-35.55,16.96
9285,-5.75,-2.69,-38.34,-308.594,-595.215,1999.939,4.80,-42.00,-36.30,17.25
9295,-7.08,0.27,-42.21,249.023,-634.277,31.250,4.80,-42.00,-36.30,17.34
9305,-8.65,6.14,-46.11,-520.508,-154.785,830.566,6.15,-40.50,-34.65,17.25
9317,10.24,-3.30,-45.48,-82.520,-972.656,606.934,5.25,-40.20,-35.40,17.25
9327,-3.11,-0.85,-25.14,-513.184,-333.496,1755.371,5.55,-39.15,-35.25,17.25
9337,2.37,-0.66,-48.09,206.543,-611.328,-474.121,5.85,-43.20,-34.50,16.77
9347,-4.48,-2.32,-42.44,-254.883,-104.980,1336.914,5.85,-43.20,-34.50,17.15
9357,4.63,-6.97,-63.53,20.508,-553.711,1467.285,5.25,-39.75,-36.60,17.34
9367,7.20,1.14,-31.29,369.141,-732.910,797.363,4.95,-41.70,-36.15,17.25
9377,-6.16,-2.61,-61.31,-388.672,-118.652,1256.348,4.95,-41.70,-36.15,17.29
9389,-6.32,9.92,-40.22,-153.320,-211.914,870.605,3.15,-42.30,-35.25,17.29
9399,-9.18,-10.59,-53.14,279.297,-225.098,1999.939,5.85,-41.10,-35.55,17.10
9409,-4.82,3.92,-47.67,104.492,-470.215,437.988,4.50,-40.95,-34.20,17.25
9419,-8.18,0.14,-38.45,-201.660,-327.148,1826.172,4.50,-40.95,-34.20,16.96
9429,-11.26,0.01,-53.44,103.027,-732.422,-353.027,3.00,-39.75,-36.15,17.25
9439,15.93,19.96,-40.49,-296.387,-481.934,506.836,3.60,-41.55,-34.80,17.34
9449,10.89,2.02,-28.29,1264.648,-246.094,1999.939,3.60,-41.55,-34.80,17.29
9461,11.78,-10.17,-42.02,267.090,-759.766,1999.939,4.50,-40.20,-34.20,17.25
9471,-3.85,2.78,-46.44,-223.145,-1191.406,1001.953,3.00,-40.95,-35.40,17.25
9481,-11.28,-5.05,-43.07,-651.367,-278.809,1532.227,2.40,-41.10,-36.00,17.29
9491,-6.02,-11.35,-55.59,589.355,-961.914,-920.410,2.85,-40.80,-35.25,17.15
9501,-3.47,3.27,-45.81,-217.773,-229.492,920.898,2.85,-40.80,-35.25,16.96
9511,-7.43,-20.18,-51.69,460.449,-640.137,1041.992,0.30,-41.70,-35.70,17.10
9521,-4.18,-4.97,-64.82,-604.004,-202.148,1334.473,1.65,-42.00,-33.75,17.29
9533,15.19,1.59,-53.63,-20.020,-780.273,794.434,2.10,-42.75,-35.55,17.01
9543,12.12,-4.13,-51.13,-613.281,291.504,1561.523,1.50,-39.75,-36.15,17.44
9553,-7.60,-11.02,-49.18,290.527,-1402.344,306.641,1.50,-39.75,-36.15,17.25
9563,-9.98,6.46,-40.14,-264.648,-708.984,561.035,1.65,-40.80,-34.80,17.25
9573,-1.29,-14.74,-36.24,786.621,-410.645,724.121,1.20,-40.80,-34.05,17.25
9588,-6.95,2.86,-63.12,-232.422,-584.473,1094.238,1.20,-40.80,-34.05,17.34
9597,-17.91,-5.11,-58.69,-958.008,140.625,1212.891,1.65,-42.00,-34.80,17.25
9609,10.23,0.24,-40.83,-890.137,53.711,789.551,0.90,-42.30,-34.80,17.10
9619,6.47,-7.61,-50.72,232.910,-279.297,1089.355,0.00,-42.15,-34.65,17.15
9629,8.35,3.47,-49.29,-424.316,-666.016,706.543,0.00,-42.15,-34.65,17.25
9639,20.69,-2.89,-42.74,-102.539,-1217.285,1999.939,0.00,-42.90,-34.95,17.01
9649,1.61,4.60,-61.99,312.500,-1033.691,-568.848,-0.15,-41.10,-34.80,17.10
9659,-19.32,0.86,-83.96,-772.949,158.691,731.445,-0.15,-41.10,-34.80,17.29
9669,2.39,-3.73,-28.38,819.824,-688.965,348.145,-1.20,-43.50,-35.25,17.25
9681,-9.86,-3.12,-43.34,496.094,-3.906,1999.939,-2.40,-41.55,-34.50,17.29
9691,-4.52,1.02,-42.02,-195.801,-471.680,864.258,-1.05,-42.15,-35.40,17.25
9701,2.72,-8.93,-160.51,55.664,-556.641,1999.939,-1.20,-42.75,-34.05,17.01
9711,9.50,2.15,-31.04,217.773,-805.664,320.312,-1.20,-42.75,-34.05,17.10
9721,-2.40,-8.58,-53.30,-519.043,354.492,1305.664,-0.75,-42.60,-33.15,17.25
9731,9.23,1.33,-51.53,876.465,-893.066,-127.441,-3.60,-43.50,-34.05,17.01
9741,-10.15,1.35,-46.12,-120.117,-432.617,-9.766,-2.85,-40.80,-34.80,17.15
9753,-9.13,9.27,-49.02,-694.824,-865.723,1332.520,-3.00,-41.70,-33.45,16.82
9763,-17.86,-8.54,-40.76,742.187,-780.762,1833.008,-2.55,-43.80,-34.95,17.25
9773,-11.69,-0.50,-74.06,-996.094,-787.109,1292.480,-4.20,-40.50,-35.40,17.25
9783,-2.04,9.47,-49.86,-29.297,-242.676,1999.939,-2.85,-40.35,-34.50,16.96
9793,8.82,4.17,-41.45,-798.828,-779.297,231.445,-2.85,-40.35,-34.50,17.25
9803,15.00,7.63,-51.14,-866.211,-120.605,750.488,-4.20,-40.95,-34.95,17.29
9815,-10.14,3.76,-52.89,-182.617,-914.551,-407.715,-3.75,-42.60,-33.90,17.25
9825,-0.56,7.92,-30.78,349.609,-761.719,542.969,-5.10,-41.55,-35.25,17.34
9835,-1.47,9.44,-42.85,-281.738,-538.574,1267.090,-5.25,-40.50,-33.90,17.01
9845,-9.00,-4.04,-39.31,-107.910,-384.277,1999.939,-5.25,-40.50,-33.90,17.25
9855,-12.15,-0.40,-54.96,71.777,-553.711,591.797,-4.50,-39.75,-35.40,17.25
9865,-9.87,-3.98,-50.83,-489.258,-342.773,1999.939,-4.95,-42.15,-33.90,17.15
9875,2.37,-5.32,-43.60,651.855,-653.320,203.125,-4.95,-42.15,-33.90,17.29
9887,-0.18,-9.19,-66.77,678.711,-592.773,325.684,-6.30,-41.55,-34.05,16.96
9897,4.40,7.99,-49.12,-386.719,-306.641,1519.531,-5.70,-41.40,-33.45,17.10
9907,22.18,-6.09,-52.28,-74.707,-746.094,1999.939,-5.85,-42.30,-34.05,17.25
9917,7.85,5.54,-56.98,143.555,-1159.180,-324.219,-5.10,-39.15,-35.25,16.77
9927,-7.24,2.74,-61.85,-785.156,-338.379,143.555,-5.10,-39.15,-35.25,17.34
9937,5.14,-6.60,-48.71,513.184,-807.129,-1263.184,-7.20,-41.40,-33.90,17.25
9947,9.87,10.30,-12.06,-696.777,-288.574,1236.816,-4.50,-39.75,-34.20,17.29
9959,9.95,3.12,-77.78,-701.660,-622.070,1248.535,-5.25,-41.40,-33.90,17.29
9969,2.18,6.23,-38.21,-54.688,-162.109,1304.688,-5.25,-41.40,-33.90,17.25
9979,9.15,13.58,-52.15,-260.742,-443.848,1505.859,-7.80,-39.90,-33.30,17.29
9989,-1.41,1.98,-47.69,-136.719,-573.730,1999.939,-7.65,-40.50,-33.45,17.25
9999,1.88,16.53,-8.09,-474.121,-80.566,-309.570,-7.65,-40.50,-33.45,17.34
10009,-6.89,18.34,-34.23,-454.102,-370.117,229.980,-7.80,-40.80,-33.30,17.25
10021,-3.20,12.97,-48.78,-62.500,-547.852,-286.133,-9.00,-39.90,-34.80,17.01
10031,-7.35,-6.10,-62.16,569.824,-420.410,909.668,-7.65,-40.50,-33.45,17.15
10041,8.36,11.68,-57.29,-584.473,-488.281,1136.719,-7.20,-42.15,-34.20,16.96
10051,6.05,-4.76,-50.51,239.746,-216.797,1999.939,-7.20,-42.15,-34.20,17.15
10061,13.43,4.20,-37.96,-167.480,-794.434,787.598,-7.80,-39.15,-33.75,17.25
10071,5.65,1.51,-36.55,-145.996,-813.965,1589.844,-7.65,-40.50,-33.15,17.29
10081,2.05,4.31,-37.79,-85.938,-1025.879,690.430,-7.65,-40.50,-33.15,17.15
10093,-1.44,0.71,-55.42,-62.012,-646.973,204.590,-9.15,-40.95,-33.15,16.77
10108,9.92,12.81,-47.25,-374.512,-834.473,380.859,-9.15,-40.95,-33.90,17.29
10117,-0.69,-2.55,-40.95,825.195,-961.426,240.723,-9.30,-39.15,-33.75,17.01
10127,-1.53,5.46,-48.91,-189.941,-558.594,1990.723,-8.70,-40.95,-32.70,17.29
10137,1.82,-5.61,-52.56,-29.785,-151.367,1999.939,-8.70,-40.95,-32.70,17.15
10147,7.25,6.79,-46.46,145.020,-1269.043,327.637,-9.30,-38.70,-33.75,17.10
10159,-5.18,2.27,-50.78,41.504,-765.137,517.578,-9.60,-39.75,-33.90,17.10
10169,-10.22,-2.44,-48.79,60.059,-569.336,1252.441,-10.95,-76.35,-33.30,16.91
10179,10.37,-6.80,-59.94,76.172,-501.953,630.859,-10.05,-38.70,-33.00,17.10
10189,-12.76,-12.54,-48.50,-526.367,-462.402,1076.660,-10.05,-38.70,-33.00,17.15
10199,-5.53,-8.69,-53.93,327.637,-416.992,-467.773,-9.90,-37.35,-34.20,17.49
10209,-10.43,-10.46,-53.77,-500.977,-287.598,1845.703,-9.90,-37.35,-34.20,17.25
10219,5.77,-2.07,-10.71,-110.840,-9.766,1070.801,-9.90,-37.35,-34.20,17.25
10231,5.78,-7.24,-60.21,102.539,-324.219,981.934,-11.10,-37.35,-34.95,17.34
10241,8.31,2.54,-48.88,-140.625,-604.492,1079.590,-11.25,-38.40,-32.55,17.15
10251,1.78,3.60,-37.52,-241.699,-738.281,1361.816,-12.30,-37.05,-34.65,17.01
10261,5.78,5.27,-45.11,-144.531,-712.891,539.551,-12.30,-37.05,-34.65,17.25
10271,-9.26,2.51,-41.85,-831.055,-96.191,1958.984,-12.60,-37.35,-32.40,17.29
10281,-3.47,3.88,-56.02,56.641,-742.187,-343.262,-13.05,-36.60,-34.20,17.15
10291,8.09,13.63,-50.10,129.883,-859.375,856.445,-13.05,-36.60,-34.20,17.10
10303,-10.27,6.31,-46.86,-82.031,-456.543,504.395,-12.45,-37.20,-33.00,17.29
10313,6.79,0.12,-38.49,-131.836,-295.410,1727.539,-13.20,-36.75,-34.05,17.25
10323,6.60,-0.91,-40.76,-6.836,-542.480,1060.059,-12.75,-36.00,-34.05,17.15
10333,13.92,-5.56,-34.96,-244.141,-566.406,1999.939,-13.05,-36.15,-34.65,17.15
10343,6.93,-1.53,-52.40,163.574,-771.973,253.906,-13.05,-36.15,-34.65,17.25
10353,-4.77,-0.76,-55.99,-174.805,-1020.020,528.320,-13.20,-35.25,-33.30,17.25
10367,2.48,-0.05,-51.75,-457.520,-729.004,1571.289,-13.20,-35.55,-33.75,17.01
10376,5.50,-1.89,-52.17,-166.992,-718.262,2.930,-13.35,-35.40,-33.90,17.25
10386,5.06,1.42,-53.31,-210.937,-776.855,-186.035,-13.80,-34.95,-34.65,17.25
10396,3.23,14.39,-45.02,-55.176,-724.609,78.125,-13.50,-34.05,-34.50,17.25
10406,-13.63,5.60,-37.99,-24.902,-718.262,1267.578,-14.40,-34.80,-34.50,17.15
10416,-21.85,10.15,-58.92,-595.703,-75.684,911.133,-13.05,-34.95,-33.45,17.29
10426,10.49,8.91,-44.43,238.281,-641.602,841.797,-13.05,-34.95,-33.45,17.01
10438,1.05,9.75,-65.22,-345.703,-931.641,577.148,-13.50,-34.35,-34.05,16.91
10448,-6.15,0.12,-50.73,-161.133,-584.473,1568.359,-13.35,-34.20,-33.45,17.01
10458,-7.09,-5.95,-49.44,-351.074,-336.426,843.750,-13.35,-33.75,-33.90,17.25
10468,1.95,1.73,-23.41,-195.312,-316.406,593.750,-14.10,-34.65,-34.95,17.25
10478,8.24,-0.24,-49.40,-214.355,-697.754,1029.297,-14.10,-34.65,-34.95,17.25
10488,1.27,-0.77,-55.27,-281.250,-1167.480,493.652,-13.80,-34.20,-34.95,17.29
10500,1.96,-3.70,-54.10,-76.172,-237.793,1284.668,-14.85,-33.00,-34.20,17.25
10510,-2.76,3.45,-41.31,-353.516,-520.508,1009.277,-15.75,-33.00,-34.20,17.29
10520,1.40,11.47,-51.75,-29.785,-445.801,805.664,-14.70,-32.40,-33.30,17.49
10530,8.09,4.79,-39.40,6.348,-1204.590,1075.684,-14.55,-32.25,-33.45,16.91
10540,2.41,3.73,-34.40,-401.855,-855.469,1180.664,-14.10,-32.25,-33.45,17.15
10550,4.68,8.26,-53.16,178.711,-607.422,1200.195,-14.10,-32.25,-33.45,17.29
10560,-7.21,14.82,-52.47,10.254,-149.414,524.902,-14.85,-31.35,-34.20,17.25
10572,-19.69,9.98,-58.64,208.008,250.488,611.328,-13.95,-30.75,-33.00,17.15
10582,-9.11,7.19,-80.92,-119.141,-341.797,1999.939,-13.95,-30.75,-33.00,17.34
10592,15.06,13.56,-53.19,-485.840,-932.129,1192.383,-13.05,-32.55,-33.15,17.10
10602,11.53,0.15,-39.40,-236.816,-398.437,905.273,-14.40,-30.45,-33.00,17.01
10612,3.59,11.95,-43.94,-218.262,-735.840,446.777,-13.95,-31.20,-31.05,16.96
10634,15.29,15.79,-36.24,31.738,-715.332,27.344,-14.55,-31.05,-32.40,17.25
10644,-12.98,10.87,-42.44,-194.824,-277.344,1641.113,-14.55,-31.05,-32.40,17.10
10656,-3.05,2.69,-35.34,175.781,-80.078,1999.939,-14.85,-29.40,-30.90,17.25
10666,16.21,-0.93,-35.64,379.883,-164.551,1276.855,-13.50,-29.55,-31.05,17.29
10676,34.18,-11.69,-46.36,-3.906,-286.133,1492.676,-14.10,-31.05,-31.65,17.25
10686,29.36,-12.05,-45.82,-230.957,-1091.309,878.418,-14.10,-31.05,-31.65,17.34
10696,23.75,-17.09,-40.21,-96.191,-327.637,1999.939,-13.95,-30.00,-31.80,17.15
10706,15.60,-21.03,-54.69,-87.402,-1133.789,1148.926,-14.55,-28.65,-29.70,17.25
10716,8.50,-29.24,-46.58,120.605,-1113.770,1702.637,-14.55,-28.65,-29.70,16.96
10728,-3.29,-33.26,-52.27,-17.578,-1121.094,1536.133,-13.80,-28.65,-30.45,17.10
10738,-10.35,-32.53,-47.10,-119.629,-729.004,1221.191,-17.10,-28.35,-29.85,16.96
10748,-5.55,-35.52,-41.50,29.297,-481.445,1422.852,-16.80,-28.65,-30.15,17.44
10758,-9.26,-36.16,-47.56,-310.547,-910.645,451.660,-15.45,-28.35,-29.10,17.25
10768,-18.75,-27.99,-56.15,-37.109,-613.770,229.492,-15.45,-28.35,-29.10,17.44
10778,-21.63,-8.34,-51.95,-235.352,-548.828,62.988,-17.25,-28.20,-28.95,17.34
10790,-4.65,-8.63,-45.76,268.066,465.820,1573.730,-18.60,-28.35,-28.80,17.29
10800,-5.88,-0.15,-52.21,-168.457,-915.039,272.461,-18.60,-28.35,-28.80,17.34
10810,-21.08,6.31,-37.98,-281.250,116.699,-190.430,-16.80,-28.95,-29.40,17.25
10820,-10.25,-11.68,-46.26,-13.672,-990.234,322.266,-16.80,-28.95,-29.40,17.01
10830,-4.18,-12.02,-46.55,-93.750,-1053.711,158.203,-18.75,-29.40,-30.15,17.01
10840,-7.11,-13.10,-47.36,-307.617,279.785,1019.531,-18.00,-28.20,-30.15,17.49
10852,29.63,4.14,-40.95,198.730,-546.875,175.781,-19.50,-29.40,-30.15,17.49
10862,32.43,6.02,-59.79,118.652,-398.926,1542.969,-18.45,-27.00,-30.45,17.25
10872,23.57,6.40,-40.73,-288.574,-1317.871,749.512,-19.95,-27.75,-31.20,17.34
10882,17.80,11.08,-44.44,-265.137,-753.418,291.992,-19.50,-25.80,-31.65,17.25
10892,23.03,13.64,-45.27,-187.988,-815.918,1389.648,-19.50,-26.55,-30.90,16.91
10902,3.95,11.21,-39.68,56.152,-180.176,1335.449,-19.95,-26.55,-32.40,17.25
10912,0.71,10.71,-32.95,-463.379,-250.977,1166.504,-20.70,-26.25,-30.90,17.34
10924,22.66,15.38,-49.78,-222.656,-826.660,790.039,-20.70,-26.25,-30.90,17.34
10934,12.14,9.47,-43.86,8.789,-970.703,1840.820,-19.95,-26.25,-30.90,17.15
10944,-7.96,2.44,-48.97,73.730,-1122.070,1444.824,-20.10,-24.90,-30.30,17.29
10954,-19.08,-0.98,-41.98,-70.313,-533.203,1905.762,-19.50,-25.80,-31.95,17.10
10964,-20.28,-9.82,-48.69,-258.301,-244.141,989.258,-20.25,-25.05,-30.90,17.25
10974,3.73,-6.88,-54.16,-29.785,-270.508,1375.488,-20.25,-25.05,-30.90,17.01
10986,18.16,-11.25,-52.99,221.680,-40.039,1656.738,-21.30,-25.95,-31.80,17.15
10996,16.37,-13.01,-46.17,-359.863,-707.520,1615.234,-20.55,-25.20,-31.50,17.44
11006,6.46,-11.94,-45.78,242.676,-830.078,651.855,-20.55,-25.20,-31.50,17.15
11016,-4.16,-11.40,-50.08,-336.914,-784.668,1166.016,-20.25,-25.05,-32.40,17.29
11026,-9.24,-8.64,-45.33,-154.297,-695.801,1999.939,-21.45,-26.55,-31.20,17.25
11036,-16.50,-8.01,-48.54,-74.707,-366.211,723.633,-21.45,-26.55,-29.70,17.25
11046,-21.43,-2.21,-46.11,378.906,-62.012,764.648,-21.45,-25.50,-31.20,17.34
11058,-0.65,-6.54,-38.26,120.605,-320.801,46.387,-21.45,-25.50,-31.20,17.15
11068,-2.56,-9.82,-33.95,-490.234,-473.633,1205.566,-21.60,-25.20,-31.50,17.15
11078,6.66,-1.97,-49.79,-452.637,-185.547,1413.574,-21.00,-25.50,-30.45,17.15
11088,1.12,-4.71,-39.80,-125.000,-628.418,788.086,-21.60,-25.95,-31.05,17.10
11098,-4.89,-0.75,-39.93,-100.098,-762.695,1013.672,-21.00,-24.60,-30.15,17.01
11108,-5.97,4.39,-43.24,107.910,-468.750,879.883,-21.90,-25.80,-30.90,17.44
11120,-9.84,1.33,-45.98,-199.219,-589.844,745.117,-22.35,-24.00,-31.05,17.10
11130,-3.76,2.53,-45.42,-143.555,76.172,1098.633,-22.35,-24.00,-29.85,17.10
11140,-2.56,0.70,-40.11,15.625,27.832,993.652,-22.35,-24.00,-29.85,17.29
11156,6.17,5.64,-46.14,-126.953,-518.555,808.105,-23.25,-23.70,-31.50,17.10
11165,9.68,7.05,-46.35,-94.727,-443.359,1052.734,-22.80,-24.45,-30.75,17.10
11175,8.45,8.31,-41.96,-114.746,-406.250,766.113,-22.95,-22.65,-30.90,17.01
11185,11.02,8.36,-41.08,40.039,-365.234,478.516,-22.95,-22.65,-30.90,17.25
11197,10.82,6.89,-54.24,-210.449,-709.473,1093.262,-22.05,-22.80,-29.55,17.15
11207,5.74,3.53,-43.64,210.449,-558.594,583.008,-22.35,-24.45,-29.55,17.49
11217,8.45,0.55,-47.49,-270.508,-875.000,1654.785,-22.35,-24.45,-29.55,17.25
11227,1.54,4.96,-57.58,-219.727,-353.516,1186.035,-21.60,-22.50,-30.75,17.15
11237,4.27,-0.15,-49.15,181.641,-600.098,1208.496,-23.70,-23.85,-29.70,17.25
11247,6.42,-4.23,-39.87,176.270,-679.687,1551.758,-23.55,-22.80,-31.50,16.91
11259,-1.48,-5.16,-42.61,106.445,-529.785,440.430,-22.95,-21.90,-29.40,17.01
11269,-3.85,-4.89,-42.10,-152.832,-57.617,1762.207,-22.95,-21.90,-29.40,16.77
11279,0.01,-14.89,-29.82,-5.859,-248.047,1813.477,-22.35,-22.05,-31.50,17.34
11289,1.79,-5.23,-42.40,41.016,-330.566,942.871,-22.95,-21.90,-30.90,17.15
11299,4.08,-9.80,-50.52,170.898,-539.551,1041.992,-22.95,-21.90,-30.90,17.25
11309,2.06,-9.46,-40.95,5.859,-469.727,1138.672,-23.40,-20.70,-31.20,17.10
11319,-7.23,-6.69,-42.06,-102.539,-499.512,547.363,-24.30,-24.00,-31.50,17.49
11331,-17.69,-9.63,-42.32,-249.023,-208.008,1724.609,-22.35,-20.40,-31.50,17.25
11341,-13.27,-5.76,-46.64,266.113,-422.852,370.117,-23.70,-21.45,-30.45,17.25
11351,-9.56,3.78,-34.54,202.637,-166.992,701.660,-23.70,-21.45,-30.45,16.96
11361,-9.85,2.87,-44.56,-359.863,-18.066,1305.664,-22.20,-20.25,-31.20,17.34
11371,10.75,3.49,-41.45,209.961,-393.066,35.645,-22.20,-20.70,-29.40,17.25
11381,12.53,7.84,-45.73,-251.953,-339.355,633.789,-24.30,-21.30,-32.25,17.25
11391,13.35,-2.61,-39.79,-54.688,-487.305,1237.793,-22.80,-20.10,-31.05,17.44
11403,-0.43,-5.92,-47.07,-128.906,-1082.031,1493.164,-24.60,-21.45,-30.45,17.25
11413,6.85,-0.08,-31.26,1.953,-986.816,344.238,-22.35,-21.30,-30.75,17.25
11423,6.33,1.18,-33.08,-223.145,-895.020,1194.336,-22.35,-21.30,-30.75,17.15
11433,1.24,-3.77,-41.58,-537.598,-511.230,1914.063,-23.70,-19.80,-31.20,16.82
11443,1.95,-0.48,-45.96,355.957,-711.914,531.738,-22.20,-21.00,-29.70,17.25
11453,-1.99,10.86,-41.02,164.062,-870.117,1011.719,-23.70,-22.20,-31.20,17.15
11465,6.41,2.12,-42.60,245.117,-97.656,832.520,-22.65,-20.25,-31.20,17.25
11475,6.92,2.17,-42.98,-454.590,-26.367,1999.939,-22.65,-20.25,-31.20,17.34
11485,9.11,9.15,-46.28,386.230,-716.309,1319.824,-22.35,-20.40,-32.55,17.34
11495,-3.73,9.95,-36.33,557.129,-839.844,328.613,-22.80,-20.10,-30.30,17.25
11505,-14.43,2.14,-42.25,-109.375,-499.512,956.055,-22.80,-20.10,-30.30,16.91
11515,-11.88,-7.76,-47.15,-71.777,-460.449,1419.922,-22.80,-20.10,-29.55,16.91
11525,-7.11,-4.98,-39.38,241.211,-738.281,150.391,-22.35,-22.05,-28.35,17.25
11537,-4.04,-6.34,-44.10,514.648,-470.703,219.727,-25.35,-21.45,-28.65,17.25
11547,-3.04,-6.08,-44.77,-172.852,57.617,1229.980,-23.40,-20.70,-28.95,17.15
11557,0.21,-5.08,-44.47,-117.676,-561.035,689.453,-23.40,-20.70,-28.95,17.15
11567,3.37,3.54,-41.89,316.895,-760.254,423.828,-25.80,-19.65,-30.75,17.25
11577,-5.52,3.36,-37.11,-680.664,242.187,1438.965,-24.90,-19.05,-30.15,17.15
11587,-4.97,-2.98,-34.48,-164.062,-354.004,1748.047,-23.55,-20.10,-28.80,17.01
11599,-2.94,1.54,-45.69,-13.672,-259.766,1424.316,-24.75,-18.90,-31.80,17.15
11609,1.99,-1.51,-36.27,142.090,-741.699,-333.984,-23.70,-20.70,-30.45,17.01
11619,-5.76,4.44,-38.21,-264.160,-70.801,1074.219,-23.55,-18.45,-30.30,17.29
11629,-4.06,-7.11,-30.11,-204.102,-457.031,1424.316,-24.15,-16.65,-31.20,17.25
11639,1.61,4.48,-41.41,509.766,-806.152,844.238,-24.15,-16.65,-31.20,17.25
11649,3.71,4.95,-55.91,-378.906,-308.105,606.934,-22.35,-18.45,-31.50,17.34
11659,5.69,-3.58,-34.56,474.609,-786.133,1107.910,-22.65,-16.20,-29.70,17.25
11676,19.96,-6.72,-36.27,134.277,-1123.535,1999.939,-23.25,-17.70,-31.05,16.91
11685,13.58,2.85,-43.46,289.062,-868.652,801.758,-23.25,-17.70,-31.05,17.10
11695,-6.72,-2.69,-33.45,-193.848,-289.062,1163.574,-22.80,-18.00,-30.30,17.49
11705,-1.27,-13.85,-48.12,269.531,-428.711,821.777,-22.20,-15.90,-30.90,17.25
11715,4.02,-4.81,-37.90,121.094,-283.691,826.660,-22.20,-15.90,-30.90,17.29
11725,0.54,-9.22,-42.04,-182.129,-544.922,1116.211,-22.95,-17.85,-29.70,17.25
11735,1.81,-7.70,-41.26,610.352,-664.551,-392.090,-23.70,-14.70,-30.45,17.44
11747,3.81,-9.57,-41.92,575.684,-726.562,108.887,-23.40,-16.65,-30.15,17.15
11757,-10.05,4.53,-44.49,-237.305,-4.395,787.598,-24.30,-17.70,-31.05,17.15
11767,-8.57,-6.15,-38.56,74.219,-545.898,1236.328,-24.30,-17.70,-31.05,17.25
11777,-6.76,-2.16,-40.78,-391.602,-479.004,424.805,-23.40,-17.40,-28.95,17.25
11787,-5.95,2.05,-41.57,-702.148,-348.633,1999.939,-24.60,-15.90,-30.90,17.25
11797,-4.27,8.09,-45.76,287.109,-314.453,-278.809,-22.35,-15.30,-28.80,17.29
11807,-3.20,2.89,-46.16,-501.953,300.293,1434.570,-24.00,-16.50,-29.85,17.25
11819,3.89,9.66,-41.92,-208.496,-476.562,1070.801,-24.00,-14.40,-30.30,17.15
11829,-3.63,-1.83,-44.43,-213.867,-505.371,1999.939,-24.00,-14.40,-30.30,17.25
11839,0.27,3.88,-43.33,3.906,-886.230,1023.437,-24.00,-16.05,-30.75,17.34
11849,-14.02,-0.98,-35.53,-685.059,543.457,1610.840,-24.00,-16.05,-30.75,17.25
11859,8.15,2.06,-40.57,439.453,-525.879,-415.527,-22.65,-13.05,-30.90,17.25
11869,16.54,7.56,-54.41,142.578,-122.070,539.062,-25.50,-14.40,-30.75,17.29
11881,8.49,-7.74,-38.76,-577.148,-40.527,567.383,-23.40,-14.25,-30.90,17.49
11891,12.56,-6.02,-35.52,604.492,-1155.273,-315.918,-21.00,-12.75,-29.70,17.15
11901,6.07,9.98,-32.82,-444.824,-767.578,1058.105,-21.00,-12.75,-29.70,17.15
11911,-12.55,-21.15,-49.92,1113.281,-816.895,1117.676,-23.40,-12.30,-30.90,17.01
11921,-14.81,-1.53,-50.16,-507.812,-204.102,1593.750,-22.65,-12.30,-30.15,16.96
11931,4.63,-12.04,-49.26,214.355,-1292.480,1999.939,-22.65,-12.30,-30.15,17.34
11941,-2.85,-6.95,-30.28,-410.156,-649.902,816.895,-22.20,-12.75,-30.90,17.44
11953,-3.75,1.91,-52.02,-11.719,-244.629,351.074,-24.00,-13.65,-31.05,17.25
11963,-9.04,0.11,-41.16,-85.938,-647.461,1847.168,-23.25,-11.70,-31.05,17.25
11973,3.69,-1.88,-33.02,-74.707,-512.207,182.129,-23.25,-11.70,-31.05,17.34
11983,-8.65,5.85,-23.83,-60.547,-680.664,1999.939,-23.40,-15.00,-31.20,17.25
11993,-8.65,0.99,-34.79,479.492,-434.082,-166.992,-23.40,-11.85,-33.45,17.15
12003,-17.58,0.03,-41.24,-694.336,477.051,1313.477,-22.95,-13.05,-31.95,16.91
12015,4.90,8.92,-32.07,-314.941,-81.055,880.371,-22.95,-12.75,-31.95,17.25
12025,6.46,4.10,-32.92,495.117,-775.879,432.617,-22.05,-10.95,-33.00,17.25
12035,12.68,15.06,-46.69,-360.352,-356.934,918.457,-21.90,-13.50,-31.20,17.01
12045,-1.31,0.08,-30.60,604.980,-403.320,1335.938,-22.05,-12.15,-32.55,17.10
12055,2.25,1.56,-40.98,-104.980,-511.230,1208.008,-22.05,-12.15,-32.55,17.29
12065,11.93,-4.78,-35.15,90.332,-462.402,1999.939,-20.25,-11.85,-32.70,17.25
12075,12.93,-9.77,-38.95,85.449,-863.281,518.555,-20.70,-11.10,-32.70,17.25
12087,12.32,0.58,-38.81,4.883,-1104.492,287.598,-22.05,-10.05,-31.80,17.25
12097,-14.22,-9.50,-39.56,-772.949,237.793,379.883,-21.30,-12.15,-31.50,17.25
12107,8.76,0.51,-21.51,581.543,-846.191,-46.387,-21.30,-12.15,-31.50,17.10
12117,-30.89,-1.30,-44.67,-962.891,24.902,159.180,-19.65,-10.05,-31.80,17.44
12127,-6.20,3.50,-25.28,341.309,-734.375,-223.633,-22.05,-12.15,-31.80,17.10
12137,-17.30,1.66,-49.54,-731.445,97.656,763.184,-22.05,-12.15,-31.80,17.25
12149,-13.79,1.45,-48.24,-456.543,-189.941,1999.939,-21.00,-10.35,-31.65,17.25
12159,1.89,-2.53,-39.96,-315.918,-341.309,826.660,-20.55,-11.25,-31.50,17.29
12169,7.18,-3.73,-40.44,-106.934,-406.738,1999.939,-21.60,-10.05,-32.55,17.25
12179,6.98,-8.97,-37.00,-91.309,-670.898,584.961,-21.00,-9.45,-31.95,17.15
12194,-2.27,-1.41,-40.25,-803.223,-695.312,1999.939,-21.30,-10.50,-31.95,17.25
12203,0.30,-8.89,-55.24,386.230,-812.500,-301.270,-21.90,-8.70,-30.15,17.29
12215,2.90,1.09,-9.12,123.535,-447.754,-1006.836,-21.90,-8.70,-30.15,17.34
12225,0.69,10.71,-63.18,-29.297,-406.738,23.437,-21.30,-9.75,-31.80,17.44
12235,2.17,1.77,-32.88,539.551,-830.078,72.266,-20.55,-8.55,-30.30,17.15
12245,5.52,22.27,-48.25,-686.523,-402.832,1214.355,-21.30,-9.75,-30.30,17.25
12255,8.23,10.03,-41.18,883.301,-400.391,-369.141,-21.00,-8.25,-31.65,16.96
12265,5.62,14.13,-52.45,-368.652,84.961,-634.766,-21.00,-8.25,-31.65,17.01
12275,14.56,7.77,-28.95,347.168,-380.371,-60.547,-20.10,-8.85,-29.55,17.29
12287,-16.02,-10.74,-56.94,182.129,-753.418,1027.344,-20.85,-10.05,-30.75,17.25
12297,-9.95,-1.76,-35.82,72.266,-549.805,1049.316,-20.55,-6.15,-32.25,17.25
12307,-27.17,-0.66,-78.23,-484.863,354.004,628.418,-20.70,-8.70,-31.65,17.25
12317,5.41,-11.89,-38.63,924.805,-901.367,-580.078,-18.45,-8.25,-31.95,17.34
12327,-7.37,-12.56,-38.45,98.145,-111.816,71.777,-20.25,-5.85,-31.95,17.15
12337,-9.59,-3.98,-63.87,-303.223,216.797,-152.344,-18.45,-6.30,-30.90,16.91
12349,14.44,3.92,-45.95,-683.594,-125.000,1060.547,-18.45,-6.30,-30.90,17.25
12359,12.02,-6.33,-38.71,583.496,-1381.348,1999.939,-18.45,-7.50,-32.70,17.25
12369,1.39,13.98,-36.34,-443.848,-280.762,1612.793,-18.75,-5.55,-30.45,16.96
12379,12.84,-2.53,-18.90,375.488,-314.453,1999.939,-18.75,-7.50,-31.65,17.25
12389,0.05,12.61,-44.67,-1010.254,-1239.258,1414.063,-19.20,-5.55,-31.65,17.34
12399,-1.82,-0.47,-27.99,402.832,-1045.410,1999.939,-19.20,-5.55,-31.65,17.44
12409,-4.73,4.74,-48.29,-477.051,-518.066,1329.102,-18.45,-8.70,-31.65,17.29
12421,17.00,6.22,-48.84,10.742,-427.734,1052.734,-17.25,-6.30,-30.45,17.34
12431,16.37,-9.96,-35.28,971.191,-1172.363,-752.441,-17.25,-6.30,-30.45,17.10
12441,-2.88,4.44,-52.66,-473.145,-298.340,479.492,-18.00,-8.25,-28.95,16.96
12451,15.37,-6.98,-33.85,9.766,-882.324,-845.215,-17.55,-7.05,-30.45,17.34
12461,-8.91,4.05,-23.20,212.402,-36.133,870.117,-18.15,-6.45,-30.75,17.34
12471,-7.28,2.24,-54.95,-16.113,-99.121,-108.398,-18.00,-9.45,-30.90,17.29
12481,-5.73,-10.68,-45.21,221.191,-1029.785,1987.305,-18.00,-9.45,-30.90,17.25
12493,-4.05,-7.47,-31.71,703.125,-427.734,1999.939,-18.60,-5.70,-30.30,17.29
12503,-13.53,3.91,-49.94,-510.254,35.645,1827.148,-17.40,-7.65,-30.30,17.10
12513,3.08,-6.00,-38.16,77.637,-591.309,1021.484,-17.40,-6.90,-32.25,17.10
12523,4.05,0.98,-27.56,11.719,-445.801,941.406,-17.10,-5.70,-32.25,17.15
12533,4.92,-8.99,-37.37,7.812,-498.047,-353.516,-16.65,-5.25,-31.05,17.49
12543,0.63,-6.92,-33.12,-203.613,-280.273,165.039,-17.40,-6.15,-31.05,17.29
12555,-2.42,10.55,-44.85,131.836,-188.965,1999.939,-17.55,-5.10,-31.95,17.29
12565,-8.91,7.37,-75.27,-446.777,-625.488,9.766,-16.65,-5.70,-31.80,17.25
12575,-7.56,3.86,-26.01,384.277,-632.812,1071.289,-17.10,-3.75,-32.25,17.25
12585,-3.00,5.85,-44.89,-451.172,-383.789,804.199,-16.80,-2.70,-30.45,17.29
12595,5.83,4.18,-47.71,186.523,-579.102,1999.939,-18.15,-5.70,-30.30,17.49
12605,-3.96,11.64,-33.91,-330.078,-534.668,920.410,-18.15,-5.70,-30.30,16.91
12615,-3.87,2.33,-36.34,271.484,-895.020,290.527,-16.65,-3.75,-30.30,17.10
12627,-14.48,2.86,-7.94,18.066,-176.758,72.754,-16.65,-5.25,-29.85,17.10
12637,-6.91,1.46,-63.06,532.715,-783.203,1157.715,-16.65,-5.25,-29.85,17.29
12647,-8.88,-0.66,-33.98,31.738,-114.746,271.973,-15.30,-3.90,-29.70,17.25
12657,-8.28,-12.77,-48.49,475.586,69.824,1999.939,-16.50,-3.45,-29.70,17.25
12667,33.46,1.31,-31.85,-651.367,-580.078,1542.969,-16.50,-4.35,-30.15,17.29
12677,12.62,-18.19,-43.37,-94.727,-1131.348,1141.113,-16.05,-2.70,-30.45,17.25
12687,12.66,-6.89,-48.02,-200.195,-565.430,1175.781,-16.05,-2.70,-30.45,17.01
12699,-0.53,0.65,-9.64,-803.711,-682.129,-23.437,-16.50,-5.55,-30.45,17.53
12714,3.10,-3.69,-31.98,165.039,-350.098,955.078,-16.50,-3.15,-31.20,17.34
12723,5.33,10.54,-31.39,-259.766,-438.965,571.777,-16.50,-3.15,-31.20,17.01
12733,4.88,-0.55,-49.67,-154.785,-650.879,1234.375,-15.15,-3.30,-30.30,17.29
12743,9.37,3.78,-26.56,225.098,-941.895,1043.945,-17.10,-5.25,-31.50,17.01
12753,-0.55,-2.52,-35.12,-90.332,5.859,725.586,-16.80,-2.70,-30.90,17.01
12763,10.90,-7.49,-35.24,709.473,-447.754,1639.160,-14.55,-3.15,-30.90,17.10
12775,4.05,-7.50,-33.84,114.746,-210.449,282.715,-14.70,-2.85,-32.55,17.25
12785,-15.24,-3.38,-30.24,-287.598,2.441,929.687,-13.80,-1.95,-31.95,16.96
12795,-15.70,0.89,-32.24,-211.914,158.691,1239.746,-14.40,-3.30,-31.50,17.15
12805,-9.77,0.24,-30.98,216.797,-501.953,479.980,-15.30,-2.25,-30.45,17.25
12815,-8.60,1.45,-36.53,-363.281,91.309,433.105,-15.30,-2.25,-30.45,17.25
12825,0.61,1.22,-40.02,-5.371,186.523,991.211,-15.15,-4.05,-30.30,17.29
12837,9.18,-4.73,-51.29,-112.793,-185.547,665.527,-14.85,-3.15,-29.70,17.25
12847,22.36,-4.05,-43.70,728.027,-1513.672,1999.939,-14.85,-3.15,-29.70,17.25
12857,-3.56,4.74,-34.05,-212.402,-584.961,353.516,-15.15,-3.75,-30.30,17.15
12867,0.56,-5.37,-40.76,-20.996,-1035.156,1020.508,-15.15,-4.05,-30.30,16.96
12877,-0.39,-6.29,-44.21,159.180,-387.695,1850.098,-14.10,-1.50,-31.20,17.15
12887,-14.07,-9.06,-46.85,-459.961,-65.918,586.426,-15.15,-1.65,-30.75,17.25
12897,-7.15,-0.36,-40.73,25.391,-270.508,443.359,-15.15,-1.65,-30.75,17.49
12909,10.61,-5.53,-37.03,-175.293,88.379,1999.939,-12.75,-2.10,-33.30,17.49
12919,14.51,-2.87,-37.46,-8.301,-519.531,588.867,-13.95,-1.35,-32.25,17.25
12929,9.50,8.81,-42.53,-599.609,-493.164,758.789,-13.95,-1.35,-32.25,17.15
12939,7.61,0.24,-36.02,543.457,-942.383,1407.715,-12.60,-1.05,-32.40,17.10
12949,-24.17,6.75,-41.23,-224.121,-447.754,849.121,-12.00,-0.45,-31.80,17.25
12959,-13.00,-2.02,-42.82,172.852,-813.965,-13.672,-12.60,-0.75,-31.95,17.34
12969,-21.04,-7.87,-40.70,-414.551,51.758,1017.090,-12.30,0.00,-31.20,17.25
12981,-1.94,5.80,-30.89,-10.742,-419.922,1041.992,-12.30,0.00,-31.20,17.34
12991,-4.46,2.71,-40.44,-257.812,50.781,986.328,-12.30,-1.50,-31.20,17.25
13001,3.40,2.46,-45.82,50.293,-435.547,902.832,-13.05,-1.50,-31.65,17.15
13011,7.86,5.66,-42.10,-217.773,25.391,1105.469,-12.00,-0.90,-31.50,17.44
13021,19.81,2.82,-37.02,-171.875,-641.602,371.094,-12.75,-0.45,-31.80,17.01
13031,9.88,-2.70,-35.39,244.629,-717.773,1999.939,-12.60,-3.45,-30.45,17.29
13043,-1.50,-3.78,-43.66,-33.203,-1190.918,1580.566,-13.80,-0.75,-31.95,16.91
13053,-4.34,-1.69,-33.20,-642.090,-314.453,1978.516,-10.65,0.30,-33.15,17.44
13063,-5.46,1.76,-34.73,-229.980,-436.035,1386.719,-10.65,0.30,-33.15,17.25
13073,7.68,-4.08,-33.53,195.801,-437.012,1190.918,-10.95,-1.35,-34.50,17.15
13083,13.45,-0.31,-34.27,-227.539,-777.832,561.523,-10.50,0.45,-33.00,17.34
13093,3.90,-2.83,-47.44,-391.602,-203.125,1612.305,-10.95,-0.45,-33.00,17.34
13103,16.00,0.86,-25.60,-245.605,-732.910,195.801,-9.90,1.05,-32.40,17.10
13114,5.44,-1.79,-38.40,-214.355,-444.824,1301.758,-9.90,1.05,-32.40,16.96
13124,0.52,-3.56,-34.56,-19.531,-517.090,1300.293,-11.10,-0.30,-32.40,17.29
13134,1.06,1.66,-45.76,-163.086,-887.695,583.984,-10.50,0.45,-33.30,17.15
13144,-3.23,3.95,-28.89,-92.773,-562.012,645.996,-10.50,0.45,-33.30,17.15
13154,-1.66,-0.05,-40.34,49.316,-804.687,770.996,-9.30,0.15,-33.00,17.34
13164,-13.59,3.14,-37.62,-426.758,-484.863,381.348,-9.60,-0.75,-33.90,17.25
13174,-2.62,-2.98,-35.05,-247.070,-439.941,1405.762,-9.60,0.30,-33.15,17.10
13186,2.26,-3.86,-43.71,87.891,-401.367,1118.164,-9.30,-0.45,-33.30,17.34
13196,10.44,-3.63,-40.18,-229.980,-606.934,1799.316,-9.15,1.05,-33.15,16.91
13206,13.87,-0.68,-40.40,-26.367,-513.672,731.934,-9.00,0.45,-33.75,17.34
13216,-5.04,-1.05,-54.31,-251.953,-489.746,1592.285,-9.60,0.75,-33.15,17.25
13231,7.31,-1.98,-40.71,-98.145,-654.785,1168.457,-10.35,-0.75,-33.45,17.44
13240,0.69,2.65,-44.37,-225.586,-304.199,969.727,-9.30,0.15,-33.75,16.96
13252,11.24,3.22,-41.14,30.762,-592.285,830.078,-9.90,1.50,-34.95,17.49
13262,5.79,2.50,-46.69,-175.293,-798.828,718.750,-8.70,0.30,-34.20,16.96
13272,5.77,4.34,-44.63,-168.945,-877.930,757.324,-8.70,0.30,-34.20,17.29
13282,3.40,2.80,-43.96,-395.508,-396.973,1731.934,-7.65,0.75,-33.45,17.25
13292,6.47,3.85,-33.56,-85.449,-532.227,1075.684,-8.55,0.15,-34.50,17.25
13302,0.18,3.49,-23.76,87.402,-731.445,1026.367,-7.95,1.05,-33.90,17.15
13311,-12.69,0.96,-63.51,-367.676,-569.336,973.633,-7.80,1.35,-33.30,17.01
13323,-10.40,-3.16,-48.41,-38.574,-530.273,1151.855,-7.80,1.35,-33.30,17.34
13333,-9.99,1.53,-45.28,-125.000,-231.445,946.777,-7.95,0.30,-33.45,17.01
13343,2.19,-9.35,-42.11,-39.063,-189.941,1711.914,-7.65,0.75,-33.15,17.34
13353,5.95,0.05,-31.60,-458.008,-214.355,932.129,-7.65,0.75,-33.15,17.29
13363,6.43,-8.11,-46.21,36.621,-320.312,1230.957,-7.65,2.70,-32.70,17.44
13373,0.55,3.14,-41.21,-330.566,-602.539,633.301,-7.80,1.65,-34.50,17.25
13383,5.70,-0.92,-39.70,-118.164,-501.465,1025.391,-7.65,1.50,-34.95,17.10
13395,-1.01,-4.85,-45.05,-53.711,-730.957,1502.930,-7.20,1.95,-35.40,17.25
13405,-3.75,4.82,-38.08,-71.289,-417.480,719.238,-7.20,1.95,-35.40,17.25
13415,1.11,0.54,-26.90,-289.062,-327.148,1921.387,-6.60,1.35,-36.00,17.10
13425,1.07,2.89,-54.31,-153.320,-138.672,851.074,-5.55,2.10,-35.55,17.25
13435,8.73,1.95,-37.25,-66.895,-370.117,1999.939,-5.55,2.10,-35.55,17.34
13445,6.50,1.21,-37.46,-21.484,-478.516,525.391,-5.55,2.55,-35.40,17.15
13455,0.42,-10.53,-45.56,145.996,-829.590,1041.016,-5.55,2.55,-35.55,17.29
13467,-2.56,-9.21,-33.53,101.563,-458.008,1711.914,-5.55,2.55,-35.55,17.49
13477,-9.96,-2.03,-51.26,44.434,-439.453,420.410,-5.55,2.55,-35.55,17.25
13487,-6.38,-12.15,-53.20,28.809,-381.836,976.562,-4.20,2.70,-34.20,17.25
13497,-3.44,-8.34,-43.72,-186.523,-356.445,905.273,-4.20,1.50,-35.40,17.10
13507,-0.17,-9.85,-46.20,-118.652,-166.992,1485.840,-3.75,2.25,-35.40,17.25
13517,3.23,-2.01,-45.31,-134.766,-439.941,569.824,-3.45,2.70,-36.15,17.25
13527,7.65,-3.99,-46.15,-318.359,-475.586,1202.148,-2.10,2.55,-35.25,17.25
13539,12.88,0.79,-40.82,-167.969,-884.766,1059.082,-3.00,1.50,-33.45,17.29
13549,11.76,6.36,-39.66,-58.594,-595.215,515.625,-1.65,1.65,-34.80,17.15
13559,9.54,-21.39,-13.63,-131.348,-1076.660,1449.219,-1.65,1.65,-34.80,17.10
13569,-0.47,-1.72,-44.37,-183.105,-966.797,1031.738,-1.80,1.50,-33.90,17.10
13579,-7.34,-5.12,-46.43,-115.234,-500.488,1127.930,-2.55,2.70,-34.65,17.01
13589,0.52,4.59,-34.31,-112.793,-464.844,627.930,-1.65,1.65,-34.05,17.15
13601,4.64,5.01,-33.82,-329.590,-400.391,443.359,-3.00,1.05,-33.90,17.15
13611,11.93,1.60,-52.27,-236.816,-326.172,1217.285,-3.00,1.05,-33.90,17.10
13621,15.99,2.44,-42.99,65.918,-818.359,729.980,-1.80,1.95,-33.15,17.10
13630,4.92,4.46,-48.63,-382.812,-971.680,1517.578,-2.10,1.65,-32.55,17.25
13640,-2.24,8.35,-43.50,4.395,-1044.434,1419.922,-2.10,1.65,-32.55,17.29
13650,-19.37,0.62,-29.92,-360.840,-756.836,1834.961,-1.80,1.50,-33.15,16.96
13660,-24.69,-7.85,-47.30,-150.391,-632.324,1975.586,-0.90,1.35,-32.55,17.25
13672,-12.51,-4.89,-24.31,-42.969,-298.828,1103.516,-1.65,1.35,-33.75,17.15
13682,-5.06,2.08,-42.58,-237.305,-474.121,1192.871,-0.15,2.10,-34.05,17.25
13692,-2.39,-4.20,-34.14,-351.074,-465.820,1885.254,-0.15,2.10,-34.05,17.44
13702,2.42,0.09,-46.27,-16.113,-339.355,833.008,-1.05,1.50,-34.65,17.44
13712,6.91,0.33,-45.30,12.207,-590.332,1353.027,0.00,0.30,-34.20,17.34
13722,-2.79,2.82,-37.46,-222.168,-346.680,1353.027,0.00,0.30,-34.20,17.01
13732,-11.27,-2.69,-56.74,20.020,-451.172,1225.098,-0.90,1.65,-34.05,16.96
13748,-36.44,-10.56,-148.34,283.203,333.984,967.773,0.15,1.35,-33.75,17.29
13758,15.93,18.96,11.05,-160.645,-557.129,614.258,1.05,2.70,-32.70,17.10
13768,11.15,-14.90,-56.00,269.043,-452.637,1815.918,1.05,2.70,-32.70,17.34
13777,13.06,-10.08,-51.58,125.488,-710.449,1551.270,0.15,0.90,-35.25,17.25
13787,5.61,-9.36,-36.35,-133.301,-861.328,771.973,1.05,1.50,-34.65,17.25
13797,-7.38,-12.56,-37.05,68.359,-469.238,987.793,0.45,2.55,-33.75,17.25
13807,-8.52,-15.47,-22.95,-56.152,131.348,1999.939,0.15,2.55,-33.30,17.44
13819,-7.08,-21.82,-46.75,-162.598,298.340,68.359,1.05,1.50,-33.90,17.25
13829,25.81,-27.57,-25.08,106.445,-1380.859,931.152,0.15,0.45,-33.30,17.25
13839,2.39,-29.80,-56.26,64.941,-576.660,1760.254,0.00,0.30,-33.45,17.34
13848,17.82,-31.71,-52.94,-194.824,-1260.254,875.000,0.00,0.30,-33.45,17.15
13858,-1.50,-19.47,-34.04,-133.789,-956.543,-249.512,-0.30,1.95,-33.90,16.91
13868,-6.15,-32.00,-46.46,-350.098,-701.172,1368.652,1.05,1.05,-33.45,17.15
13878,-20.22,-21.47,-39.71,26.855,-623.535,541.504,-0.15,0.90,-33.00,17.29
13890,-15.76,-6.32,-41.96,111.816,-820.312,57.617,0.90,-0.15,-32.55,17.25
13900,-15.70,-20.66,-37.21,-94.727,-610.840,315.918,0.90,-0.15,-32.55,17.10
13910,-7.70,-11.37,-49.61,-558.594,-963.867,774.414,0.30,1.95,-33.45,17.34
13920,-15.30,-5.84,-44.12,-518.066,-241.211,1999.939,1.05,1.95,-33.90,17.29
13930,1.02,-2.19,-44.60,-359.863,-330.566,1293.457,1.05,1.95,-33.90,17.25
13940,-11.11,9.61,-80.87,-616.699,70.313,1904.297,-0.15,1.65,-33.30,17.10
13950,9.37,15.95,-34.45,-3.906,-411.133,774.902,0.45,0.90,-33.75,17.15
13962,16.96,20.68,-47.26,-58.105,-451.172,773.437,0.75,1.50,-33.90,17.25
13972,4.31,22.87,-44.75,-101.074,-1096.191,755.859,-0.15,1.35,-33.75,17.34
13982,-9.69,15.58,-43.31,-79.102,-1321.777,1548.828,-0.15,1.35,-33.75,17.34
13992,-19.42,17.68,-43.39,-460.449,-390.137,1092.285,2.55,0.75,-33.15,17.44
14002,-5.72,20.34,-47.37,29.297,-141.602,474.609,1.65,2.55,-33.75,17.15
14012,8.45,9.55,-50.11,-376.465,380.859,1999.939,1.65,2.55,-33.75,17.01
14021,6.40,11.94,-54.80,51.270,-355.957,1313.965,2.10,1.65,-35.55,17.15
14033,4.35,5.05,-43.85,-103.027,-609.375,686.035,3.45,2.25,-34.20,17.15
14043,5.69,2.82,-62.83,-83.496,-1203.125,1588.867,3.15,0.90,-35.25,17.29
14052,3.52,1.44,-44.70,158.203,-660.156,1156.250,4.50,1.05,-33.45,17.29
14062,-8.39,2.54,-50.53,-846.191,-768.066,1679.688,4.50,1.05,-33.45,17.25
14072,-4.75,3.84,-37.31,-165.039,-537.598,799.316,3.45,1.50,-34.20,17.01
14082,1.28,-1.65,-42.40,-130.371,-191.406,1302.246,4.35,1.65,-34.50,17.29
14092,-4.49,0.60,-46.29,-437.988,-920.410,880.859,4.50,1.95,-33.15,17.25
14104,-1.00,-0.44,-47.40,-159.180,-39.063,987.305,4.80,1.65,-34.80,17.25
14114,4.33,1.41,-46.51,-178.223,-722.168,472.168,4.80,1.35,-33.75,17.29
14123,3.88,-0.28,-42.72,-261.719,-229.004,1587.402,4.95,0.30,-33.45,17.29
14133,6.69,3.50,-37.15,58.594,-984.375,317.383,4.80,1.65,-34.50,17.25
14142,3.43,2.88,-39.71,175.293,-766.113,933.594,4.80,1.65,-34.50,17.34
14152,-2.59,-2.11,-66.03,-166.016,-643.066,1587.891,4.35,0.90,-34.80,17.34
14162,-0.12,-0.69,-50.50,-293.945,-836.426,770.996,5.85,2.10,-33.00,17.25
14174,-4.37,0.11,-44.00,-445.801,-445.312,1888.184,5.55,0.90,-33.75,17.29
14184,-3.21,-3.40,-49.37,220.215,-565.918,1083.008,5.55,1.35,-34.80,17.44
14194,-2.29,6.60,-51.84,-20.508,-450.684,484.863,5.55,1.35,-34.80,17.25
14204,-6.09,-2.05,-57.13,-419.434,-714.844,1548.828,5.85,0.45,-36.00,17.10
14214,1.11,-0.82,-42.69,20.996,-640.137,443.848,6.90,1.05,-34.65,16.96
14224,5.50,8.37,-51.96,-261.719,-1041.504,840.332,6.90,1.05,-34.65,17.34
14235,6.15,0.05,-57.29,-200.195,-420.898,468.750,6.15,1.95,-34.65,17.29
14245,3.21,1.21,-49.04,78.125,-1069.336,879.395,7.05,1.35,-33.75,17.29
14259,-10.34,3.92,-46.70,-434.082,-200.684,1654.785,7.65,1.05,-34.95,17.15
14269,-0.56,3.31,-52.73,186.035,-465.820,986.328,7.65,1.05,-34.95,17.01
14279,6.18,4.98,-42.78,-5.371,-649.414,912.109,7.80,0.90,-33.00,17.01
14288,-3.34,5.47,-49.56,218.750,-538.574,1444.336,8.25,0.45,-34.80,17.29
14298,-4.05,-6.16,-44.14,-78.125,-397.461,1812.500,8.25,0.45,-34.80,17.44
14308,-0.10,-0.30,-41.53,-216.797,-597.656,194.824,9.30,0.45,-33.75,17.34
14320,-2.34,1.31,-54.04,-89.355,145.508,1165.039,10.05,0.90,-34.50,17.29
14330,8.53,5.45,-46.46,419.434,-466.797,692.383,9.90,-0.30,-34.65,17.25
14339,8.69,4.16,-42.02,33.691,-758.789,1015.625,9.30,0.15,-34.80,17.34
14349,6.71,2.32,-45.37,-209.961,-602.539,932.617,9.30,0.15,-34.80,17.15
14358,2.63,1.72,-46.50,-470.703,-262.695,1109.375,10.35,-0.75,-34.20,17.25
14368,12.87,-4.90,-54.13,395.508,-738.281,899.414,8.70,0.30,-34.95,17.25
14377,0.17,1.10,-37.03,126.953,-1028.320,167.480,8.70,0.30,-34.95,17.15
14389,-0.27,-10.66,-59.82,31.738,-788.574,843.750,9.75,-0.90,-34.50,17.44
14399,-9.48,-3.01,-69.86,162.598,-618.164,456.543,10.50,-0.45,-34.80,17.44
14409,-2.98,1.18,-30.61,-450.195,-56.641,1231.445,11.10,0.00,-34.95,17.29
14419,7.05,-7.47,-56.22,469.727,-890.625,975.098,9.90,0.30,-34.95,17.34
14428,-4.33,-0.50,-40.27,113.281,-1151.855,-225.586,9.90,0.30,-34.95,17.01
14438,-27.73,4.63,-55.77,-84.473,-427.734,792.480,10.35,-1.50,-34.20,17.25
14450,18.18,-5.11,-40.40,291.016,-158.691,1021.484,11.70,-0.90,-34.05,16.96
14460,10.59,-3.41,-47.02,-425.781,-581.543,1169.922,11.85,-1.05,-34.20,17.10
14470,1.55,-5.53,-55.58,51.270,-422.363,1758.789,10.95,-2.10,-34.80,17.29
14480,13.82,0.10,-46.61,-221.191,-1089.355,1266.113,10.95,-2.10,-34.80,17.25
14490,-6.97,-2.73,-86.06,-229.980,-812.012,1999.939,12.45,-1.35,-33.75,17.25
14500,6.27,-7.05,-47.78,494.629,-949.219,-550.781,12.30,-1.05,-34.95,17.44
14510,-16.53,5.34,-42.82,-131.348,-229.004,891.113,12.30,-1.05,-34.95,17.01
14522,-6.08,5.35,-38.69,-50.293,-504.883,1053.223,12.75,-4.05,-34.50,17.25
14532,2.24,-4.03,-44.31,-579.590,-1189.453,1999.939,13.35,-1.95,-34.65,17.01
14542,0.76,-3.32,-59.18,152.344,-897.461,19.531,13.20,-1.35,-34.05,17.10
14552,0.79,8.62,-50.56,-30.762,-437.500,611.816,13.50,-2.10,-34.50,17.29
14562,-4.40,0.86,-39.45,-431.641,198.730,1999.939,13.50,-2.10,-34.50,17.01
14572,7.66,2.20,-53.32,435.547,-541.992,203.125,14.10,-2.70,-33.15,17.34
14581,7.28,4.44,-56.15,-478.516,-719.238,859.863,13.80,-1.95,-34.65,17.10
14593,7.68,0.63,-50.87,132.324,-1198.730,946.289,13.80,-1.95,-34.65,17.01
14603,-4.56,9.78,-74.94,-335.937,-961.426,1482.422,13.95,-4.05,-34.05,17.01
14613,-12.15,1.00,-57.40,-453.613,-321.777,1999.939,13.95,-3.75,-35.25,17.25
14623,5.25,1.46,-56.61,386.230,-583.496,136.719,14.40,-2.10,-35.25,17.25
14632,4.57,8.31,-58.79,-640.625,-208.984,1716.309,15.90,-3.30,-34.80,17.10
14642,4.17,9.00,-54.99,-159.668,-1029.297,1999.939,15.90,-3.30,-34.80,17.44
14652,-22.37,1.01,-43.27,-66.895,-860.352,141.602,15.90,-2.55,-34.50,17.01
14664,6.56,-3.30,-50.60,294.922,-648.926,-391.113,14.85,-3.90,-34.95,17.29
14674,12.92,11.31,-88.60,-333.008,-562.988,992.676,14.70,-1.35,-35.55,17.25
14684,30.27,-12.66,-64.70,625.000,-1382.324,1999.939,14.85,-4.35,-34.95,17.01
14694,-1.53,10.46,-59.26,-346.191,-681.152,776.367,16.05,-3.90,-34.95,17.25
14704,-7.60,0.86,-52.11,129.395,-669.922,1272.949,16.05,-3.45,-35.70,17.44
14714,4.60,1.07,-54.31,-579.590,-830.078,1531.250,16.20,-4.95,-34.05,17.29
14726,10.52,1.85,-55.63,-50.781,-869.629,343.750,16.20,-4.95,-34.05,17.25
14736,-0.31,3.11,-49.00,-748.535,-515.137,1393.555,17.85,-2.10,-36.30,17.25
14746,3.83,-0.76,-45.66,793.945,-1007.812,603.516,18.00,-5.85,-35.40,17.25
14756,-1.21,6.82,-64.20,-418.945,-851.562,1323.242,17.25,-6.30,-35.70,17.10
14771,-5.64,0.97,-49.03,-66.406,-305.176,1999.939,17.85,-3.75,-36.00,17.25
14780,7.57,8.25,-39.92,-235.840,-746.094,477.539,17.10,-3.75,-35.55,17.34
14793,3.80,7.56,-51.54,-51.758,-1248.535,-40.039,17.25,-3.90,-36.15,17.29
14803,-1.51,6.04,-53.63,-859.375,-650.391,749.023,17.25,-3.90,-36.15,17.01
14813,-1.28,6.22,-51.21,414.551,-1178.711,-1030.273,18.75,-5.10,-35.40,17.29
14823,-0.60,10.44,-55.69,-534.668,-597.168,947.754,19.65,-4.95,-36.00,17.25
14833,-2.45,2.95,-63.93,11.719,-777.832,1999.939,18.60,-6.15,-36.75,16.91
14843,2.44,4.18,-54.56,-96.680,-903.320,674.316,17.85,-4.95,-36.00,17.34
14853,-4.48,2.85,-53.76,-474.609,-212.891,1618.652,17.85,-4.95,-36.00,17.34
14865,11.17,7.45,-53.39,-383.789,-781.738,1228.027,16.65,-5.70,-37.80,17.34
14875,7.46,-3.85,-47.95,119.141,-992.676,1999.939,17.85,-6.15,-38.25,17.29
14885,3.24,-2.57,-39.31,53.711,-1137.207,156.250,17.85,-6.15,-38.25,17.25
14895,1.37,-8.24,-59.05,-743.164,-536.621,1752.930,18.90,-5.70,-36.75,17.25
14905,1.74,-8.12,-75.76,456.055,-1187.012,-1096.680,20.10,-7.35,-36.30,17.25
14915,1.79,0.37,-41.15,-547.363,-969.727,458.984,17.55,-8.25,-36.15,17.15
14925,5.53,-10.51,-42.84,-143.555,-854.980,1999.939,21.00,-7.05,-36.15,17.25
14937,-14.02,-9.35,-52.26,-264.648,-638.184,1999.939,21.00,-7.05,-36.15,17.10
14947,-1.79,-10.33,-57.53,287.109,-718.262,-1089.844,19.35,-7.35,-36.30,17.44
14957,3.29,1.92,-50.48,-192.383,-526.367,-73.730,19.95,-6.75,-36.15,17.25
14967,-6.04,-16.60,-43.37,-21.484,-714.355,1569.824,20.70,-8.25,-36.15,17.34
14977,-2.82,2.16,-62.20,79.590,-926.758,232.422,20.10,-8.10,-36.75,17.49
14987,-3.51,-0.12,-53.70,-1045.898,438.965,1500.977,20.85,-8.10,-36.30,17.29
14999,12.44,12.07,-52.41,-318.359,-672.363,820.801,20.55,-9.30,-36.75,17.34
15009,3.95,-1.16,-52.80,61.035,-795.410,1533.203,20.55,-9.30,-36.75,17.25
15019,6.31,5.98,-50.89,-100.098,-639.648,1423.828,21.30,-10.05,-37.50,17.10
15029,4.82,1.31,-48.08,-506.836,-708.008,1999.939,20.70,-7.95,-36.90,17.29
15039,12.26,-2.13,-60.21,559.570,-792.480,611.816,20.70,-8.25,-36.60,17.53
15049,8.42,4.11,-50.94,-106.445,-596.680,640.625,19.35,-10.05,-37.80,17.34
15059,8.01,5.27,-16.73,-277.344,-784.180,1999.939,19.35,-10.05,-37.80,17.25
15071,-10.13,6.85,-60.47,-662.598,248.047,1408.691,21.90,-11.10,-34.20,17.25
15081,0.16,1.11,-42.95,418.945,-813.965,-546.875,20.70,-10.65,-36.60,17.34
15091,-10.29,3.29,-59.82,-197.266,-402.344,719.238,20.70,-10.65,-36.60,17.34
15101,3.01,-4.53,-62.97,-547.363,-148.437,1999.939,20.70,-10.65,-36.60,17.01
15111,4.41,2.42,-42.07,233.887,-524.414,425.293,21.00,-9.90,-37.35,17.29
15121,-9.87,4.28,-46.39,-363.770,-242.187,411.133,21.60,-9.30,-35.55,17.34
15131,-2.75,-1.53,-47.92,146.973,-812.988,-75.684,22.95,-13.05,-36.90,17.34
15143,-5.76,-1.96,-60.81,252.930,-118.652,1999.939,22.95,-13.05,-36.90,17.29
15153,2.69,8.60,-54.85,-290.039,-668.945,1337.402,21.45,-11.10,-37.35,17.34
15163,6.12,5.92,-43.55,-56.641,-673.340,1999.939,21.60,-13.20,-36.30,17.34
15173,-1.37,4.58,-58.10,289.551,-680.664,-129.883,21.60,-13.20,-36.30,17.25
15183,6.72,14.58,-50.63,-370.117,294.434,417.480,21.90,-12.30,-37.35,17.10
15193,5.22,-1.66,-56.82,1037.109,-977.051,-441.406,22.20,-12.75,-37.35,17.25
15205,4.15,-3.40,-56.32,-515.625,-486.816,1999.939,21.00,-11.85,-38.40,16.96
15215,8.39,11.24,-73.47,-335.449,-878.906,551.758,22.95,-13.05,-37.65,17.29
15225,13.21,7.50,-50.05,-771.484,-199.219,1999.939,22.95,-13.05,-37.65,17.44
15235,4.32,10.11,-33.95,561.523,-715.820,-70.313,22.95,-13.05,-37.65,17.29
15245,-21.63,5.70,-42.52,-256.836,-262.695,676.270,24.60,-12.75,-39.60,17.29
15255,-1.69,2.57,-44.26,-236.328,-811.523,-620.605,22.65,-13.80,-39.60,17.25
15265,-32.02,9.05,-53.78,344.238,-273.926,1323.242,23.70,-11.85,-39.60,17.01
15277,0.90,-6.86,-54.27,141.113,-1138.672,1999.939,22.65,-13.05,-38.10,17.29
15299,-12.50,-2.70,-48.40,67.383,-90.820,276.855,23.40,-11.85,-38.40,17.15
15308,-0.86,0.59,-45.18,-289.551,-529.297,750.488,23.40,-11.85,-38.40,17.25
15318,7.58,-10.50,-45.06,786.133,-1052.246,645.508,25.05,-14.40,-37.05,17.25
15328,-4.37,-3.52,-49.77,-162.109,-302.734,1999.939,22.65,-15.00,-38.85,17.15
15338,6.69,-11.69,-39.24,-243.652,-704.102,929.199,24.15,-13.80,-38.40,17.25
15350,-9.64,-8.46,-56.93,427.734,-612.793,1999.939,25.35,-15.90,-37.35,17.34
15360,1.92,1.83,-62.10,-1026.367,-1239.746,1950.195,24.00,-13.20,-39.00,17.25
15370,2.34,-0.89,-63.19,131.836,-675.293,1999.939,25.65,-16.65,-37.35,17.29
15380,-7.18,7.96,-37.14,-650.879,-1149.902,1590.820,25.65,-16.65,-37.35,17.15
15390,-13.02,-2.60,-40.05,-141.602,-154.297,1999.939,24.75,-15.60,-39.30,17.25
15400,-5.18,-0.46,-29.90,16.113,-861.328,299.805,23.70,-16.20,-36.90,17.49
15410,-4.39,4.92,-44.18,-699.219,395.020,214.355,24.15,-15.45,-39.60,17.49
15422,0.52,1.30,-31.76,-154.785,-216.797,69.336,24.30,-16.05,-38.55,17.34
15432,1.61,1.20,-47.29,539.062,-754.395,-35.645,24.30,-16.05,-38.55,17.44
15442,-3.36,0.08,-49.63,-305.176,-150.879,1107.910,22.95,-15.45,-39.15,17.29
15452,9.92,-2.69,-27.05,432.129,-639.160,-412.598,24.15,-16.20,-37.65,17.25
15462,-19.92,0.73,-48.69,-419.922,-303.223,1152.832,24.75,-18.45,-37.80,16.91
15472,3.61,-8.67,-24.73,409.180,-750.977,261.230,23.40,-17.40,-40.65,17.29
15482,-12.71,8.85,-21.30,-109.863,-262.207,787.598,24.60,-17.40,-37.65,17.25
15494,-8.15,-2.69,-41.16,-451.172,-438.477,576.172,23.70,-20.25,-38.85,17.44
15504,4.94,-8.02,-44.41,373.535,-342.773,884.277,24.00,-17.70,-39.75,17.29
15514,-13.17,-2.54,-37.87,-498.047,-182.129,1248.535,24.00,-17.70,-39.75,17.34
15524,4.72,-4.67,-47.11,641.113,-658.203,-35.156,24.15,-21.00,-39.60,17.15
15534,5.29,8.27,-40.28,-283.203,-240.723,-286.621,24.75,-18.90,-39.75,17.25
15544,12.02,-7.08,-39.98,636.230,-1096.680,-319.824,24.15,-17.10,-39.60,17.10
15556,9.87,-2.75,-46.28,319.824,-1044.922,-622.559,23.70,-21.00,-38.85,16.91
15566,-8.25,11.21,-36.76,-627.930,-86.914,673.828,23.70,-21.00,-38.85,17.01
15576,3.84,8.40,-35.42,1101.563,-312.500,172.363,24.75,-18.90,-40.50,17.29
15585,-0.49,5.08,-36.30,-162.109,-405.762,430.176,24.00,-20.40,-38.55,17.34
15595,6.22,-1.37,-40.32,323.730,-886.719,1999.939,24.00,-20.40,-38.55,17.34
15605,4.59,5.82,-31.92,-449.219,-571.777,1070.313,24.00,-19.20,-39.75,17.10
15615,4.07,-1.27,-48.13,599.609,-707.031,1999.939,24.15,-21.45,-40.35,17.15
15627,-3.40,-5.66,-51.24,724.121,-863.281,1620.117,23.70,-19.05,-39.90,16.96
15637,-0.69,7.44,-48.28,-357.910,146.973,1279.785,24.60,-19.80,-41.40,16.82
15647,3.40,-10.96,-44.79,623.535,-598.633,1868.164,24.60,-19.80,-41.40,17.25
15657,-6.86,8.60,-41.47,-354.492,-317.383,798.340,24.00,-21.30,-39.00,17.29
15667,4.91,-1.23,-27.94,520.996,-839.355,1438.477,22.80,-20.10,-39.30,17.25
15677,-8.40,3.28,-53.85,-858.887,-197.266,1493.164,22.80,-20.10,-39.30,17.29
15687,8.05,-5.27,-55.61,171.387,-268.555,1999.939,25.05,-21.30,-39.00,17.15
15699,7.92,3.71,-37.24,205.566,-787.598,-504.395,24.75,-21.30,-39.00,17.34
15709,-3.75,3.62,-40.84,-336.426,0.977,539.551,24.90,-22.65,-40.35,17.10
15719,4.60,2.83,-48.78,264.160,-867.187,-655.273,24.15,-22.65,-40.35,17.29
15729,-5.64,12.70,-34.80,564.453,-298.828,115.234,24.15,-22.65,-40.35,17.29
15739,4.11,-1.71,-44.59,-329.102,-742.676,-391.602,25.35,-23.40,-38.40,17.29
15749,-7.89,-0.60,-33.37,254.883,-653.809,-39.063,23.70,-23.40,-39.60,17.25
15761,1.12,-4.49,-45.50,-160.156,118.652,257.324,23.55,-21.60,-39.00,17.34
15771,5.96,-4.22,-46.41,312.988,-653.320,565.430,24.00,-23.70,-40.50,17.49
15781,-24.71,-2.51,-36.31,443.848,-444.336,667.480,23.25,-22.80,-40.80,17.34
15791,2.78,0.83,-43.14,-80.078,23.437,1733.398,24.15,-22.65,-38.85,17.01
15801,-1.10,-6.88,-39.47,266.602,-1135.742,-103.027,24.15,-22.65,-38.85,17.49
15817,-0.42,2.74,-46.22,-66.895,-794.434,1756.836,23.40,-25.80,-39.90,17.49
15826,-4.46,1.29,-45.63,-114.746,-570.312,1354.980,24.00,-22.05,-39.75,17.25
15838,-9.98,9.95,-31.17,-327.148,-369.629,414.551,24.15,-24.30,-39.15,17.34
15848,3.18,11.76,-35.32,335.937,-779.785,1935.547,23.70,-25.80,-40.35,17.44
15858,-15.38,-1.63,-32.62,-215.820,231.445,341.309,23.70,-25.80,-40.35,17.49
15868,-3.06,-1.47,-27.45,462.891,-231.445,1032.715,24.60,-25.05,-39.90,17.25
15878,0.01,2.34,-54.55,282.715,-753.906,1999.939,22.65,-25.80,-41.85,17.10
15888,-2.50,0.36,-38.66,-375.000,-416.992,1090.820,22.65,-25.80,-41.85,17.29
15898,13.75,2.71,-31.30,337.891,-1058.594,786.621,23.40,-24.30,-41.10,17.25
15909,18.98,-9.16,-39.73,390.625,-1448.730,1999.939,23.70,-26.25,-40.35,17.25
15919,2.69,-2.82,-47.68,110.840,-779.785,750.977,23.55,-27.60,-39.75,17.49
15929,-6.46,-3.47,-40.85,-158.203,-228.027,779.785,22.05,-25.20,-40.05,17.49
15939,14.69,-5.94,-45.56,186.523,-961.426,1385.254,22.05,-25.20,-40.05,17.44
15949,-5.96,-2.49,-34.98,-332.520,-728.516,874.512,23.25,-28.80,-39.75,16.77
15959,9.88,-5.79,-30.49,-418.457,-634.277,1023.926,22.95,-25.50,-40.65,17.15
15971,-0.05,-1.17,-47.71,-123.535,-11.719,1619.629,21.90,-27.45,-39.90,17.44
15981,10.72,-0.10,-16.99,233.887,-930.664,580.566,22.65,-27.45,-41.40,17.34
15991,6.48,0.79,-41.31,-453.125,-120.117,656.738,22.05,-25.95,-40.50,17.34
16001,7.31,-2.95,-31.77,425.293,-1073.242,1706.543,22.20,-28.65,-41.10,17.29
16011,-3.78,4.01,-39.01,115.723,-1089.355,654.785,22.20,-28.65,-41.10,17.29
16021,-7.56,-3.84,-49.13,-444.824,-348.145,1136.719,22.05,-28.05,-42.00,16.96
16031,-7.07,-2.04,-30.08,274.902,-327.148,1341.309,21.30,-27.60,-39.75,17.29
16043,-3.50,-4.50,-28.95,214.355,-995.605,1754.395,22.05,-28.80,-40.50,16.91
16053,-5.15,4.41,-63.95,-119.629,-431.152,1378.906,22.35,-27.60,-40.50,16.96
16063,0.56,11.00,-48.02,-276.367,-264.160,1528.320,23.25,-28.35,-39.30,17.25
16073,7.18,10.60,-30.34,245.605,-1120.117,593.262,21.30,-28.35,-41.55,17.25
16082,-8.36,-5.08,-31.95,-464.844,-575.195,1999.939,20.85,-28.05,-41.25,17.34
16092,3.43,8.50,-30.39,334.961,-498.535,1265.625,20.85,-28.05,-41.25,17.25
16101,0.71,-1.23,-40.14,-153.809,-397.949,1999.939,22.35,-29.25,-39.75,17.34
16113,-8.49,0.34,-41.49,-615.234,-526.855,1090.332,22.35,-27.60,-40.80,17.15
16123,2.75,-5.79,-45.29,666.016,-564.941,978.516,22.80,-27.60,-40.05,17.44
16133,-11.39,1.56,-42.48,-182.129,-979.004,479.004,22.65,-28.20,-40.35,17.25
16143,-2.44,-0.90,-47.57,-282.227,-290.039,1309.082,22.65,-28.20,-40.35,17.44
16153,12.44,-4.40,-46.43,598.633,-1049.805,1999.939,22.05,-28.35,-41.55,17.49
16163,5.27,-3.11,-31.15,205.566,-675.293,409.180,21.00,-28.95,-40.35,17.10
16175,15.49,-8.10,-34.06,515.137,-1087.891,1552.734,21.00,-28.95,-40.35,17.29
16185,-16.07,-6.39,-52.09,-487.793,-560.547,1027.832,20.25,-30.15,-39.90,17.01
16195,9.83,4.17,-32.11,202.148,-1223.633,443.848,20.85,-28.80,-40.50,17.29
16205,-10.19,-4.09,-50.78,-0.488,-441.895,1049.805,20.10,-30.00,-40.05,17.25
16215,-5.14,0.79,-48.15,-364.746,-75.195,924.316,20.25,-29.85,-41.10,17.29
16225,2.72,2.10,-34.95,516.113,-955.078,1374.512,20.25,-29.85,-41.10,17.25
16234,2.76,-7.05,-56.37,-346.191,-353.516,138.184,21.30,-29.25,-40.05,17.10
16246,-0.59,-6.49,-24.61,-140.625,-501.465,369.141,19.95,-30.60,-39.60,17.34
16256,-8.31,-5.08,-28.54,10.254,-746.094,1412.598,19.95,-30.60,-39.60,17.15
16266,-0.73,0.99,-54.89,0.977,-794.922,777.832,20.55,-30.45,-40.80,17.29
16276,-2.44,-5.11,-41.20,-434.082,-31.738,736.328,20.70,-31.35,-40.35,17.44
16286,18.78,2.42,-23.40,189.941,-892.578,1172.363,20.25,-29.85,-40.35,17.29
16296,7.18,0.21,-42.43,-157.227,-582.520,1922.852,20.70,-29.40,-39.90,17.25
16308,7.60,-4.92,-37.58,184.082,-787.109,1468.262,20.70,-29.40,-39.90,17.25
16318,-1.21,5.90,-32.71,-257.324,-612.305,911.133,20.70,-31.05,-40.35,17.34
16332,5.25,-0.22,-34.11,223.633,-757.324,1027.832,20.55,-31.65,-40.80,17.29
16342,-0.15,0.34,-34.98,-325.684,-144.043,834.473,20.10,-31.65,-41.55,17.29
16352,-4.84,1.98,-42.83,-325.195,-501.465,1017.578,20.10,-31.65,-41.55,17.34
16362,-6.25,5.64,-50.91,21.973,-591.797,1384.277,19.65,-32.40,-39.30,17.29
16372,-1.11,4.52,-33.02,-116.699,-361.816,202.637,19.35,-30.75,-40.50,17.25
16384,-6.96,5.26,-39.08,-117.676,-405.762,875.488,19.35,-30.75,-40.50,17.44
16394,10.40,2.73,-30.70,-364.258,-588.867,1071.289,19.50,-30.15,-41.10,17.25
16404,21.44,2.12,-25.01,584.961,-954.590,1999.939,19.50,-33.45,-40.35,17.10
16413,4.51,-4.56,-70.38,128.906,-543.945,1160.645,18.90,-33.15,-41.55,17.44
16423,13.10,-0.91,-44.33,-133.301,-1184.570,1179.199,19.50,-32.25,-41.85,17.34
16433,-0.90,-4.35,-46.79,-495.117,-497.070,-272.949,19.50,-32.25,-41.85,17.44
16443,-6.96,-9.42,-41.60,-137.695,-502.930,1999.939,18.60,-33.15,-41.25,17.34
16455,2.09,-9.34,-34.30,-728.516,-263.672,1900.879,18.00,-31.80,-41.40,17.29
16465,13.50,0.42,-40.13,528.809,-472.168,1400.879,18.00,-31.80,-41.40,17.25
16475,-0.63,-6.31,-38.95,-155.273,-688.477,935.547,18.45,-32.55,-39.90,17.10
16485,3.79,1.17,-32.40,-585.449,-536.621,1636.230,18.00,-33.00,-42.15,17.25
16495,21.34,-1.02,-33.07,456.055,-933.594,1780.762,18.60,-31.20,-40.50,17.15
16505,-8.31,6.45,-42.81,-338.867,-203.125,500.000,18.15,-33.15,-39.30,17.53
16515,-2.27,-6.33,36.56,30.762,-901.855,1472.168,18.15,-33.15,-39.30,17.34
16527,-3.63,-5.85,-28.05,-368.652,-85.449,1999.939,17.25,-33.00,-40.65,17.49
16537,8.97,-0.79,-48.39,202.148,-823.730,156.738,17.55,-33.45,-38.40,17.10
16547,0.89,-6.32,-23.28,-92.773,-680.176,405.273,17.40,-35.25,-39.75,17.34
16557,-1.47,-5.82,-38.25,-612.305,143.066,1381.348,18.00,-33.75,-41.40,17.25
16567,16.53,8.32,-36.98,450.684,-520.020,517.578,17.40,-33.15,-39.75,17.25
16577,2.18,0.24,-48.31,-152.832,-354.492,1097.656,17.40,-33.15,-38.55,17.25
16589,7.26,-2.03,-36.89,-191.406,-1020.020,646.484,18.45,-33.75,-39.60,17.25
16599,-0.89,-1.98,-28.44,-816.406,-538.574,1999.939,18.45,-33.75,-39.60,17.25
16609,-2.33,-0.28,-40.89,269.531,-278.320,805.176,15.90,-35.55,-39.00,17.34
16619,2.39,1.00,-31.02,185.547,-749.512,1554.688,17.25,-35.40,-38.10,17.44
16629,-3.83,4.85,-47.44,-592.285,-177.734,575.195,17.10,-34.35,-39.75,17.49
16639,11.43,-7.50,-41.95,643.555,-271.973,1496.094,15.90,-33.15,-38.25,17.10
16649,6.98,-3.05,-41.51,109.863,-883.789,800.293,15.90,-33.15,-38.25,17.44
16661,9.53,-7.80,-24.23,534.668,-325.195,1023.926,15.75,-34.95,-39.15,17.25
16671,-10.31,-7.66,-33.03,-131.348,-146.973,1080.078,15.75,-32.25,-39.60,17.25
16681,8.90,7.40,-9.66,-362.793,-284.668,41.992,15.75,-32.25,-39.60,17.49
16691,13.94,7.11,-42.60,620.605,-1024.414,627.441,14.70,-37.20,-39.30,17.34
16700,-3.56,1.20,-20.70,-415.039,-8.789,1916.992,14.85,-34.20,-39.15,17.49
16710,4.72,5.90,-37.38,576.172,-765.625,597.168,16.05,-33.45,-39.15,17.15
16719,-9.30,4.44,-44.13,-336.426,-475.586,563.477,16.05,-35.85,-37.65,17.25
16731,1.24,0.34,-55.94,-144.531,-739.258,213.867,16.05,-35.85,-37.65,17.49
16741,-7.07,6.35,-48.53,-546.387,-123.535,1000.000,13.95,-34.80,-39.00,17.34
16751,22.60,-1.03,-33.61,398.926,-694.336,1135.254,16.80,-34.95,-39.15,17.34
16761,1.18,-4.30,-30.35,136.230,-577.148,1873.535,16.80,-34.95,-39.15,17.34
16771,-4.67,0.73,-53.14,-403.809,48.828,676.270,15.45,-36.00,-39.30,17.34
16781,11.69,-9.12,-30.06,434.082,-753.418,1590.332,15.15,-35.25,-38.55,17.15
16793,-8.74,-10.22,-41.55,-93.262,-459.473,1146.973,14.55,-35.40,-39.15,16.96
16803,12.25,1.03,-23.64,232.422,-801.758,1197.754,14.55,-35.40,-39.15,17.25
16813,-6.08,0.95,-70.02,-296.387,-538.574,1856.934,14.10,-36.60,-37.65,17.29
16823,-2.14,-0.60,-2.30,-266.602,-524.414,468.262,15.15,-36.00,-39.00,17.44
16833,-2.49,9.40,-37.05,124.023,-699.219,169.922,15.15,-36.00,-39.00,17.01
16848,-6.21,-8.92,-45.67,-143.555,-442.871,1509.766,14.10,-35.40,-38.40,17.34
16857,-0.28,-0.26,-35.06,12.207,191.895,1045.898,13.80,-36.60,-38.85,17.25
16869,11.49,-6.44,-18.31,860.840,-1075.195,-47.363,13.95,-37.65,-38.55,16.96
16879,-8.60,-4.31,-37.15,223.145,159.180,355.469,14.55,-34.20,-38.40,17.25
16889,8.58,5.76,-44.82,-19.531,-798.340,523.437,14.55,-34.20,-38.40,17.44
16899,2.36,2.72,-78.53,95.215,-849.121,634.766,13.80,-37.05,-38.40,17.25
16908,5.24,-5.02,-1.79,23.437,-306.152,974.609,13.05,-35.40,-39.15,17.29
16918,-1.96,6.75,-47.48,25.391,-1035.156,870.117,13.05,-34.95,-38.10,17.25
16928,-7.43,0.85,-24.24,-143.555,-640.137,842.773,14.70,-35.55,-38.25,17.44
16940,-2.45,-0.33,-47.76,-122.559,-397.461,675.781,13.80,-37.80,-39.15,17.15
16950,5.89,7.11,-34.76,-315.430,-261.719,1317.871,13.95,-34.80,-38.55,17.15
16960,3.27,-0.32,-23.18,467.285,-702.637,1284.180,13.05,-35.85,-38.85,17.29
16970,2.24,0.77,-32.74,-270.020,-520.996,1003.418,13.05,-35.85,-38.85,17.49
16980,-1.24,13.27,-31.39,35.645,-763.672,438.965,13.35,-36.15,-39.15,17.44
16990,-2.13,3.60,-26.69,-83.496,-247.559,1649.902,12.30,-34.95,-41.10,17.25
17000,9.10,3.65,-51.98,-208.008,-292.969,839.844,13.20,-35.55,-39.30,17.25
17012,-1.03,-0.08,-38.68,-231.934,-592.773,355.469,13.50,-37.20,-40.50,17.01
17022,-0.63,-5.55,-37.53,-248.047,-685.059,697.266,13.50,-37.20,-40.50,17.01
17032,1.28,1.71,-39.71,-125.977,-542.969,949.219,12.30,-36.60,-39.60,17.44
17042,2.80,6.05,-51.15,130.859,-564.941,455.078,12.30,-36.60,-39.60,17.29
17051,7.09,-3.80,-36.25,-267.090,-125.000,1447.754,12.30,-36.60,-39.60,17.29
17061,5.18,-8.60,-36.40,-170.410,-681.641,1482.910,12.30,-34.95,-40.65,17.25
17073,-9.15,-3.91,-40.89,-442.383,-334.473,558.105,12.45,-35.55,-39.75,17.25
17083,4.83,-4.09,-46.85,-29.297,-734.375,656.250,12.30,-36.60,-39.60,17.44
17093,3.04,0.45,-37.57,-344.238,-860.352,351.562,12.30,-36.60,-39.60,17.10
17103,5.27,-0.82,-40.39,35.645,-1003.418,898.926,12.60,-34.95,-39.90,17.10
17113,1.04,-3.56,-31.57,-249.512,-1117.676,1284.180,12.30,-34.20,-39.15,17.29
17123,-3.69,-8.92,-43.66,-152.832,-214.355,1587.891,12.30,-34.20,-39.15,17.25
17133,10.12,6.47,-32.80,-339.844,-39.551,971.680,12.30,-35.85,-38.40,17.49
17145,-0.89,-4.51,-42.30,-100.098,-471.680,1580.566,12.45,-35.55,-37.80,17.44
17155,-6.08,-2.54,-43.89,-255.859,-383.301,548.340,12.75,-35.55,-39.75,17.49
17165,-0.52,-6.35,-39.63,-259.766,-542.480,1422.363,11.85,-37.05,-38.40,17.15
17175,6.31,-0.46,-39.24,-26.855,-343.262,1101.563,11.85,-37.05,-38.40,17.10
17185,9.13,-0.60,-40.69,-204.590,-926.758,652.832,12.00,-36.00,-38.55,17.29
17195,2.10,0.71,-43.89,-125.977,-350.586,1036.621,11.10,-36.15,-38.85,17.25
17207,1.73,-4.66,-33.37,-70.801,-680.176,1463.379,11.85,-36.60,-38.40,17.44
17217,0.34,2.41,-51.54,-40.039,-601.074,367.187,11.25,-35.55,-39.00,17.15
17227,1.29,-1.76,-32.97,-303.711,-518.066,1062.012,12.00,-37.65,-37.80,17.25
17237,-6.69,3.63,-30.24,-176.270,-782.715,307.617,10.95,-36.00,-37.50,17.34
17247,-0.50,-1.11,-46.56,39.063,-660.645,1204.102,11.85,-36.60,-38.85,17.15
17257,-3.80,10.40,-40.30,-395.020,-293.945,221.191,11.85,-36.60,-38.85,17.44
17267,8.70,6.18,-38.82,201.660,-855.469,377.930,10.65,-36.60,-38.10,17.15
17279,5.79,5.38,-41.83,-320.801,112.305,492.187,11.10,-38.25,-38.40,17.44
17289,16.50,5.28,-44.24,-113.770,-459.961,1475.098,12.30,-35.40,-38.10,17.44
17299,10.98,5.14,-45.63,-191.895,-616.699,818.359,11.25,-37.65,-38.25,17.25
17309,6.70,2.78,-47.27,71.777,-653.809,1999.939,11.25,-37.65,-38.25,17.25
17318,8.02,1.82,-46.36,167.969,-593.262,608.887,11.25,-37.20,-39.30,17.01
17328,-7.65,9.26,-36.08,-267.578,-336.426,317.871,10.95,-36.75,-39.00,17.44
17338,1.49,-0.77,-18.66,-236.328,-693.359,1092.285,10.95,-36.75,-39.00,17.34
17350,-4.05,5.33,-41.73,-151.367,-137.207,441.895,11.25,-36.45,-38.55,17.10
17367,-0.08,-3.65,-35.76,-104.004,-548.828,549.316,9.90,-37.35,-38.10,17.29
17376,-3.57,-1.45,-37.71,-285.156,-570.801,1158.203,9.90,-36.15,-37.35,17.49
17386,0.94,1.70,-54.18,-38.086,-703.125,1071.777,9.90,-36.15,-37.35,17.49
17396,-1.15,-2.84,-36.34,-167.969,-897.949,1336.426,9.15,-37.35,-38.10,17.44
17406,-6.29,-0.54,-40.44,-194.336,-342.773,768.066,9.75,-37.65,-38.25,17.34
17418,-3.68,-8.92,-50.48,-296.875,-246.582,1259.766,9.75,-37.65,-38.25,17.25
17428,6.65,1.89,-40.53,-226.074,-535.645,979.492,10.95,-39.15,-37.80,17.10
17438,10.15,-1.36,-59.85,-135.742,-653.809,1033.203,9.60,-37.35,-38.40,16.91
17448,5.39,-2.27,-41.42,-547.852,-886.719,1146.973,10.05,-36.45,-37.05,17.25
17458,11.29,-0.01,-48.06,116.699,-897.461,1154.785,9.00,-38.70,-37.05,17.34
17468,-0.44,-4.21,-44.31,-244.629,-530.273,1041.016,9.00,-38.70,-37.05,17.01
17478,7.02,-1.37,-50.01,-257.324,-756.348,1112.305,9.90,-38.25,-36.90,17.49
17490,2.35,1.05,-44.60,-279.785,-598.145,1235.352,9.30,-36.75,-37.80,17.49
17500,1.83,-0.89,-54.02,105.469,-964.355,815.430,10.65,-38.25,-38.10,17.34
17510,1.95,-1.61,-42.71,-76.660,-727.539,875.000,8.55,-38.70,-37.05,17.10
17520,-2.21,-15.67,-17.74,75.195,-535.645,1299.316,9.60,-37.80,-37.65,17.25
17530,0.73,-1.98,-51.96,-440.918,-392.578,722.656,8.55,-37.20,-37.05,17.49
17540,7.21,-3.97,-39.85,88.379,-641.602,1999.939,8.55,-37.95,-37.50,17.44
17550,2.11,0.40,-51.71,-459.473,-723.145,768.066,8.55,-37.95,-37.50,17.25
17561,-1.99,-10.18,-23.11,117.188,-606.445,249.023,9.00,-38.40,-37.80,17.15
17571,-5.60,0.43,-30.84,-237.305,-626.465,200.684,8.70,-39.00,-36.15,17.15
17581,3.74,-0.40,-46.76,-145.508,-765.137,460.449,8.40,-39.00,-38.10,17.25
17591,-3.02,4.06,-30.74,-409.180,105.469,965.820,7.95,-38.25,-37.35,17.01
17601,1.87,4.61,-79.80,-174.805,-470.703,920.898,7.95,-38.25,-37.35,17.44
17611,3.64,6.60,-31.11,-140.137,-363.281,985.352,6.90,-39.00,-37.35,17.34
17621,0.10,4.58,-51.50,-268.555,-627.441,982.910,7.80,-39.90,-37.05,17.25
17633,7.42,-0.11,-49.60,-67.871,-776.855,392.578,7.80,-39.90,-37.05,17.49
17643,0.59,4.86,-53.69,-274.414,-750.977,1521.484,6.90,-39.00,-37.35,17.29
17653,-0.78,0.32,-42.91,87.402,-737.793,295.410,6.90,-39.00,-37.35,17.49
17663,-0.05,5.39,-47.63,-556.641,-825.684,738.770,8.25,-39.60,-36.00,17.01
17673,7.53,0.58,-55.21,129.395,-628.906,1624.512,7.35,-38.70,-35.25,17.01
17683,1.84,5.20,-47.55,-16.113,-432.617,669.922,7.35,-38.70,-35.25,17.25
