Time_ms,GyroX_degps,GyroY_degps,GyroZ_degps,AccelX_g,AccelY_g,AccelZ_g,MagX_uT,MagY_uT,MagZ_uT,Temp_C
1391,0.07,2.00,-2.27,35.645,-11.719,1003.906,-16.50,-11.85,-33.90,17.87
1427,1.86,-2.71,-2.15,-23.926,-34.180,865.234,-18.00,-11.85,-35.40,17.49
1436,-0.44,-0.49,-1.85,112.793,-15.137,1090.820,-19.20,-10.65,-37.35,17.49
1446,-0.47,1.34,-0.52,224.609,59.570,906.250,-19.35,-10.95,-36.00,17.63
1456,0.99,-1.23,-3.79,-87.891,-25.391,1000.488,-21.60,-11.25,-36.30,17.53
1466,0.19,-0.37,1.01,142.578,28.320,1132.324,-22.20,-13.05,-35.70,17.77
1476,0.08,-1.66,-2.92,284.180,16.113,840.820,-22.20,-13.05,-35.70,17.34
1486,0.66,1.06,-5.40,-65.918,35.156,1166.504,-19.35,-11.70,-34.50,17.49
1499,-3.71,-0.91,-2.60,298.340,23.926,888.672,-18.75,-10.65,-33.15,17.77
1509,0.82,-0.62,-1.40,-10.254,89.844,1118.164,-18.75,-10.65,-33.15,17.25
1519,-1.50,-0.97,-4.27,139.160,-49.316,873.535,-16.80,-12.30,-33.15,17.49
1529,-0.40,2.87,2.44,187.988,24.414,918.945,-16.50,-12.30,-31.65,17.49
1538,1.24,-1.34,-2.87,-40.527,62.500,1177.734,-17.10,-11.25,-33.75,17.53
1548,-0.11,-1.11,-0.15,196.777,-119.629,974.609,-15.90,-10.95,-33.30,17.49
1558,0.56,-2.11,-1.94,-32.715,55.664,1321.289,-15.90,-10.95,-33.30,17.49
1570,-3.02,-2.44,-2.42,234.863,-12.207,671.875,-19.50,-11.55,-35.70,17.53
1580,-0.41,2.33,-1.57,6.836,104.004,1252.441,-20.70,-10.35,-37.35,17.49
1590,-1.34,1.48,-1.85,108.887,20.020,1005.859,-20.10,-10.50,-37.50,17.68
1600,1.56,3.13,-1.66,159.180,25.879,880.371,-21.45,-10.35,-37.65,17.68
1609,-0.14,-0.11,0.06,82.031,146.484,1242.188,-20.25,-11.85,-36.60,17.44
1619,0.77,2.34,-3.81,234.863,25.391,719.238,-20.25,-11.55,-35.70,17.53
1628,0.50,-0.72,-2.93,74.707,-3.906,1245.117,-17.10,-12.90,-34.50,17.77
1640,2.31,-1.56,-1.92,187.988,-45.410,586.914,-17.10,-12.90,-34.50,17.44
1650,-1.95,1.09,-2.02,145.020,-53.711,1324.219,-16.80,-12.75,-33.15,17.49
1660,-0.92,0.94,-3.66,192.383,-48.828,594.238,-16.05,-11.55,-33.15,17.63
1670,-3.50,-1.40,-3.91,98.633,105.469,1366.699,-16.80,-10.65,-33.15,17.82
1680,-2.48,1.21,-3.16,125.977,44.922,756.836,-17.25,-11.10,-33.90,17.77
1690,-0.22,1.94,-3.28,76.660,119.629,1436.523,-17.25,-11.10,-33.90,17.82
1700,2.32,1.05,-1.55,138.672,23.926,733.887,-18.75,-10.65,-35.70,17.49
1712,-2.54,-2.28,-3.31,177.734,-2.930,1328.125,-20.10,-10.50,-36.75,17.25
1722,0.73,1.65,-3.76,84.473,52.734,918.457,-20.10,-10.50,-36.75,17.29
1731,-0.77,-1.28,-2.15,197.754,-85.938,1130.371,-19.50,-12.75,-36.15,17.63
1741,1.34,-0.82,-1.07,89.844,99.609,899.414,-18.45,-11.85,-34.65,17.82
1751,-3.90,-0.11,-2.07,89.355,39.063,1048.828,-16.80,-13.05,-33.90,17.53
1761,1.37,1.42,-3.18,142.090,30.273,1199.707,-15.75,-12.30,-33.45,17.44
1770,-0.21,-0.83,-1.91,39.551,85.449,1000.000,-15.75,-12.30,-33.45,17.77
1782,-0.93,-2.54,-3.97,91.309,-52.246,1115.723,-14.70,-11.70,-33.75,17.53
1792,-0.81,-0.16,-4.79,29.785,16.602,1117.676,-16.65,-11.25,-35.55,17.53
1802,-1.78,-1.25,-4.33,149.414,61.523,897.949,-18.90,-11.25,-37.50,17.97
1812,-1.19,1.45,-5.23,34.180,112.305,1259.766,-20.25,-9.15,-38.40,17.77
1822,0.85,-1.63,-2.98,136.719,184.082,889.648,-20.25,-9.15,-38.40,17.68
1832,2.05,-0.01,-2.85,40.039,-42.969,1066.406,-19.65,-12.90,-37.50,17.49
1844,1.70,-2.88,-4.19,169.922,18.066,1091.797,-16.80,-11.55,-33.90,17.49
1854,1.08,-1.90,-5.91,155.273,132.812,1039.063,-14.10,-11.85,-31.95,17.49
1864,-1.53,-0.50,-3.60,-14.648,-26.855,1036.133,-14.40,-10.05,-32.55,17.49
1874,1.44,0.93,-3.30,160.156,58.105,1052.246,-16.05,-11.10,-34.20,17.63
1884,0.37,0.31,-3.74,49.805,58.105,1011.230,-16.05,-11.10,-36.15,17.77
1893,0.15,2.15,-7.08,69.336,22.461,1184.570,-16.05,-11.10,-36.15,17.77
1903,1.44,-0.61,-5.18,130.371,-8.301,918.945,-16.05,-11.10,-36.15,17.77
1915,-1.02,-0.14,-3.89,183.594,-28.809,949.707,-18.15,-12.45,-35.25,17.82
1937,0.98,-0.83,-4.75,80.566,82.520,1089.355,-14.85,-14.25,-31.65,17.63
1946,0.36,-0.56,-2.87,179.687,-65.918,839.355,-13.35,-10.35,-31.20,17.53
1956,-2.11,-0.74,-2.66,235.840,50.781,1023.926,-14.10,-11.10,-33.15,17.82
1966,1.46,0.79,-2.97,71.289,76.660,877.930,-15.45,-11.70,-35.55,17.87
1976,0.92,-0.79,-3.04,112.305,-76.660,1064.941,-15.45,-11.70,-35.55,17.97
1986,-0.31,-2.84,-3.79,204.590,18.066,971.191,-19.35,-11.70,-36.30,17.97
1998,1.97,1.93,-7.82,106.934,20.020,966.797,-18.45,-12.75,-34.65,17.68
2008,1.08,-2.49,-3.16,159.180,71.777,978.027,-16.05,-13.80,-32.70,17.97
2018,0.13,-0.75,-5.96,90.820,-109.863,984.863,-14.40,-12.45,-33.00,17.49
2028,0.24,0.02,-3.13,186.523,2.441,1100.098,-14.40,-12.45,-33.00,17.82
2037,0.34,-0.69,-6.20,68.359,98.145,1155.762,-15.90,-10.50,-34.50,17.87
2047,0.24,-2.40,-6.17,112.793,4.395,1093.262,-18.60,-10.95,-36.30,17.87
2057,-0.89,-0.15,-5.32,149.902,-37.598,1037.598,-19.50,-11.10,-36.60,17.68
2069,0.09,-0.08,-6.34,103.027,115.723,1084.473,-19.65,-12.45,-36.00,17.87
2079,0.93,-1.40,-6.01,133.301,93.262,1145.020,-16.20,-12.15,-33.00,17.82
2089,-0.52,-3.23,-6.75,168.457,-21.973,1020.020,-15.15,-12.45,-31.80,17.53
2099,-2.49,0.11,-2.23,146.484,70.313,1250.000,-13.80,-11.55,-32.40,17.63
2109,1.45,0.29,-6.15,3.906,57.617,975.586,-13.80,-11.55,-32.40,17.82
2119,0.13,-1.20,-6.78,169.922,-85.449,931.152,-18.15,-10.95,-36.30,17.82
2129,-0.68,-0.11,-5.64,223.633,-75.195,876.465,-18.75,-12.30,-35.70,17.68
2141,-0.08,-2.31,-7.94,111.328,-85.938,789.551,-18.00,-12.30,-34.95,17.87
2151,0.88,-2.15,-5.05,187.988,-9.277,1000.000,-16.05,-13.80,-30.90,17.87
2161,1.80,0.99,-3.79,245.605,-56.641,906.250,-16.05,-13.80,-30.90,17.77
2171,0.91,1.32,-4.34,100.586,-95.703,1047.363,-13.05,-10.65,-31.20,17.34
2181,0.00,-2.89,-5.03,160.645,88.379,1244.629,-16.20,-11.70,-34.80,17.82
2191,-2.22,-2.69,-6.49,113.281,25.391,1132.324,-16.20,-11.70,-34.80,17.77
2201,-0.28,2.44,-10.48,62.988,81.543,1142.090,-18.60,-12.45,-35.55,17.77
2213,-2.40,-1.38,-5.41,108.887,192.383,1213.867,-15.45,-11.70,-32.25,17.77
2223,1.18,-3.10,-5.71,282.715,74.707,1083.008,-13.95,-12.15,-29.85,17.87
2233,3.89,-3.01,-7.31,184.570,102.051,1102.051,-14.40,-10.50,-31.05,17.82
2243,6.51,-2.38,-4.70,267.090,-1.465,1101.074,-14.40,-10.50,-31.05,17.68
2253,4.93,0.82,-3.79,232.422,33.203,1066.895,-18.90,-10.05,-34.80,17.44
2263,4.39,-3.50,-10.66,179.199,106.445,863.281,-17.85,-12.45,-34.50,17.68
2275,0.75,-1.63,-6.88,194.824,93.750,955.566,-12.60,-12.30,-29.40,17.53
2285,-2.95,-2.18,-4.07,364.746,-33.691,834.961,-12.60,-12.30,-29.40,17.82
2295,-3.60,2.38,-6.08,201.660,127.930,635.742,-17.55,-11.55,-33.90,17.87
2305,-0.38,-0.53,-3.62,66.406,0.000,794.434,-18.15,-10.50,-33.75,17.82
2315,-2.89,1.44,-1.39,291.504,-26.367,894.043,-18.15,-10.50,-33.75,17.63
2325,-2.06,3.89,-4.28,89.355,-5.859,771.973,-15.15,-11.70,-28.35,17.77
2335,-5.55,4.21,-8.58,213.379,-215.820,679.687,-13.05,-11.55,-27.90,17.49
2347,-2.06,5.21,-3.40,172.363,-237.305,1023.926,-15.90,-10.95,-31.05,17.68
2357,-7.50,4.40,-10.32,105.957,-276.855,987.793,-18.60,-12.15,-33.00,17.49
2367,-2.59,4.36,-8.27,60.059,-159.668,1101.563,-18.60,-12.15,-33.00,17.87
2377,-1.80,1.92,-12.02,205.566,-120.117,1477.539,-15.30,-12.75,-29.70,17.87
2387,-0.32,0.31,-12.64,177.246,-251.953,1166.992,-13.20,-11.25,-28.80,17.53
2397,3.55,-0.93,-16.73,178.711,-246.094,1085.938,-14.55,-10.65,-29.40,17.77
2407,0.82,-3.51,-17.38,119.629,-258.301,985.840,-17.85,-11.70,-32.55,17.82
2419,-2.12,-2.11,-17.64,193.848,-201.172,1259.766,-17.85,-11.70,-32.55,17.82
2429,-2.55,-2.08,-19.66,147.949,-295.898,1178.711,-15.75,-12.75,-29.70,17.82
2439,-5.32,-4.11,-18.88,208.008,-223.145,1000.000,-13.95,-12.15,-28.05,17.53
2455,-2.63,-0.55,-16.86,101.074,-20.020,1039.063,-13.95,-12.15,-28.05,17.97
2464,2.97,-3.09,-14.74,174.805,53.223,1102.539,-19.95,-10.35,-32.70,18.06
2474,0.83,-2.23,-15.76,79.102,79.590,1050.293,-20.25,-12.75,-33.45,17.82
2484,1.74,-1.62,-14.60,79.590,130.859,1303.223,-16.65,-13.20,-28.80,17.87
2496,0.27,-2.72,-14.09,188.965,51.270,968.750,-14.85,-11.85,-28.95,17.97
2506,-1.96,-1.93,-15.35,215.820,62.500,926.758,-20.25,-11.10,-33.90,17.87
2516,0.97,0.45,-13.82,98.145,77.637,1327.637,-19.50,-12.75,-30.90,17.53
2526,1.75,-1.92,-13.81,211.914,-98.633,841.797,-17.10,-12.90,-29.10,17.82
2536,0.08,-1.05,-21.21,20.020,10.742,840.332,-14.70,-10.50,-30.75,18.01
2546,-1.19,0.80,-17.14,193.848,-56.152,1083.984,-14.70,-10.50,-30.75,17.97
2556,-0.53,0.24,-14.54,239.746,-281.250,788.086,-20.10,-12.15,-33.00,17.87
2568,-3.24,-0.98,-14.11,110.352,-25.391,829.102,-17.55,-12.75,-30.90,17.77
2578,-2.64,0.71,-9.76,277.832,-131.836,945.312,-17.55,-12.75,-30.90,17.87
2588,-2.88,-0.60,-16.66,109.375,-128.906,1018.555,-15.30,-9.45,-32.40,17.77
2598,-1.50,-3.02,-13.60,207.520,-112.793,845.703,-18.75,-9.45,-35.70,17.53
2608,-1.84,-0.15,-17.25,252.930,-177.734,684.570,-19.20,-12.30,-32.40,17.77
2618,-0.66,-0.60,-17.47,293.457,5.371,1233.398,-13.80,-12.30,-29.40,17.68
2628,-0.46,1.92,-16.88,13.184,-61.035,1035.645,-13.80,-12.30,-29.40,17.87
2640,-2.14,1.96,-18.02,-9.766,-139.160,797.363,-18.90,-11.25,-33.00,17.82
2650,-1.16,0.47,-15.06,296.875,-148.437,898.926,-19.20,-12.30,-34.20,17.87
2660,-1.97,-2.63,-18.64,266.113,123.047,1191.895,-14.55,-11.85,-30.90,17.82
2670,1.15,-1.62,-18.47,308.105,-112.305,1037.109,-13.95,-9.75,-31.50,17.82
2680,1.60,-2.31,-19.40,96.680,-30.762,1039.063,-18.00,-9.45,-35.40,17.53
2690,3.73,-2.84,-16.95,280.762,-152.344,1233.887,-18.75,-12.75,-34.95,17.77
2702,3.97,-3.71,-15.89,149.902,-148.437,1088.379,-14.55,-13.50,-29.70,17.63
2712,-0.18,-1.04,-19.29,166.992,-152.344,843.750,-14.55,-13.50,-29.70,17.82
2722,1.47,-0.10,-15.37,256.348,-92.285,1229.980,-18.00,-9.90,-34.95,17.77
2732,-1.45,1.76,-19.60,50.781,-71.777,856.934,-19.65,-10.95,-35.25,18.01
2742,-1.32,-0.01,-19.63,198.730,-172.852,908.203,-14.85,-12.75,-31.20,17.87
2752,-1.94,0.98,-17.40,-98.633,-237.305,694.336,-11.85,-9.15,-30.90,17.87
2762,-4.03,-0.08,-16.44,-9.766,-81.055,876.953,-11.85,-9.15,-30.90,17.34
2774,6.09,4.30,-16.89,257.324,-250.000,893.555,-18.60,-11.25,-34.50,17.82
2784,7.72,2.49,-21.94,161.133,-33.203,514.160,-13.35,-11.85,-30.90,17.77
2794,5.20,0.79,-14.45,253.418,-304.687,1057.129,-13.35,-11.85,-30.90,17.77
2804,-0.70,0.86,-17.61,223.633,-236.328,610.840,-17.85,-8.85,-36.75,17.87
2814,-3.64,5.37,-19.68,349.121,-126.465,1528.320,-18.00,-9.90,-34.20,17.77
2824,-10.96,-1.01,-16.34,248.047,-412.109,475.098,-12.75,-11.25,-29.85,17.87
2834,-11.35,-4.36,-18.86,348.633,-114.746,1124.023,-14.55,-8.25,-33.90,17.87
2846,-10.19,-3.63,-17.48,85.449,200.195,1002.441,-15.45,-11.25,-31.50,17.97
2856,-7.05,-9.90,-19.82,355.957,187.500,799.316,-13.35,-9.15,-29.40,17.87
2866,0.06,-11.27,-20.08,346.191,145.020,532.227,-18.00,-8.70,-33.90,17.87
2876,5.07,-11.64,-19.73,173.340,-207.031,637.207,-16.20,-10.50,-32.25,17.97
2886,9.88,-10.24,-17.97,-16.113,-328.613,998.535,-16.20,-10.50,-32.25,17.87
2896,-3.73,-7.62,-18.26,159.668,-61.523,950.684,-15.45,-8.10,-34.05,17.82
2906,-1.68,-4.64,-15.83,229.004,-420.410,1333.496,-16.65,-9.30,-35.25,17.87
2918,-5.34,3.07,-14.87,42.480,-14.648,1496.582,-16.65,-9.30,-35.25,17.87
2928,-5.61,3.01,-18.36,190.918,480.957,667.969,-14.10,-7.50,-33.45,17.77
2938,-4.08,6.76,-14.80,250.488,-7.324,1243.164,-17.55,-7.50,-34.95,17.77
2948,0.89,4.56,-15.66,82.520,149.414,1395.996,-14.70,-10.95,-30.75,17.44
2957,0.60,7.92,-14.74,176.270,-27.832,1587.891,-12.45,-5.70,-29.85,17.82
2974,4.34,1.93,-21.53,382.812,-283.691,888.672,-12.45,-5.70,-29.85,18.06
2983,1.76,3.60,-22.20,381.348,-244.141,649.414,-17.25,-8.70,-32.40,17.68
2993,-0.59,-1.07,-20.48,277.832,-37.109,1424.805,-12.75,-6.90,-28.35,17.82
3003,1.94,0.95,-17.53,517.090,-9.277,1578.613,-15.30,-6.75,-33.15,17.63
3013,0.37,-4.39,-19.66,289.551,-229.492,966.797,-17.55,-8.25,-34.20,17.97
3023,-4.57,-2.69,-24.49,-14.648,-436.523,808.594,-17.55,-8.25,-34.20,18.01
3033,-2.20,-0.69,-26.06,78.613,16.602,862.305,-13.50,-6.15,-32.55,17.82
3045,-2.98,-0.61,-22.90,-40.527,73.242,1392.578,-19.35,-8.85,-34.50,17.87
3055,0.33,3.91,-22.71,256.348,-73.730,1012.207,-19.35,-8.85,-34.50,18.01
3065,3.20,1.24,-23.15,-215.820,50.293,1496.094,-12.45,-6.15,-31.50,17.87
3075,4.50,0.02,-21.21,75.195,-164.551,775.391,-17.40,-8.10,-34.05,17.77
3085,2.50,3.31,-23.58,-34.668,-187.012,744.629,-14.40,-9.75,-28.80,17.77
3095,3.70,5.21,-21.55,124.023,-11.230,1180.176,-13.20,-6.45,-30.30,17.82
3105,8.33,-2.21,-21.04,194.824,-288.574,914.551,-13.20,-6.45,-30.30,17.87
3117,-4.11,-2.44,-22.30,217.773,-162.109,1023.926,-13.05,-6.75,-30.15,17.97
3127,-2.40,0.46,-20.17,178.711,99.121,1252.930,-17.85,-7.35,-34.80,17.82
3137,4.25,-1.48,-20.45,296.875,-420.898,941.895,-13.95,-11.25,-31.50,18.16
3147,1.54,-0.24,-21.15,96.191,-225.098,1070.801,-13.95,-11.25,-31.50,17.82
3157,7.41,-5.26,-25.03,258.789,-145.996,702.148,-16.50,-9.15,-34.65,17.97
3167,0.85,-6.38,-20.46,73.242,56.152,1058.105,-14.10,-10.35,-30.45,17.77
3177,2.15,-1.89,-21.87,173.828,-24.902,972.656,-14.10,-10.35,-30.45,17.97
3189,0.56,0.26,-20.29,75.195,-29.297,554.687,-16.80,-9.15,-34.65,17.82
3199,-5.46,1.81,-21.53,303.711,-91.797,506.836,-12.75,-12.45,-30.30,17.97
3209,-9.22,3.56,-16.21,31.250,-93.750,993.652,-11.70,-6.15,-32.55,17.77
3219,-10.86,-0.37,-20.75,226.562,-107.910,634.766,-15.90,-8.10,-35.25,17.87
3229,-13.76,2.68,-19.46,252.930,27.344,1205.566,-15.90,-8.10,-35.25,18.01
3239,-3.66,3.08,-18.44,-138.184,-30.273,1216.309,-12.45,-6.90,-33.00,17.68
3249,0.39,1.52,-18.21,247.070,-274.414,765.137,-15.75,-11.10,-34.95,17.49
3261,5.06,4.02,-22.12,-6.836,-410.156,912.598,-10.65,-8.25,-30.90,17.97
3271,3.24,1.08,-22.21,318.848,-80.078,825.684,-14.55,-5.10,-33.90,17.68
3281,3.98,-1.45,-17.66,267.090,-369.141,1120.605,-14.55,-5.10,-33.90,17.82
3291,-1.23,0.96,-19.36,-31.738,-601.074,1214.355,-10.35,-6.30,-30.15,17.97
3301,-5.25,-1.40,-28.71,187.012,-124.023,1181.152,-14.40,-6.15,-34.80,17.87
3311,-6.41,-1.73,-17.66,178.711,-83.008,947.266,-14.40,-6.15,-34.80,17.82
3321,-4.16,-1.85,-22.40,-166.992,-18.555,1402.832,-11.10,-7.50,-31.20,17.82
3333,0.32,-0.25,-25.50,206.055,-189.453,979.004,-13.95,-8.10,-34.05,17.87
3343,-6.92,-0.23,-26.09,91.797,-23.926,1032.227,-11.70,-8.85,-31.50,17.77
3353,1.40,0.48,-27.95,-81.055,-267.090,1186.035,-12.45,-4.95,-31.80,17.53
3363,-2.37,0.22,-28.44,-19.043,-162.598,1214.844,-12.45,-4.95,-31.80,17.82
3373,-2.76,-0.14,-30.53,125.000,93.750,1150.391,-11.10,-7.50,-30.90,17.87
3383,-2.19,-0.60,-28.49,83.008,-125.977,1589.844,-14.70,-4.50,-34.05,17.82
3393,-3.70,0.56,-25.17,60.059,-128.418,1133.789,-12.75,-6.90,-31.05,18.01
3405,-0.80,-0.77,-29.35,183.105,-22.949,892.090,-12.45,-5.25,-30.75,17.97
3415,7.02,-4.32,-33.11,225.586,33.203,1225.586,-14.55,-4.65,-33.90,17.82
3425,3.72,-1.40,-22.80,324.707,-267.090,1126.953,-11.85,-7.95,-30.45,18.01
3435,5.75,0.02,-23.40,51.270,-351.562,964.355,-13.50,-4.05,-33.30,17.87
3445,2.56,0.66,-28.11,256.836,-301.270,1273.926,-13.50,-4.05,-33.30,17.87
3455,-1.06,0.95,-25.50,100.098,-236.328,241.699,-9.90,-5.55,-31.95,17.97
3467,4.76,2.87,-24.82,65.430,4.395,890.625,-13.05,-3.45,-35.40,18.16
3477,9.15,2.14,-21.95,348.145,-174.805,806.152,-10.50,-4.50,-32.70,17.87
3492,5.53,4.47,-23.12,-97.656,-21.973,702.637,-10.50,-4.50,-32.55,17.87
3501,3.01,2.92,-22.54,-222.168,-517.578,1333.008,-10.50,-4.50,-33.00,17.82
3511,-5.76,4.44,-29.70,-138.672,-174.805,299.316,-9.15,-3.90,-33.90,17.82
3521,-8.19,-1.69,-26.07,-148.437,97.656,1666.504,-9.15,-3.90,-33.90,17.77
3531,-16.90,0.94,-37.01,-235.352,9.277,904.297,-10.65,-5.85,-32.40,17.82
3541,-6.73,-6.66,-24.85,223.145,69.824,535.645,-10.65,-4.35,-34.65,18.21
3553,4.90,-4.35,-28.46,222.656,-281.738,595.703,-10.35,-5.55,-33.45,17.82
3563,2.13,-3.88,-30.55,-174.805,66.895,1132.813,-10.65,-4.65,-32.70,17.87
3573,-1.33,-4.05,-26.79,-90.820,-215.820,1430.176,-10.65,-4.65,-32.70,17.97
3583,-1.79,-0.99,-27.02,-205.566,-305.176,893.066,-11.70,-4.95,-32.25,17.68
3593,-3.56,-3.16,-32.46,17.578,-84.961,929.687,-10.50,-4.05,-33.75,18.06
3603,-3.18,-1.61,-25.89,-111.328,201.660,1106.445,-10.05,-4.50,-32.55,18.01
3615,7.53,-5.40,-24.50,-64.941,-447.754,801.270,-10.50,-3.75,-33.75,17.87
3625,4.33,-4.73,-28.37,-210.937,-525.391,501.465,-10.50,-3.75,-33.75,17.82
3635,5.07,2.50,-21.19,81.543,-549.316,1146.973,-10.95,-4.95,-33.75,17.82
3645,-4.47,-0.74,-20.81,-159.668,-380.859,1041.016,-11.25,-2.55,-33.75,17.87
3655,0.73,0.05,-21.73,-70.313,-214.844,1412.598,-11.25,-2.55,-33.75,17.97
3665,-0.58,-1.79,-23.40,116.211,-391.602,609.375,-10.35,-3.90,-33.45,17.53
3675,-1.93,2.44,-26.82,-161.621,-140.137,1295.410,-9.90,-2.25,-33.45,17.82
3687,4.00,0.40,-27.93,-50.293,-82.520,1042.969,-10.95,-3.75,-33.75,17.53
3697,2.69,3.91,-23.60,-136.719,-69.336,1068.359,-7.95,-4.35,-32.40,17.82
3707,-1.96,3.15,-23.73,135.742,-116.699,1372.559,-7.95,-4.35,-32.40,17.97
3717,3.40,-1.76,-20.66,36.133,-293.945,745.117,-8.40,-5.10,-33.45,17.82
3727,0.18,1.60,-28.54,104.004,-120.605,1439.941,-9.60,-3.90,-34.20,17.87
3737,-4.36,0.11,-21.15,-293.945,-433.105,604.980,-8.70,-4.65,-34.20,17.82
3747,-1.71,1.06,-20.00,-104.004,-334.961,1046.387,-9.00,-3.30,-33.75,17.68
3759,0.16,-0.47,-25.47,104.492,-144.043,1163.574,-7.95,-4.65,-31.65,17.82
3769,-1.63,-1.77,-24.37,-379.883,-80.566,831.055,-9.60,-3.45,-32.70,17.82
3779,-1.65,-2.37,-21.65,96.191,-50.781,1155.762,-9.60,-3.45,-32.70,18.01
3789,4.19,-2.24,-22.21,-126.953,-260.742,650.391,-10.35,-5.10,-31.65,18.06
3799,7.34,2.05,-22.17,-54.199,-88.379,1433.594,-9.00,-3.75,-34.50,17.82
3809,9.70,-5.84,-26.72,185.547,-191.895,991.211,-9.75,-4.05,-32.55,17.68
3819,3.12,-0.31,-23.33,-128.906,-253.418,1094.238,-8.70,-3.45,-32.70,18.06
3831,5.62,-0.87,-21.37,201.172,-259.766,1082.031,-8.70,-3.45,-32.70,18.01
3841,0.42,-0.34,-26.99,330.566,-305.176,907.227,-9.00,-4.50,-33.75,17.82
3851,-3.72,-0.08,-22.07,-202.637,-186.035,362.305,-9.60,-3.15,-34.20,17.68
3861,-4.66,2.88,-20.11,56.152,-151.855,1186.523,-9.90,-2.25,-34.65,18.06
3871,-6.43,1.08,-23.44,-344.238,84.961,1309.082,-8.25,-3.75,-33.75,17.97
3881,-5.56,3.27,-21.08,-88.379,-11.230,1042.969,-8.25,-3.75,-33.75,18.21
3891,-2.90,2.50,-21.66,-361.816,-18.555,746.094,-9.15,-3.15,-34.65,17.87
3903,3.12,5.16,-20.28,102.539,-88.379,1291.992,-7.95,-3.45,-34.20,17.87
3913,-0.59,-1.20,-24.28,-385.254,-354.004,903.320,-7.95,-3.45,-34.20,18.01
3923,2.06,-1.34,-19.11,-103.027,-123.047,1062.988,-8.55,-2.55,-34.50,18.01
3933,-2.21,-5.07,-24.63,62.500,-244.141,739.258,-7.35,-2.55,-34.80,17.77
3943,-2.01,-2.85,-27.45,160.156,-466.797,723.633,-8.25,-2.55,-34.05,17.97
3953,-24.24,-0.31,-9.08,166.016,-31.250,1291.992,-6.45,-1.95,-33.45,18.16
3963,-5.89,-15.80,-53.96,-165.039,-191.406,680.176,-6.45,-1.95,-33.45,17.87
3975,0.47,-6.60,-22.67,29.297,-197.754,954.102,-5.70,-0.75,-33.90,18.01
3985,1.38,-7.18,-28.99,98.145,-132.324,907.715,-6.15,-1.50,-34.95,18.06
3995,6.35,-2.45,-23.28,44.922,-63.965,940.430,-7.65,-1.50,-33.90,17.82
4009,7.67,0.21,-24.66,89.355,123.535,1141.602,-5.85,-3.30,-33.00,17.87
4019,8.82,2.30,-21.72,-71.777,-197.266,646.973,-7.65,-3.45,-32.70,18.16
4029,10.37,5.69,-17.73,59.082,-292.969,1235.352,-7.35,-1.35,-33.00,18.16
4039,3.16,4.53,-24.82,-238.281,-326.660,965.820,-7.35,-1.35,-33.00,18.16
4051,-3.60,2.24,-24.24,221.680,-341.797,1035.645,-6.30,-1.65,-34.05,18.01
4061,-7.15,2.12,-29.95,-66.895,-159.668,1045.898,-7.05,0.15,-33.75,17.87
4071,-3.28,2.67,-24.52,-18.555,76.172,1528.320,-7.65,-2.25,-34.20,17.87
4081,-1.23,-3.98,-22.99,-319.824,38.086,1234.863,-6.15,-1.95,-34.20,17.49
4091,4.56,0.48,-25.53,-13.184,-29.785,840.820,-6.15,-1.95,-34.20,18.16
4101,6.45,-0.38,-22.17,-95.215,-125.000,686.523,-5.70,-1.95,-33.15,18.01
4111,8.97,-4.55,-24.53,234.375,-122.559,1132.813,-5.55,-2.55,-34.80,17.82
4123,10.36,-1.66,-25.85,-390.137,-137.695,1184.570,-6.60,-2.85,-33.30,18.01
4133,5.34,0.27,-27.68,-70.801,-350.586,981.934,-5.25,-1.95,-32.40,17.87
4143,-3.13,1.82,-28.63,-107.422,-262.207,825.195,-5.25,-1.95,-32.40,18.06
4153,2.09,-0.32,-24.82,-208.008,-286.133,858.398,-6.90,-3.45,-34.95,18.01
4163,-5.78,0.34,-23.27,243.652,-54.199,1265.625,-4.50,-2.25,-33.45,17.77
4173,-4.62,-5.69,-24.27,194.336,-249.023,570.801,-4.50,-2.25,-33.45,18.06
4183,-7.92,-5.60,-28.12,186.035,-86.914,1292.480,-6.15,-3.45,-33.15,18.16
4195,4.05,-6.23,-27.89,104.492,29.297,901.855,-5.10,-1.65,-33.30,18.06
4205,-0.39,-5.24,-27.52,-125.488,-94.238,1295.898,-5.85,-2.55,-34.05,18.06
4215,13.05,-17.58,-51.89,-56.641,-31.250,648.926,-3.75,-2.70,-33.15,17.82
4225,2.97,-2.15,-3.34,43.457,-22.461,1144.531,-3.75,-2.70,-33.15,17.97
4235,-3.17,-0.85,-34.12,-235.840,-366.211,870.605,-6.15,-2.25,-33.15,17.77
4245,-3.31,-4.40,-30.41,460.449,-43.457,1101.563,-4.80,-1.35,-33.00,17.68
4255,-5.90,1.69,-23.92,26.367,47.852,744.141,-7.65,-1.95,-34.20,17.87
4266,-0.34,3.99,-26.93,157.227,159.180,1088.867,-4.35,-0.90,-33.00,17.82
4276,8.74,1.60,-29.58,-71.289,-142.578,747.559,-5.70,-0.75,-35.40,17.87
4286,4.37,3.41,-24.27,275.391,-55.176,1433.105,-5.70,-3.90,-33.45,17.77
4296,11.02,-1.70,-22.64,-110.352,-353.027,979.980,-4.50,-0.30,-33.15,18.21
4306,5.04,6.08,-25.66,229.004,-639.648,1607.422,-4.50,-0.30,-33.15,17.82
4316,-4.24,0.04,-24.15,-300.781,-721.191,1306.152,-4.95,-1.95,-34.20,17.63
4326,-2.25,6.03,-17.88,65.918,-279.297,1164.551,-5.25,-0.30,-34.20,17.87
4338,-1.40,1.90,-20.11,-25.391,122.559,690.430,-6.30,-0.90,-35.25,17.82
4348,12.04,3.23,-21.69,288.086,44.922,1032.715,-4.50,-1.50,-33.45,17.77
4357,6.64,1.01,-29.18,-283.203,-356.445,733.887,-4.50,-1.50,-33.45,18.01
4367,10.66,3.08,-21.02,531.738,-383.789,801.270,-4.20,-1.50,-35.40,18.06
4377,-0.90,-3.49,-31.28,181.152,-116.211,1096.191,-3.45,-0.30,-35.40,18.06
4387,-0.34,-6.72,-30.66,-125.488,-417.969,1485.840,-3.45,-0.30,-35.40,17.77
4400,-1.59,-5.37,-25.60,-76.172,-291.504,1045.898,-4.35,-0.45,-34.80,17.82
4409,-5.19,-5.14,-23.49,-365.723,146.973,1617.188,-4.35,-0.45,-34.80,17.77
4419,-1.18,-8.87,-29.19,220.215,32.227,495.117,-3.75,-1.65,-32.25,18.01
4429,-1.05,-6.73,-22.28,-143.555,79.102,1196.777,-3.75,-1.05,-35.70,18.01
4439,4.82,-5.84,-22.40,1.465,-127.930,1041.992,-3.75,-1.05,-35.70,18.16
4449,-3.66,-3.02,-26.76,-364.258,106.934,1473.145,-2.40,-1.65,-34.20,17.97
4459,9.04,-1.51,-20.63,16.113,-124.023,1077.148,-2.40,-1.65,-35.55,17.77
4471,1.66,-1.41,-23.85,-96.191,-132.812,666.992,-2.55,-0.30,-34.95,18.06
4481,-0.86,5.75,-25.39,-117.188,56.152,1360.352,-2.55,-0.30,-34.95,17.97
4491,2.95,-3.37,-19.31,25.879,-249.512,652.832,-2.55,0.00,-34.65,17.68
4501,-2.34,-1.07,-27.50,-256.348,41.504,1740.723,-4.50,-1.50,-36.15,18.06
4511,-1.97,-3.09,-23.63,225.098,-285.645,874.023,-4.50,-1.50,-36.15,17.97
4526,-3.85,-1.89,-22.82,421.387,-23.926,1124.023,-3.60,0.15,-37.05,18.01
4535,-5.67,-5.11,-26.19,193.848,-271.973,847.168,-2.25,0.00,-35.70,17.68
4547,-5.73,-5.92,-22.08,-105.469,82.520,990.234,-1.05,0.00,-36.15,17.77
4557,-1.65,-5.69,-23.09,-59.082,-74.219,1143.066,-2.55,-0.30,-37.65,17.82
4567,0.45,-4.98,-21.46,225.098,-99.121,652.344,-2.55,-0.30,-37.65,17.87
4577,7.02,-1.49,-14.60,463.867,-331.055,1010.742,-1.05,-0.75,-37.65,18.01
4587,1.92,-4.15,-19.46,100.586,-211.914,909.180,0.15,-3.30,-35.55,18.06
4597,4.41,-2.40,-21.11,65.430,-85.449,1332.031,0.00,0.30,-36.15,18.06
4606,1.02,-4.69,-23.89,41.992,-410.156,286.621,-0.30,-2.70,-33.90,17.63
4618,-0.18,-3.05,-24.76,149.414,-138.184,299.316,-0.30,-2.70,-33.90,17.87
4628,9.40,0.15,-18.76,388.672,45.898,1191.895,0.30,-3.15,-34.95,17.87
4638,1.08,4.89,-18.18,-148.926,-240.234,780.273,0.00,-1.05,-30.90,17.97
4648,7.95,2.99,-23.43,237.793,-240.723,999.512,0.00,-1.05,-30.90,18.16
4658,3.44,4.15,-21.87,99.121,-215.332,768.066,-0.15,-0.90,-31.50,18.06
4668,-3.02,4.24,-20.60,82.031,-436.523,1129.395,0.00,-0.30,-33.90,17.77
4678,-8.58,0.42,-20.87,183.594,-290.527,1383.789,-1.80,-1.50,-32.70,17.97
4690,-1.40,0.77,-19.73,374.023,-183.105,926.270,0.30,0.75,-31.65,17.87
4700,-4.96,1.38,-30.20,-157.227,-92.285,1041.016,-0.15,-2.55,-31.50,17.97
4710,1.49,3.57,-27.63,277.832,274.902,1622.559,-0.30,-0.75,-34.20,17.53
4719,1.64,0.16,-30.96,209.473,-439.941,725.586,-0.30,-0.75,-34.20,17.87
4729,12.40,-1.66,-25.24,133.301,-563.965,1053.223,0.90,-2.10,-33.00,18.01
4739,0.03,-0.62,-32.19,-91.309,-575.195,536.133,0.15,-0.45,-34.05,18.01
4749,6.10,1.61,-30.66,240.234,-450.684,1394.531,0.15,-0.45,-34.05,17.82
4761,7.76,3.61,-29.66,85.938,-200.684,1132.813,-1.05,0.75,-34.20,18.01
4771,6.29,7.06,-28.42,-173.340,-291.016,616.211,-1.05,0.75,-34.20,17.82
4781,4.23,-0.22,-32.43,-184.082,-345.703,1977.539,-0.90,-0.15,-34.50,17.53
4791,-3.87,2.68,-28.00,98.145,-390.625,1703.125,0.15,-1.35,-31.05,18.01
4801,-19.29,-7.18,-27.11,227.539,-398.437,695.312,-0.30,0.75,-34.20,18.06
4811,-25.19,-3.96,-34.47,-94.727,196.777,1177.734,-0.75,-1.95,-32.70,17.87
4821,-16.21,-1.68,-23.80,-32.715,397.461,1215.332,-0.75,-1.95,-32.70,18.16
4833,-11.31,0.57,-24.70,-125.000,-19.531,1505.371,-0.75,-2.25,-32.70,18.16
4843,-0.16,-4.91,-33.89,-94.727,-101.074,679.199,1.50,-1.05,-31.65,18.16
4853,-5.36,3.82,-26.64,-97.168,373.047,1130.371,-0.75,-0.30,-33.45,17.97
4863,1.92,0.15,-27.08,650.391,103.027,980.469,1.20,-0.90,-31.05,17.68
4873,-9.29,0.80,-25.01,-378.418,-421.875,800.293,1.20,0.15,-33.00,17.87
4883,5.41,4.09,-93.97,29.297,-196.289,970.703,2.25,-1.95,-32.40,17.97
4892,-4.34,0.04,-63.61,112.305,-286.621,604.492,2.40,0.15,-32.25,18.16
4903,-7.66,5.18,-17.18,43.457,-643.555,685.059,2.40,0.15,-32.25,17.77
4913,-18.18,2.17,-23.73,-248.047,-27.832,753.418,1.50,-0.30,-32.40,17.77
4923,-17.74,0.22,-25.73,73.730,-76.660,1039.063,1.05,-1.50,-33.45,18.16
4933,-16.81,-7.39,-15.21,752.441,-393.066,1537.598,2.25,-1.05,-30.45,17.82
4943,-29.31,-9.21,-25.92,-126.465,-172.363,1099.609,0.45,-2.85,-34.05,18.01
4953,-20.89,-16.35,-22.57,-414.551,366.211,1999.939,0.45,-2.85,-34.05,18.06
4963,-1.41,-11.86,-21.50,-120.605,1073.242,1269.531,1.20,-1.65,-31.80,18.16
4975,35.96,-11.88,-17.58,367.187,-132.324,1979.980,3.00,-3.90,-31.20,18.16
4985,38.07,-13.58,-24.14,279.297,-949.219,1423.828,2.10,-1.65,-32.55,17.87
4995,22.30,-13.12,-24.53,-21.973,-1185.059,1339.355,1.65,-2.55,-30.75,17.97
5005,12.14,-14.49,-22.40,223.633,-633.301,691.895,1.05,-1.05,-33.45,18.16
5015,-4.61,-18.36,-25.26,-50.781,-612.793,1646.484,3.15,-3.30,-31.50,17.77
5025,-54.84,-6.68,-82.24,-273.437,-161.133,904.785,1.50,0.00,-33.45,17.87
5042,-8.44,-14.08,-28.74,222.656,56.641,1197.266,1.50,-1.95,-31.65,18.01
5051,4.92,-8.77,-26.89,39.551,-464.844,178.223,2.85,-2.85,-30.75,18.06
5061,4.36,-11.27,-25.88,550.781,-44.922,976.074,1.20,-0.45,-33.00,17.68
5071,-3.85,-12.24,-23.46,-477.539,-312.500,1256.836,3.90,-2.85,-31.05,17.87
5081,-6.91,-19.13,-28.51,823.242,355.469,826.660,3.90,-2.85,-31.05,18.01
5091,7.02,-16.28,-18.62,3.906,-444.336,1412.598,1.20,-3.30,-31.05,18.01
5101,-1.73,-15.44,-21.55,-533.203,92.773,1440.430,1.80,0.00,-32.40,18.16
5113,-8.88,-13.99,-61.91,571.777,-442.871,565.430,1.80,0.00,-32.40,18.01
5123,-16.86,-12.03,-34.34,-76.660,124.023,733.887,0.45,0.15,-33.00,18.16
5133,-12.95,-14.65,-29.57,65.430,-402.832,966.309,0.75,-3.45,-31.65,17.87
5143,-0.41,-10.92,-22.44,262.207,13.184,739.258,0.45,-0.15,-34.50,17.77
5153,-3.18,-12.14,-23.53,408.691,-303.711,1054.199,0.00,-3.45,-31.95,18.06
5163,-10.98,-8.73,-30.93,-73.730,-211.426,1109.375,0.00,-3.45,-31.95,18.01
5173,-9.05,-9.82,-22.51,178.223,-81.543,1480.469,0.15,-3.30,-32.55,18.16
5185,-15.35,-12.73,-21.68,-12.207,-237.793,935.059,1.05,-2.70,-33.15,18.01
5195,-18.08,-2.27,-34.72,-58.594,-107.422,1378.418,-0.45,-2.85,-33.00,18.06
5205,-17.40,2.45,-40.18,-16.602,354.492,1999.939,0.30,-1.05,-32.70,18.06
5215,-3.89,15.58,-33.02,-314.941,448.730,1660.156,0.30,-1.05,-32.70,18.06
5225,31.35,20.31,-12.62,-218.750,125.977,988.770,1.80,-1.50,-32.70,17.63
5235,22.01,17.50,-28.32,-16.113,-666.016,867.676,0.30,-1.95,-33.15,17.97
5245,5.33,17.31,-29.47,-75.684,-304.687,1123.047,0.30,-1.95,-33.15,18.01
5257,-15.14,17.63,-32.94,-604.492,-403.320,672.363,0.30,-0.75,-33.90,18.06
5267,-9.19,10.95,-30.88,534.668,-526.855,751.953,1.65,-2.55,-32.55,17.77
5277,-21.22,1.53,-22.98,281.250,20.020,1010.254,1.20,-1.65,-35.55,17.82
5286,-11.22,-10.69,-24.87,598.145,144.043,1440.918,2.55,-3.45,-33.45,17.82
5296,10.82,-3.10,-8.96,599.121,14.160,1396.484,2.55,-3.45,-33.45,17.77
5306,18.84,-5.60,-34.02,365.234,-190.430,1267.090,3.15,-1.65,-31.80,18.01
5316,36.41,-5.74,-25.11,331.543,-322.754,1612.793,1.80,-2.70,-34.20,18.16
5328,16.95,-0.82,-24.76,-220.703,-533.203,580.078,3.75,-1.05,-32.40,17.97
5338,-6.12,0.92,-28.61,-120.605,-544.434,814.453,1.80,-1.05,-33.45,17.97
5348,-2.23,5.34,-29.54,-147.949,-236.816,623.047,1.80,-1.05,-33.45,18.01
5358,-10.15,-0.37,-30.75,146.973,-139.160,1276.855,2.10,-0.90,-34.05,18.16
5368,-13.67,3.39,-26.26,-86.426,240.234,1009.766,2.40,-2.10,-31.50,18.01
5378,-4.36,6.30,-22.60,177.734,272.949,790.039,2.40,-2.10,-31.50,17.68
5387,5.90,7.34,-24.89,270.996,-340.820,1451.660,3.00,-1.05,-31.95,17.87
5398,0.95,-4.69,-33.77,-51.270,-51.758,924.316,1.80,-0.75,-33.90,17.97
5408,7.89,11.16,-21.39,216.309,-85.449,1127.930,3.45,-3.15,-31.95,17.97
5418,19.09,6.31,-32.12,442.383,3.418,1025.391,2.85,-2.55,-33.75,18.16
5428,6.42,3.24,-28.90,401.855,-66.895,1138.184,2.85,-2.55,-33.75,17.87
5437,10.65,3.02,-28.22,85.449,-1057.617,931.152,3.75,-1.05,-35.40,17.87
5447,-0.18,1.82,-29.36,417.969,-1012.207,1257.324,4.50,-2.70,-31.95,18.21
5457,-12.92,-3.35,-32.16,41.016,-438.477,1999.939,3.75,-0.30,-34.65,17.87
5469,-5.01,-3.41,-17.04,33.203,181.641,1209.473,4.20,-3.15,-31.20,17.87
5479,-9.31,3.36,-27.89,-174.316,388.672,1210.449,4.20,-3.15,-31.20,18.16
5489,-3.93,-0.30,-25.53,23.926,59.570,1293.457,5.85,-1.65,-31.50,18.06
5499,-1.22,-2.90,-24.16,-76.660,190.430,1574.707,4.20,0.00,-35.40,17.82
5509,-7.44,0.52,-34.35,-12.207,26.367,603.516,4.20,0.00,-35.40,17.82
5519,-10.17,0.85,-27.59,-273.437,-165.039,1064.453,3.90,-1.35,-34.80,18.01
5529,-13.08,2.65,-28.90,205.566,-535.156,223.145,6.30,-3.30,-31.50,17.87
5541,8.66,4.79,-29.14,-34.180,-236.328,1189.941,3.60,-1.35,-34.80,17.97
5556,-0.70,-0.11,-31.98,214.844,-32.227,977.539,5.70,-2.25,-31.95,18.21
5565,-4.02,2.40,-29.54,3.418,-240.723,1050.293,6.45,-1.05,-31.65,17.97
5575,-4.50,0.97,-29.54,375.977,-413.086,610.840,4.95,-1.95,-33.45,17.82
5585,3.05,1.69,-26.98,588.379,-515.625,1009.277,6.90,-0.75,-31.20,18.06
5595,1.45,1.55,-35.90,63.965,-200.684,1472.168,4.35,-1.65,-35.25,17.87
5604,-6.96,-1.39,-21.11,430.176,-235.840,642.090,4.35,-1.65,-35.25,18.01
5616,-2.51,-2.88,-32.43,-8.301,-232.422,800.781,5.55,-2.55,-34.05,18.16
5626,-2.48,-4.63,-28.75,81.543,-374.023,826.172,8.25,0.15,-31.50,18.01
5636,0.91,-2.24,-38.31,134.766,-524.902,860.840,8.25,0.15,-31.50,18.01
5646,-1.65,-1.86,-34.52,-34.668,-440.430,895.996,6.45,0.30,-34.20,17.82
5656,11.82,-1.50,-14.54,186.035,-361.328,1308.105,6.90,-3.15,-33.15,18.16
5666,0.08,0.83,-47.85,-10.742,-294.922,822.266,7.65,0.00,-33.90,18.01
5675,-0.09,5.23,-31.93,95.703,-346.191,1234.375,7.35,-3.30,-33.30,18.16
5687,0.71,3.23,-33.92,146.973,-250.000,1258.301,7.35,-3.30,-33.30,18.16
5697,-1.63,5.14,-36.27,67.871,-633.789,768.066,7.65,-4.35,-32.40,18.06
5707,4.16,1.85,-32.75,-214.844,-599.121,741.211,7.65,-1.05,-35.70,18.16
5717,-3.25,-3.66,-35.68,-94.238,-261.230,1056.152,9.15,-3.45,-32.40,17.87
5727,-0.45,-1.14,-42.66,174.316,-417.480,1434.082,7.20,-1.50,-34.95,18.16
5737,-2.75,-5.37,-44.96,-110.840,-509.766,1144.531,7.20,-1.50,-34.95,17.97
5747,0.79,-1.47,-35.27,246.094,-479.004,1043.457,7.95,-2.25,-34.65,18.16
5759,-3.76,-3.54,-45.54,240.234,-445.801,1212.891,9.00,-1.65,-32.55,18.16
5769,-6.58,0.56,-34.15,-398.437,-267.090,1088.379,9.00,-1.65,-32.55,18.06
5779,-0.77,-4.27,-48.47,215.820,-356.934,997.070,9.75,-0.90,-33.00,18.01
5789,0.17,-2.82,-29.51,-38.086,-735.352,779.297,8.55,-4.50,-33.00,17.82
5799,2.12,-0.38,-45.11,134.277,-455.566,917.969,9.15,-1.50,-32.70,17.82
5809,1.98,2.56,-39.60,-0.488,-512.695,884.277,9.15,-5.10,-33.90,18.01
5819,1.40,-9.67,-45.19,442.871,-314.453,1012.207,9.15,-5.10,-33.90,18.16
5831,-13.58,-6.91,-40.68,-20.508,-488.770,1947.266,9.90,-3.90,-32.40,18.21
5841,-17.47,-2.96,-44.86,-215.332,-44.922,481.445,8.55,-1.65,-34.80,18.06
5851,-1.51,-7.34,-41.44,-140.625,-320.312,1031.250,10.65,-3.15,-31.20,18.16
5861,5.91,-4.35,-46.54,183.594,-449.707,409.180,9.60,-2.70,-34.20,18.16
5871,14.53,4.43,-41.43,83.496,-423.340,688.477,9.60,-2.70,-34.20,17.68
5881,7.32,-2.84,-36.82,390.137,-685.547,795.410,9.90,-3.90,-33.45,17.82
5891,11.27,4.20,-36.97,302.734,-1129.883,583.984,10.65,-0.75,-34.65,18.01
5903,-9.73,-1.35,-37.66,-335.937,-657.227,944.336,10.35,0.30,-35.70,18.01
5913,-23.98,0.27,-39.45,-13.672,-770.996,932.129,11.70,-4.05,-33.30,17.87
5923,-5.91,0.00,-38.01,-218.750,-543.945,506.348,10.50,-2.55,-34.80,18.06
5933,-7.64,1.88,-36.67,-212.402,-777.832,857.422,11.70,-2.10,-32.55,18.16
5943,-3.76,2.04,-45.96,10.254,-233.887,728.027,11.70,-2.10,-32.55,18.01
5953,0.17,9.82,-55.32,-220.703,-624.512,841.309,13.50,-2.85,-34.80,17.82
5966,4.75,3.66,-49.21,-217.773,-412.598,942.383,12.30,-4.35,-34.20,18.06
5976,7.66,11.69,-54.82,-88.867,-398.437,1263.184,13.20,-2.55,-34.80,18.16
5986,5.34,10.48,-58.80,-238.770,-593.262,1267.090,11.10,-4.35,-34.95,17.77
5996,9.22,10.47,-55.92,-380.859,-1004.395,1072.266,12.75,-3.30,-34.50,17.77
6006,14.29,15.66,-59.47,201.172,-907.227,993.164,13.35,-4.35,-34.95,18.16
6015,-3.83,5.59,-60.25,-194.824,-1190.430,626.953,13.20,-1.35,-36.00,18.16
6025,-11.24,3.43,-59.05,119.141,-1099.609,1926.270,13.20,-1.35,-36.00,18.01
6037,-9.40,-2.24,-67.95,229.492,-487.793,1347.168,13.80,-4.35,-36.60,18.06
6047,-1.93,-1.02,-58.34,-258.789,-337.891,1249.512,16.50,-3.45,-34.95,18.06
6057,2.14,0.79,-67.28,-407.227,-489.746,1345.703,13.50,-5.25,-35.55,17.82
6079,-5.37,0.93,-61.05,-120.117,-574.219,587.402,14.40,-3.75,-35.55,18.06
6088,-0.35,-5.22,-64.19,48.828,-767.578,563.965,15.15,-4.05,-36.00,18.06
6098,6.37,2.60,-64.96,-399.902,-770.508,654.785,15.75,-5.55,-34.20,18.16
6108,9.31,-2.57,-62.52,224.609,-86.914,1301.758,15.15,-3.75,-36.00,18.06
6120,-2.09,-0.40,-57.32,-137.695,-781.738,979.492,16.50,-4.65,-37.35,18.01
6130,1.24,0.89,-67.29,-253.906,-514.160,657.227,16.65,-4.95,-37.05,17.87
6140,4.25,-5.76,-60.74,-37.109,-997.559,524.414,17.40,-4.05,-36.30,18.01
6150,-0.90,-4.66,-62.14,-596.191,-793.945,1454.590,17.10,-4.95,-36.30,17.82
6160,-14.12,0.59,-63.24,-461.426,-135.254,899.414,17.10,-4.95,-36.30,17.77
6170,-1.48,8.73,-57.53,-379.883,-1136.230,624.512,17.40,-5.25,-37.05,18.06
6180,-4.98,3.66,-64.90,-453.125,-319.824,1047.363,17.55,-5.55,-37.35,18.21
6192,1.42,6.59,-59.28,-420.410,-619.629,1252.930,17.55,-5.55,-36.15,17.87
6202,1.96,6.95,-54.33,-68.359,-790.527,778.809,16.20,-6.15,-36.00,18.01
6212,-0.44,6.87,-59.40,-151.367,-779.297,1284.180,16.20,-6.15,-36.00,18.21
6222,7.34,4.45,-55.68,-233.398,-801.270,1084.961,19.20,-7.05,-37.35,17.87
6232,7.46,-0.48,-58.76,-185.547,-659.668,1143.066,18.15,-6.45,-36.30,17.82
6242,5.11,2.78,-60.08,-271.484,-511.230,1030.273,18.15,-5.70,-37.80,18.06
6252,4.89,3.82,-55.47,56.152,-783.203,1106.934,18.15,-6.45,-36.75,18.01
6264,-0.96,0.96,-54.10,-356.934,-830.566,1552.246,18.15,-7.35,-38.25,17.82
6274,-2.17,1.17,-56.18,-134.277,-703.125,1307.617,18.90,-6.45,-37.50,17.87
6284,0.04,-5.66,-59.56,-504.883,-112.305,1234.863,18.90,-6.45,-37.50,18.21
6294,8.96,-3.98,-58.95,486.328,-1002.930,825.684,19.95,-9.15,-36.15,17.97
6304,4.09,2.09,-57.60,-157.227,-256.348,1002.930,20.10,-7.65,-37.05,18.16
6314,2.56,-3.02,-63.51,-546.387,-468.262,1637.695,19.35,-8.10,-37.05,17.77
6326,5.82,1.81,-55.37,145.508,-457.031,1153.320,20.55,-6.45,-38.25,18.01
6336,-0.58,-4.83,-51.23,-266.113,-654.785,1319.824,20.55,-6.45,-38.25,17.68
6346,-10.93,-4.89,-49.70,20.020,-74.707,954.102,18.60,-7.35,-38.55,18.21
6356,-5.76,-5.30,-52.48,-356.445,-354.980,1125.977,19.35,-9.75,-35.55,18.16
6366,-6.27,-4.37,-51.60,-272.461,-142.578,1051.270,19.35,-9.75,-35.55,18.30
6376,-1.63,-5.69,-44.02,144.531,-353.516,1108.398,20.10,-9.75,-35.55,18.06
6386,-6.31,-4.71,-48.90,-248.535,200.684,1447.266,20.25,-8.25,-37.35,18.16
6398,7.47,-3.32,-35.79,220.703,-777.344,882.812,20.70,-8.25,-35.70,18.06
6408,1.06,3.08,-40.15,-164.551,-645.508,641.113,20.10,-10.50,-37.05,18.01
6418,-5.53,-4.24,-53.80,4.395,-460.449,1059.570,20.10,-10.50,-37.05,17.82
6428,0.21,1.31,-43.83,-256.836,-690.430,1085.938,21.30,-10.50,-37.50,18.01
6438,-1.08,5.52,-39.05,83.496,-664.551,294.922,22.20,-9.15,-36.90,18.01
6448,0.12,2.98,-46.83,150.879,-457.031,1089.355,21.30,-10.50,-36.75,18.06
6457,0.92,2.03,-41.13,132.812,-609.375,1319.336,20.70,-9.45,-37.65,18.21
6469,0.11,-1.60,-50.44,-119.141,-69.824,1857.422,20.70,-9.45,-37.65,17.87
6479,3.15,-4.43,-49.21,-32.715,-718.750,766.602,21.30,-9.75,-37.50,18.01
6489,0.55,-4.56,-50.87,39.551,-351.562,1238.770,22.05,-11.70,-36.75,17.82
6499,2.37,-4.11,-57.30,-501.953,-80.078,1705.566,22.05,-11.70,-36.75,18.06
6509,6.24,-4.06,-42.08,-67.383,-623.535,1293.457,23.40,-10.65,-36.60,17.97
6519,2.31,-5.95,-54.63,33.203,-217.773,1374.023,22.80,-12.15,-37.80,18.21
6529,6.58,-6.40,-50.20,-236.328,-264.160,1251.465,22.95,-10.35,-37.65,18.16
6541,9.47,-5.16,-49.31,-93.750,-652.344,1274.902,22.05,-11.70,-37.80,18.01
6551,6.30,-5.17,-42.05,291.504,-447.266,870.117,22.05,-11.70,-37.80,18.35
6561,9.82,-0.44,-47.95,158.691,-382.812,866.211,22.80,-12.15,-35.55,18.21
6571,4.32,0.06,-44.28,47.852,-732.910,853.516,22.20,-11.55,-38.10,17.97
6580,-4.77,0.38,-43.52,176.758,-416.016,857.910,22.80,-12.45,-36.00,18.21
6596,-4.38,-0.14,-45.01,-62.012,-770.508,1519.043,22.35,-13.20,-38.25,18.21
6605,-10.98,4.36,-42.36,-162.598,-337.891,996.582,22.80,-13.20,-37.50,18.16
6617,-6.27,4.11,-50.40,-115.723,-562.988,791.992,21.90,-11.55,-37.35,18.01
6627,-3.21,8.11,-46.17,-335.449,-509.277,963.867,21.90,-11.55,-37.35,18.06
6637,0.11,4.50,-44.50,-525.879,-379.395,1420.898,23.25,-12.15,-36.75,18.01
6647,3.85,0.64,-42.76,-229.004,-647.949,926.270,24.00,-14.10,-37.80,17.97
6657,4.08,2.66,-45.27,-196.777,-646.973,868.164,24.00,-12.45,-37.80,18.01
6667,-2.56,3.86,-43.05,-332.031,-766.113,1071.777,23.55,-12.90,-36.75,18.21
6677,-0.92,6.77,-43.26,-322.266,-169.434,1099.121,23.55,-12.90,-36.75,18.06
6689,-0.69,2.81,-31.31,-123.535,-290.527,1118.164,24.30,-14.10,-37.50,18.21
6699,-7.79,5.36,-41.86,161.133,-349.609,953.125,22.65,-12.30,-37.65,18.16
6709,-13.34,8.16,-45.14,-103.027,26.367,1646.484,24.60,-14.70,-36.15,18.30
6719,4.09,3.91,-50.29,-279.785,-120.117,1253.418,24.30,-15.60,-38.55,17.87
6729,-4.41,8.24,-36.22,-24.414,16.602,1507.324,24.30,-15.60,-38.55,18.16
6739,-1.00,7.65,-45.84,-263.672,-181.152,1283.203,25.05,-16.80,-37.80,18.16
6749,9.40,6.13,-49.73,-292.480,10.254,1395.996,24.90,-13.50,-38.85,18.16
6761,11.74,9.03,-37.12,169.922,-439.453,1318.359,24.90,-13.50,-38.85,18.06
6771,4.95,14.40,-38.87,450.684,-331.543,782.715,23.55,-14.85,-38.55,18.21
6780,0.31,7.84,-39.11,704.102,-737.793,586.426,25.65,-16.20,-38.40,18.01
6790,-12.98,-1.85,-39.67,-40.527,-288.574,1323.730,24.30,-16.50,-40.05,17.82
6800,-8.76,-2.07,-36.31,-100.098,-74.219,926.270,24.30,-16.80,-38.25,18.30
6810,0.27,-4.67,-39.23,-204.102,128.418,1700.195,24.30,-16.80,-38.25,18.01
6822,6.53,-3.37,-44.64,-380.371,-97.656,1099.121,24.60,-15.45,-39.15,18.21
6832,12.98,-12.08,-41.25,191.406,-447.754,1107.910,25.35,-17.40,-36.60,17.97
6842,13.13,-10.05,-36.79,231.445,5.859,762.207,23.25,-17.70,-37.80,18.21
6851,8.89,-3.52,-31.04,-212.402,-294.434,724.121,27.60,-17.10,-35.70,18.01
6861,-2.64,-1.50,-32.78,159.180,-153.320,779.297,27.60,-17.10,-35.70,18.01
6871,-9.86,1.35,-31.16,16.113,-590.332,821.777,24.90,-16.65,-36.90,18.16
6881,-7.60,-0.67,-26.57,202.637,-469.238,1311.523,24.30,-18.00,-36.30,18.16
6893,-12.89,0.39,-35.11,-151.367,-100.586,1307.129,24.30,-18.00,-36.30,17.97
6903,1.92,0.84,-25.53,484.375,-649.414,518.066,24.75,-17.70,-36.00,18.16
6913,-1.62,-7.00,-19.36,105.469,-508.301,1717.773,24.30,-18.45,-37.80,17.82
6923,-1.35,6.21,-26.05,-118.652,-224.609,1447.266,24.90,-17.40,-36.90,18.06
6933,0.56,4.47,-34.89,188.477,-909.668,392.578,23.70,-18.60,-38.10,17.87
6943,3.00,5.67,-35.00,232.910,-675.293,1051.270,23.70,-18.60,-38.10,17.82
6952,-1.43,4.91,-38.55,-102.539,-566.895,822.754,25.50,-20.10,-38.25,18.16
6964,-3.56,2.09,-28.28,-59.082,-439.453,1257.813,25.05,-17.25,-38.25,18.16
6974,-9.23,0.79,-38.56,276.855,-343.262,1273.438,25.35,-19.05,-36.60,18.16
6984,-5.60,1.31,-38.13,421.875,-479.980,1036.621,24.90,-18.60,-39.15,18.06
6994,-10.26,-2.52,-43.82,-79.590,-367.187,1248.047,24.90,-18.60,-39.15,18.16
7004,2.57,-2.31,-45.98,-179.199,-426.270,1064.941,24.15,-19.50,-37.65,18.16
7014,13.18,-1.06,-37.32,-183.105,-591.309,1242.188,25.05,-17.70,-38.25,17.87
7024,8.67,1.80,-35.03,-269.043,-935.059,1314.453,25.05,-17.70,-38.25,18.21
7036,0.80,-3.33,-31.79,-331.055,-280.273,1227.539,26.25,-22.05,-37.05,17.87
7046,-3.10,-0.77,-33.33,396.973,-870.117,376.953,24.00,-19.65,-39.30,18.21
7056,-2.76,-3.27,-15.08,343.750,-229.004,1406.738,25.35,-19.80,-36.90,18.01
7066,-19.20,-0.76,-39.40,286.133,-282.715,1105.469,25.35,-19.80,-36.90,18.06
7076,-7.37,0.89,-42.77,-230.957,139.648,860.840,24.15,-19.50,-38.10,18.16
7086,7.75,-1.04,-27.88,505.371,-834.961,150.879,26.10,-22.20,-37.65,17.82
7098,11.31,-7.39,-26.78,-72.754,-725.586,1125.000,24.00,-21.30,-38.25,17.87
7113,13.50,-4.70,-35.73,51.758,-636.230,1468.750,26.40,-19.50,-38.10,18.01
7122,3.84,-1.21,-25.43,-193.359,-630.371,1001.953,26.40,-19.50,-38.10,18.01
7132,-2.56,1.62,-42.18,176.758,-870.117,847.656,27.00,-20.85,-37.05,18.16
7142,-2.50,-1.90,-32.84,442.383,-563.965,1213.867,25.80,-22.80,-37.50,18.16
7152,-8.26,-3.56,-32.23,42.480,-703.613,224.609,25.80,-22.80,-37.50,18.01
7162,-5.37,4.07,-39.50,-505.371,-221.680,1578.613,25.35,-21.00,-38.10,17.77
7174,4.49,3.09,-40.72,220.215,-181.641,1312.500,26.10,-22.20,-39.60,18.16
7184,5.57,2.45,-43.41,81.055,-407.227,1369.629,24.75,-20.40,-39.00,18.01
7193,6.73,1.80,-43.25,295.410,-582.031,1112.793,24.60,-22.65,-38.85,18.16
7203,-1.23,1.27,-34.78,-174.316,-583.984,1221.191,24.60,-22.65,-38.85,18.06
7213,-1.60,0.85,-36.58,90.820,-544.922,871.582,26.40,-21.45,-38.10,18.06
7223,-10.18,1.32,-34.47,-112.305,-313.965,889.160,25.05,-22.50,-40.50,17.87
7235,-2.24,4.94,-34.30,-74.219,-211.426,1313.477,25.80,-22.05,-38.25,18.01
7245,-5.40,1.34,-31.04,127.441,-417.969,1168.945,24.30,-23.70,-38.25,18.01
7255,-2.38,-0.25,-41.81,244.629,-583.984,894.531,24.30,-23.70,-38.25,18.01
7265,-4.19,2.92,-39.17,-35.156,-390.137,1017.090,25.80,-24.00,-38.25,18.01
7275,-1.57,2.08,-35.38,-115.723,-266.113,1130.859,24.30,-23.70,-40.50,18.01
7285,9.50,1.15,-23.39,145.996,-625.977,557.129,24.30,-23.70,-40.50,17.82
7294,2.19,-1.06,-34.56,115.234,-462.402,449.219,25.05,-25.65,-39.00,18.21
7306,-1.19,-0.99,-38.14,44.922,-252.441,1130.371,25.50,-24.45,-39.75,18.01
7316,2.33,-1.38,-35.10,131.836,-166.016,1324.219,24.90,-24.30,-39.60,18.16
7326,0.01,0.01,-36.61,144.043,-372.559,1076.172,24.90,-24.30,-39.60,17.82
7336,0.14,0.78,-33.18,46.875,-470.215,1254.395,26.25,-25.20,-76.20,18.30
7345,-1.82,1.98,-33.43,-66.406,-306.152,1372.070,26.25,-25.20,-37.80,18.21
7355,-5.57,5.29,-1.70,-236.328,-448.730,1186.523,24.30,-23.70,-38.55,18.06
7365,0.62,2.68,-41.40,197.754,-599.121,814.941,25.80,-24.90,-38.55,17.82
7377,2.20,0.10,-26.23,272.461,-114.746,602.539,26.40,-25.80,-38.85,17.97
7387,2.21,4.01,-41.48,153.320,-430.664,833.008,25.05,-26.85,-39.30,18.06
7397,3.50,3.12,-39.31,150.391,-664.551,1329.590,24.30,-25.95,-40.05,17.82
7407,2.73,0.04,-33.28,452.148,-843.750,770.996,24.30,-25.95,-40.05,18.30
7416,7.19,3.85,-35.24,454.590,-745.605,176.758,24.90,-25.95,-40.05,18.16
7426,-4.42,-2.98,-35.35,-257.812,-36.133,1061.523,24.75,-25.95,-40.80,18.06
7436,2.00,-4.89,-25.37,107.422,-1018.066,965.820,24.75,-25.95,-40.80,17.87
7448,-7.34,-5.56,-26.37,-392.578,-445.312,1837.402,24.30,-25.95,-40.50,17.97
7458,5.63,-0.70,-35.11,456.055,-684.082,743.164,24.30,-25.95,-40.50,17.97
7468,-11.27,-4.16,-32.10,-401.855,-512.207,1101.074,26.10,-27.45,-38.40,18.01
7478,-8.02,0.01,-40.83,-200.684,-687.012,1389.648,24.60,-27.75,-40.35,18.16
7488,2.98,1.25,-36.83,278.809,-536.621,1529.785,25.35,-24.30,-38.85,18.16
7498,-9.02,-2.87,-34.38,-133.789,-96.680,1465.820,24.75,-28.35,-37.80,18.30
7510,-4.77,-3.00,-36.92,-8.789,-101.563,720.215,24.75,-28.35,-37.80,18.35
7520,-7.96,2.79,-33.99,-783.203,-537.109,1999.939,24.15,-26.25,-38.40,18.16
7530,4.47,-4.73,-39.51,394.043,-576.172,860.840,24.00,-28.35,-40.05,18.01
7540,-5.26,-1.18,-35.29,-28.809,-94.238,892.090,24.00,-28.35,-40.05,17.87
7550,-0.77,-5.07,-37.81,110.352,-366.699,1438.477,24.75,-28.35,-38.25,17.87
7560,4.76,-1.08,-37.98,286.621,-786.133,616.699,23.55,-28.05,-39.75,18.01
7570,-5.62,3.61,-31.01,-411.621,-387.695,896.973,24.30,-26.85,-38.55,18.35
7582,-2.40,-1.06,-33.50,215.820,-47.852,731.934,24.00,-29.55,-39.30,18.35
7592,-3.82,-3.50,-37.37,-395.996,-338.867,1999.939,24.00,-29.55,-39.30,18.30
7602,18.98,-3.72,-41.95,487.793,-1015.137,467.773,23.70,-27.75,-39.60,18.16
7612,-6.82,0.05,-33.12,-800.293,-207.520,1246.094,25.50,-28.35,-38.25,18.01
7627,-6.23,-10.16,-38.42,512.695,-975.586,770.508,24.60,-27.00,-39.15,18.16
7636,5.40,-2.73,-37.63,53.223,-345.215,890.137,24.00,-28.35,-38.25,18.16
7646,-14.20,-6.33,-35.15,-649.902,-438.965,1999.939,24.00,-28.35,-38.25,18.06
7656,16.27,-8.44,-33.91,617.676,-786.621,554.687,22.95,-29.40,-39.60,18.16
7668,18.66,-0.92,-57.98,905.762,-973.633,-303.711,23.40,-29.40,-37.65,18.21
7678,-3.05,1.70,-38.21,-718.750,97.168,1145.508,23.70,-28.20,-39.60,18.06
7688,-1.83,-5.41,-33.98,54.688,-293.457,1858.887,24.00,-28.80,-37.80,17.77
7698,14.50,-0.37,-32.15,64.941,-423.340,1710.449,22.65,-29.85,-39.15,17.82
7708,-23.16,6.60,-31.23,-934.082,5.371,1155.273,22.80,-28.35,-38.55,18.06
7718,1.17,0.40,-35.37,1046.387,-833.984,-129.883,22.80,-28.35,-38.55,18.16
7728,-17.98,2.50,-31.37,-936.523,411.133,259.277,22.05,-30.75,-40.80,18.16
7740,-5.47,4.82,-34.81,-340.332,-26.367,988.770,22.35,-28.35,-39.30,18.01
7750,-0.98,-5.00,-32.57,397.949,-552.734,1135.742,22.95,-31.05,-38.40,18.21
7760,5.68,0.92,-40.03,-88.379,-599.609,467.773,21.90,-28.65,-40.35,18.16
7770,1.50,-3.21,-37.48,412.109,-547.852,1805.176,21.90,-28.65,-40.35,17.82
7780,4.69,1.04,-41.21,10.254,-448.242,1043.457,22.35,-30.75,-38.25,17.87
7790,-0.31,-5.05,-36.58,172.852,-464.355,1999.512,22.20,-29.40,-39.15,18.06
7802,-10.96,-1.47,-35.99,-439.941,-562.012,1217.285,22.20,-29.40,-39.15,18.21
7812,8.08,1.21,-31.88,412.598,-501.953,1270.996,23.40,-32.55,-37.65,18.16
7822,-14.39,-2.63,-41.15,-707.520,-140.625,1229.004,22.05,-31.20,-39.30,18.21
7832,7.16,4.11,-32.33,728.516,-631.348,450.684,22.20,-30.15,-39.15,18.21
7842,-11.43,-4.46,-35.92,-1008.789,-134.766,752.930,22.35,-33.60,-38.55,18.16
7852,23.98,-2.25,-29.92,1125.000,-576.660,275.879,22.35,-33.60,-38.55,18.06
7862,2.03,-0.02,-37.46,-684.570,-538.086,1797.852,22.35,-29.25,-37.80,17.82
7874,-11.39,0.14,-34.70,-278.320,-355.469,1502.441,22.05,-34.05,-38.55,17.97
7884,6.17,-1.23,-16.69,1164.551,-1020.020,-15.625,22.35,-31.65,-40.05,17.82
7894,-32.50,-0.60,-36.46,-936.035,-5.371,756.348,21.45,-30.15,-39.15,17.87
7904,9.02,2.32,-25.37,213.867,-265.137,777.832,21.45,-30.15,-39.15,18.21
7913,-2.59,-0.79,-28.87,-931.152,98.145,937.988,21.30,-31.95,-39.75,18.06
7923,13.69,-0.28,-15.53,1015.625,-686.523,800.293,21.45,-30.15,-39.15,18.01
7933,-3.68,3.27,-29.59,-679.687,-263.184,1306.641,21.45,-30.15,-39.15,18.06
7945,-8.27,-3.86,-36.66,-897.949,-333.008,1503.906,22.20,-32.55,-38.40,17.97
7955,5.88,-1.19,-36.92,1003.906,-751.953,907.715,21.30,-30.45,-39.00,17.97
7965,-18.34,2.40,-20.80,-812.012,-207.031,1775.879,20.25,-33.75,-36.15,18.06
7975,0.63,1.11,-31.51,798.828,-456.055,376.465,21.30,-34.05,-39.30,18.30
7984,7.24,-0.31,-35.12,-321.289,-451.660,899.902,21.30,-34.05,-39.30,18.21
7994,8.53,-3.15,-29.83,822.754,-560.547,1828.125,20.10,-33.60,-39.30,17.97
8006,0.29,-0.60,-42.44,717.773,-622.559,811.523,20.10,-33.60,-40.05,18.06
8016,-2.47,3.50,-33.95,-1131.836,-90.332,483.398,20.85,-31.95,-39.30,17.87
8026,16.56,-0.90,-45.66,908.203,-785.645,824.219,20.25,-33.75,-39.15,18.06
8036,0.11,4.16,-31.71,-563.965,-6.348,1325.195,20.25,-33.75,-39.15,18.21
8046,8.53,-2.93,-44.40,1016.113,-1000.488,610.840,20.55,-30.75,-39.00,18.01
8056,-13.90,4.23,-36.60,-837.891,284.668,1316.895,18.60,-33.15,-37.50,18.06
8066,6.20,-7.57,-36.20,1042.969,-800.293,100.098,18.60,-33.15,-37.50,18.21
8078,5.05,1.92,-29.93,-142.578,-600.586,297.852,19.95,-33.00,-37.35,18.16
8088,-12.82,2.21,-14.27,481.934,-279.785,1169.922,18.90,-34.80,-37.50,17.97
8098,-2.98,6.12,-51.98,-609.863,62.988,1761.230,19.35,-32.40,-39.30,18.01
8108,2.69,1.84,-45.02,754.395,-743.164,930.664,19.35,-32.40,-39.30,17.97
8118,-4.01,7.60,-30.46,-684.570,-59.570,1856.934,20.55,-34.80,-38.55,18.21
8128,11.24,-5.26,-47.33,702.637,-1027.832,281.250,19.65,-32.85,-40.05,18.21
8145,9.34,-0.39,-21.92,147.949,-596.680,808.594,19.50,-33.00,-38.85,18.16
8154,-7.97,-3.28,-42.52,130.859,-444.824,895.508,18.15,-34.80,-37.05,17.97
8164,8.72,-0.76,-28.26,-514.160,-452.148,929.687,18.15,-34.80,-37.05,18.06
8174,3.79,-6.51,-34.27,774.414,-491.699,1277.344,18.15,-32.40,-39.30,17.97
8184,-4.80,-1.67,-29.49,-633.301,-269.043,1624.512,19.95,-34.65,-38.40,18.16
8194,1.60,-0.31,-43.86,-271.484,-768.555,934.082,19.95,-34.65,-38.40,18.16
8204,-0.16,2.63,-47.88,414.551,-493.164,1566.406,18.90,-32.40,-38.25,18.01
8216,5.64,6.15,-35.07,1013.184,-958.008,425.293,19.20,-34.20,-38.10,18.06
8226,-13.75,-1.27,-45.31,-279.785,-799.805,458.008,18.45,-35.85,-38.40,18.30
8236,3.02,-4.30,-27.10,263.672,-283.203,1800.781,18.15,-34.35,-38.25,18.01
8246,-6.99,-2.26,-46.04,449.707,-1069.824,947.266,18.15,-34.35,-38.25,17.87
8256,-14.60,-3.73,-40.32,-688.477,-401.855,126.465,17.55,-35.40,-38.10,18.16
8266,3.02,-6.60,-21.82,927.246,-722.168,1333.008,17.55,-34.65,-39.90,18.30
8276,1.15,-4.35,-37.69,-423.828,-962.891,1906.250,17.85,-32.85,-38.25,18.06
8288,0.44,-6.89,-48.59,817.383,-608.887,1258.301,18.00,-35.85,-36.90,18.30
8298,-1.18,-0.47,-35.22,-832.031,-674.805,1067.383,18.00,-35.85,-36.90,18.06
8308,7.40,-0.25,-51.73,2.930,-884.766,714.844,16.20,-33.15,-38.25,18.30
8318,0.39,3.89,-40.15,624.023,-736.328,1265.625,16.20,-33.15,-38.25,18.06
8327,-2.68,0.40,-46.53,41.504,-503.906,1518.066,16.20,-33.15,-38.25,18.30
8337,-1.39,-1.42,-35.44,103.027,-725.586,1590.332,17.40,-36.00,-38.55,18.30
8347,-1.33,-1.81,-42.50,-513.672,-593.262,556.641,17.85,-34.05,-39.00,18.21
8359,-1.38,-7.29,-35.98,203.125,-800.293,1541.016,15.90,-36.75,-37.80,18.21
8369,2.81,-1.57,-38.20,-427.246,-422.852,-167.480,15.90,-36.75,-37.80,18.21
8379,0.28,-7.34,-40.47,665.039,-964.844,900.391,16.20,-34.80,-36.30,18.21
8389,-2.31,-0.83,-39.79,-14.648,-570.801,1581.055,16.20,-37.65,-37.80,18.16
8399,1.13,6.50,-26.95,-823.730,-631.836,913.086,15.75,-35.85,-37.65,18.01
8409,14.23,-8.31,-48.02,755.371,-736.328,475.586,16.20,-34.80,-38.25,18.35
8421,-1.39,3.92,-29.64,-742.187,-516.602,250.000,16.20,-34.80,-38.25,17.97
8431,2.83,-0.31,-35.10,776.367,-662.598,1044.434,15.75,-37.35,-38.10,18.16
8441,-6.03,2.08,-37.64,-433.105,-739.746,899.902,15.45,-35.25,-37.50,18.35
8451,0.02,2.28,-56.23,-564.453,-114.746,1100.586,15.45,-35.25,-37.50,18.06
8461,14.72,1.28,-38.46,1064.941,-781.738,737.305,17.25,-37.35,-37.35,18.21
8471,4.34,-4.59,-40.84,76.172,-825.195,1454.102,15.15,-37.65,-36.75,18.16
8481,-1.06,3.91,-29.39,-985.840,-394.531,1005.859,15.45,-35.25,-38.55,17.97
8493,-1.90,-6.03,-37.60,-413.574,-491.211,1168.945,16.80,-37.80,-36.15,18.06
8503,-1.61,-1.92,-51.82,-371.094,-263.184,917.969,16.80,-37.80,-36.15,17.87
8513,13.78,-6.27,5.44,673.340,-425.293,1129.395,15.30,-36.15,-37.65,18.21
8523,1.78,-3.11,-53.55,-169.922,-687.500,1561.035,14.55,-35.85,-38.40,18.21
8533,8.82,2.34,-30.70,-577.148,-709.961,384.766,15.15,-37.20,-37.05,18.16
8543,-15.49,3.19,-36.89,797.363,-403.809,875.000,14.40,-36.45,-37.05,18.16
8553,-4.76,0.15,-31.96,-145.508,-527.344,1305.664,14.40,-36.45,-37.05,18.30
8565,9.72,-4.85,-45.71,1368.164,-541.992,722.656,14.85,-38.55,-35.70,18.16
8575,11.12,3.37,-28.41,490.723,-497.070,1160.645,14.10,-39.30,-36.60,18.21
8584,-1.79,4.91,-45.34,-308.594,-677.734,-449.707,14.10,-39.30,-36.60,18.06
8594,3.17,0.51,-37.03,223.633,-373.047,1404.785,14.40,-35.25,-37.50,18.16
8603,-4.30,7.14,-34.29,-772.949,-112.793,1835.938,13.95,-37.65,-36.30,18.06
8613,7.88,8.74,-39.04,-710.937,-507.812,666.016,13.80,-37.80,-37.35,18.16
8623,10.75,2.48,-48.02,539.551,-472.168,460.449,12.75,-34.35,-37.05,18.01
8635,-14.08,5.63,-32.98,-1097.168,-372.070,865.723,12.75,-34.35,-37.05,18.16
8645,9.19,1.86,-43.28,748.047,-328.125,910.156,13.20,-37.20,-37.05,17.82
8659,8.20,0.76,-31.60,618.652,-779.785,1612.793,13.80,-37.80,-37.35,18.35
8669,-3.75,1.89,-44.50,-266.602,-984.375,1589.844,12.00,-37.20,-36.75,18.16
8679,-0.24,7.68,-31.34,-424.805,-368.652,1065.918,12.00,-37.20,-36.75,18.40
8689,7.50,3.70,-33.33,949.219,-964.355,507.324,12.00,-37.20,-36.75,17.87
8701,1.02,0.70,-48.34,-358.398,-467.773,954.590,14.10,-35.85,-37.65,18.30
8711,3.00,0.15,-39.67,728.027,-205.078,1133.789,14.10,-35.85,-37.65,18.01
8721,-14.22,-5.94,-40.52,-186.035,-293.457,1437.012,13.50,-38.40,-36.75,18.21
8731,1.05,0.59,-37.44,-563.477,-299.805,541.992,12.45,-35.25,-38.25,18.16
8741,14.37,-4.50,-43.95,606.934,-729.492,587.891,13.20,-37.20,-37.50,18.06
8751,8.55,-4.10,-44.49,240.234,-651.367,1381.836,13.80,-37.80,-37.35,18.54
8761,2.29,2.63,-36.42,-545.898,-580.566,864.746,13.80,-37.80,-37.35,18.16
8772,4.15,-3.19,-43.79,-441.895,-278.320,1551.758,12.30,-36.15,-37.65,17.97
8782,7.31,-2.40,-45.60,-585.449,-654.297,261.719,13.50,-37.65,-36.30,18.06
8792,6.05,-3.55,-47.09,796.875,-864.746,840.332,12.00,-38.40,-37.50,18.16
8802,-3.08,-2.13,-35.92,-729.980,-970.215,1120.117,11.85,-37.05,-37.35,18.35
8812,-7.70,8.26,-49.37,-790.039,-416.016,784.668,11.85,-37.05,-37.35,18.21
8822,14.53,-6.15,-35.79,865.234,-495.605,1298.828,12.45,-37.65,-37.80,18.16
8834,12.31,-0.86,-34.15,-350.098,-763.184,1148.926,13.20,-36.00,-39.00,18.01
8844,12.46,1.07,-35.90,-164.062,-630.859,834.961,13.20,-36.00,-39.00,18.01
8854,-5.95,-0.26,-42.47,100.586,-1111.328,1621.582,12.60,-36.15,-38.85,18.01
8864,-0.48,2.91,-50.57,-68.359,-703.613,507.812,12.60,-36.15,-37.65,18.06
8874,3.88,-5.08,-51.39,-144.043,-633.301,1374.023,13.05,-36.60,-37.65,18.35
8884,7.02,-4.82,-41.08,114.746,-551.758,1569.336,12.45,-36.75,-38.25,18.16
8894,-2.13,3.80,-49.71,-195.801,-885.742,896.973,12.45,-36.75,-38.25,18.16
8906,10.94,-0.89,-34.47,46.875,-455.566,1058.594,12.75,-36.45,-37.80,18.35
8916,-1.50,-1.70,-50.90,-125.488,-416.016,1086.426,11.85,-36.60,-37.35,18.30
8926,11.73,0.47,-52.15,-350.586,-470.215,834.473,12.45,-36.75,-37.50,18.35
8936,17.06,3.15,-41.03,229.004,-581.543,1360.840,12.00,-35.55,-38.55,18.06
8945,11.74,3.00,-36.28,-237.793,-379.395,1833.008,12.00,-35.55,-38.55,18.16
8955,-1.77,5.06,-39.66,-284.668,-758.301,822.754,12.00,-37.20,-37.50,18.21
8965,-0.24,-2.30,-53.21,57.129,-319.336,948.730,11.25,-37.20,-38.55,18.16
8977,13.66,7.80,-40.96,-40.039,-556.152,763.672,11.25,-37.20,-38.55,18.21
8987,6.89,7.45,-35.95,-70.801,-833.008,905.273,11.70,-37.95,-37.80,18.35
8997,5.95,3.68,-55.65,-374.512,-414.551,1129.883,10.50,-37.65,-36.30,18.16
9007,2.08,0.86,-34.82,-386.719,-492.676,1210.938,11.10,-37.80,-36.90,18.16
9017,6.79,-2.14,-45.31,315.918,-982.422,1112.305,12.60,-37.35,-37.65,17.77
9027,-1.71,-2.34,-44.01,-321.777,-602.539,1378.418,12.60,-37.35,-37.65,18.21
9039,-3.96,6.05,-41.53,1.953,-484.863,663.086,10.95,-37.65,-37.05,17.82
9049,11.28,-1.88,-45.02,-438.477,-794.434,921.387,11.85,-37.05,-36.90,18.16
9059,1.69,3.08,-43.44,-87.402,-777.344,1163.574,11.10,-37.80,-36.90,18.16
9069,-3.43,3.50,-49.84,71.777,-1055.664,840.820,11.10,-37.05,-37.65,18.16
9079,-14.87,0.14,-48.05,-562.012,-432.129,1184.570,11.10,-37.05,-37.65,18.49
9089,-3.63,-0.76,-50.08,-106.445,-507.324,927.246,10.05,-36.75,-37.05,18.16
9099,-9.50,-1.53,-40.34,60.547,-523.437,1273.438,9.15,-36.15,-37.65,18.16
9111,3.90,-3.24,-39.06,-48.340,-402.344,791.504,11.10,-38.25,-36.90,17.87
9121,8.36,-3.63,-36.93,320.312,-500.977,1684.082,9.90,-37.80,-36.15,17.87
9131,-0.24,-1.46,-41.84,-324.219,-412.598,1092.773,10.50,-37.95,-37.05,18.35
9141,19.70,1.81,-44.19,-452.148,-833.984,503.906,10.65,-37.35,-36.60,18.16
9151,14.29,0.72,-47.66,-210.449,-705.566,963.379,10.65,-37.35,-36.60,18.35
9161,10.34,-3.29,-38.53,-105.957,-666.992,1091.309,10.50,-38.70,-37.05,18.30
9178,4.02,-2.34,-45.77,-200.195,-613.281,1170.898,9.90,-38.55,-35.40,18.01
9187,7.65,-1.52,-43.35,-157.227,-1191.895,757.812,9.30,-38.70,-37.05,17.97
9197,5.89,-1.52,-39.37,-205.078,-544.434,1301.270,9.75,-37.95,-37.50,18.30
9207,0.33,-0.53,-37.41,29.297,-754.883,1097.168,9.75,-37.95,-37.50,18.16
9217,-5.49,-0.27,-46.93,-247.070,-113.770,893.555,10.05,-37.65,-36.75,18.16
9227,5.60,-3.12,-40.24,-9.277,-649.414,968.262,7.95,-38.55,-38.10,18.16
9237,2.11,-2.60,-37.95,-116.699,-449.219,1308.594,7.95,-38.55,-38.10,18.35
9249,3.79,-0.03,-47.39,-126.465,-800.293,848.145,8.25,-38.40,-36.30,18.21
9259,5.81,-9.70,-36.70,-72.754,-633.301,736.328,9.75,-39.15,-36.75,18.30
9269,-1.97,-2.92,-46.55,-187.988,-481.445,1440.918,8.70,-38.25,-36.15,17.82
9279,-1.96,-3.26,-43.27,-6.348,-309.082,927.734,9.00,-38.70,-36.00,18.30
9289,-2.34,-2.56,-43.48,-160.156,-659.668,1091.797,9.00,-38.70,-36.00,18.30
9299,-9.24,4.08,-44.28,-340.820,-193.359,960.937,8.70,-39.75,-35.70,18.49
9309,2.69,7.17,-36.51,-293.457,-519.043,853.027,7.95,-38.55,-36.15,18.21
9320,3.34,1.74,-38.01,-393.555,-565.430,825.195,7.05,-38.40,-36.30,18.35
9330,4.84,10.32,-38.20,-237.305,-518.555,798.340,7.65,-39.30,-34.95,18.16
9340,4.26,12.02,-34.38,-47.852,-545.410,1544.922,7.65,-39.30,-34.95,18.06
9350,-0.30,11.03,-41.98,-96.680,-45.898,1481.445,7.35,-38.70,-36.75,18.21
9360,4.92,9.05,-52.24,-117.188,-424.805,811.523,7.20,-39.30,-37.35,18.21
9370,7.24,0.05,-41.85,-97.168,-253.906,1060.547,7.20,-39.30,-37.35,18.21
9380,1.15,-8.54,-46.16,148.437,-759.766,990.723,6.30,-39.60,-36.30,18.40
9392,-4.54,-7.91,-44.81,-247.559,-622.070,764.648,7.65,-39.30,-35.70,18.40
9402,-8.69,-5.76,-44.49,-139.648,-227.051,1139.160,6.60,-39.60,-35.25,18.21
9412,-9.07,-1.12,-36.80,307.129,-338.867,1257.324,6.60,-39.60,-35.25,18.21
9422,-0.76,-2.25,-52.08,-588.379,-16.602,1645.508,6.45,-39.75,-36.60,17.87
9432,16.18,-5.20,-46.29,168.945,-665.039,297.852,6.90,-40.20,-36.15,18.16
9442,7.76,-1.49,-35.27,-342.773,-603.516,1087.891,5.10,-40.35,-36.75,18.16
9452,4.47,0.23,-47.26,142.578,-898.437,811.523,5.85,-38.70,-35.25,18.35
9464,-4.52,-4.74,-42.20,-292.480,-1011.230,682.617,5.85,-38.70,-35.25,18.16
9474,-9.53,2.39,-37.82,-252.930,-652.832,940.430,5.70,-39.00,-36.15,18.35
9484,-8.28,2.93,-39.05,72.266,-449.707,1297.363,6.45,-39.75,-36.15,18.16
9494,-9.98,3.27,-53.20,-103.027,-165.039,1098.633,6.45,-39.75,-36.15,18.16
9504,3.88,10.49,-34.74,-358.887,-359.863,555.176,4.35,-39.90,-35.25,18.01
9514,10.47,2.97,-54.63,232.422,-176.758,1916.016,5.25,-40.95,-36.90,18.35
9523,10.73,2.05,-44.89,-589.844,-117.676,1672.363,4.50,-39.30,-36.15,18.30
9535,4.47,1.51,-46.35,-448.730,-976.074,776.367,3.00,-39.75,-36.15,18.16
9545,7.69,-4.03,-37.27,490.723,-815.430,1420.410,3.00,-39.75,-36.15,18.21
9555,-2.56,-5.76,-50.27,-77.637,-653.809,1186.523,4.20,-42.15,-34.95,18.01
9565,-8.72,-5.02,-46.67,-62.500,-1028.320,1187.500,3.90,-41.10,-33.30,17.87
9575,-7.33,-6.44,-45.13,-357.910,-150.879,925.293,3.15,-41.10,-34.80,17.97
9585,2.15,-14.50,-51.90,63.477,-316.406,1732.910,3.15,-41.10,-34.05,18.40
9597,19.04,-7.18,-47.90,-62.012,-653.320,1436.035,3.15,-41.10,-34.05,18.35
9607,16.07,-5.43,-47.63,-120.605,-907.227,949.707,3.15,-42.00,-35.55,18.06
9617,-4.18,-9.52,-41.62,-508.301,-1201.172,1277.344,4.35,-42.00,-34.80,18.16
9627,-9.51,-9.59,-49.05,21.973,-883.301,720.703,4.35,-42.00,-34.80,18.21
9637,-11.98,-6.63,-32.89,-96.191,-598.145,1536.133,2.25,-42.15,-34.95,18.30
9647,-5.65,2.48,-58.56,-218.262,-722.168,834.473,2.40,-42.00,-34.05,17.82
9657,-13.37,5.29,-34.11,-502.930,-353.516,510.254,0.30,-42.15,-34.95,18.06
9669,-8.15,10.15,-43.31,-412.598,-120.117,893.555,2.10,-41.55,-34.80,17.97
9679,5.31,-0.85,-47.91,141.113,-816.895,1132.324,2.10,-41.55,-34.80,17.97
9694,11.62,8.68,-50.85,-373.535,-550.781,923.340,1.65,-40.80,-33.75,18.30
9703,20.47,11.55,46.24,198.242,-1045.410,767.090,1.50,-41.70,-33.90,18.40
9713,9.15,8.82,-85.31,166.016,-893.066,744.141,0.75,-42.15,-34.20,18.16
9722,-12.24,3.17,-43.11,-452.637,-355.469,791.992,0.75,-42.15,-34.20,18.16
9732,-15.15,-1.91,-55.30,406.250,-725.098,475.098,0.90,-41.55,-35.55,18.21
9742,-11.15,-2.66,-47.10,-154.297,-468.750,1307.617,0.45,-40.80,-34.80,18.35
9754,-0.24,-0.70,-46.99,-26.855,-313.965,993.652,0.45,-40.80,-34.80,18.21
9764,4.93,-2.73,-57.54,-451.660,-147.949,1031.250,0.45,-42.00,-35.55,18.35
9774,19.73,1.34,-55.69,179.199,-552.734,988.770,-0.45,-41.10,-34.05,18.16
9784,8.73,-6.34,-55.26,-542.969,-595.215,1447.754,0.75,-40.95,-32.70,18.21
9794,15.85,-5.09,-59.05,67.383,-1418.945,554.199,-1.05,-40.95,-34.95,17.97
9804,-4.77,1.21,-36.32,-301.758,-417.480,1116.211,-1.05,-40.95,-34.95,18.40
9816,-11.66,-1.16,-49.12,35.645,-807.129,1156.738,-0.75,-41.40,-33.90,18.01
9826,-17.08,-5.92,-55.87,-303.223,-386.230,1385.742,-1.20,-42.75,-34.80,18.16
9836,2.53,2.31,-50.15,135.742,-657.715,879.395,-2.55,-40.95,-33.45,18.21
9846,0.42,2.07,-44.21,-690.430,61.523,1265.625,-1.20,-42.30,-34.05,18.21
9856,20.95,2.46,-47.86,172.363,-465.820,705.566,-1.20,-42.30,-34.05,18.40
9866,22.63,6.85,-47.26,-200.195,-937.500,1234.863,-3.75,-40.95,-34.20,18.16
9876,0.18,3.73,-54.18,-326.172,-1083.984,1320.801,-2.55,-40.95,-33.90,18.06
9888,-10.62,5.03,-41.76,-598.145,-754.883,1747.070,-2.55,-40.95,-33.90,17.82
9898,1.15,5.14,-57.93,-75.195,-1003.418,862.793,-5.70,-40.95,-33.45,18.01
9908,-11.37,0.54,-49.67,-47.363,-639.648,1275.879,-4.20,-43.35,-34.95,18.30
9918,-16.13,1.68,-53.11,35.156,-622.070,1257.813,-2.10,-41.10,-36.00,18.30
9928,-0.47,-1.99,-44.93,-137.695,-439.453,1264.648,-2.85,-41.55,-34.05,18.35
9938,1.40,-3.14,-49.81,73.242,-770.020,1999.939,-2.85,-41.55,-34.05,18.21
9948,2.97,1.50,-50.00,-362.305,-397.461,1354.980,-4.20,-40.20,-34.20,18.01
9960,6.95,6.74,-55.15,151.367,-833.984,890.137,-4.35,-40.35,-34.80,18.35
9970,10.30,2.66,-121.63,-53.711,-498.535,1166.016,-4.95,-42.60,-34.65,18.21
9980,0.74,-2.53,-49.73,-354.980,-651.855,1369.141,-3.75,-40.95,-33.90,18.16
9990,4.73,1.32,-31.12,32.715,-769.531,569.336,-3.75,-40.95,-33.90,18.49
10000,-0.72,4.59,-47.56,281.250,-702.637,1083.496,-3.75,-40.95,-34.65,18.16
10010,-6.63,2.11,-48.32,-466.309,-614.746,1152.344,-4.95,-40.95,-34.20,18.30
10022,1.74,5.53,-51.60,-401.855,-498.535,629.395,-4.95,-40.95,-34.20,18.16
10032,5.37,4.34,-53.62,4.883,-457.031,797.852,-6.15,-40.20,-34.65,18.30
10042,12.22,7.66,-46.27,211.914,-876.953,415.527,-6.15,-40.20,-34.65,18.30
10052,8.48,10.71,-47.68,-435.059,-373.047,1001.465,-6.45,-40.20,-33.90,18.21
10062,14.32,9.10,-53.25,158.691,-1138.184,791.992,-6.15,-40.20,-34.95,17.87
10072,-2.60,2.79,-49.56,-131.836,-916.504,831.543,-6.15,-40.20,-34.95,18.16
10082,-5.66,3.92,-46.79,-270.508,-982.910,1255.859,-6.15,-39.75,-33.45,18.40
10095,-5.37,-1.39,-52.85,-109.375,-586.914,1561.035,-5.85,-40.35,-34.50,18.01
10104,-1.82,5.51,-40.34,-72.754,-556.152,1122.559,-7.20,-40.50,-34.95,18.16
10114,2.73,8.36,-51.37,65.918,-668.457,1006.836,-7.20,-40.50,-34.95,18.21
10124,-1.54,4.13,-51.66,-367.187,-264.160,1401.367,-5.85,-39.60,-33.30,18.35
10134,5.71,1.86,-49.85,14.648,-664.062,1219.238,-8.25,-40.35,-34.05,18.16
10144,3.66,4.78,-55.32,-37.598,-710.937,1097.656,-8.25,-40.35,-34.05,18.35
10154,-3.09,4.46,-54.15,-243.652,-654.785,1614.746,-8.40,-39.30,-34.65,18.21
10166,2.15,2.27,-50.08,-174.316,-379.395,1291.504,-9.15,-39.75,-33.45,18.40
10176,4.48,4.52,-52.64,-298.828,-914.551,1380.859,-7.95,-40.20,-33.45,18.30
10186,-1.44,1.68,-50.80,-134.277,-759.277,705.566,-7.35,-39.60,-33.30,18.35
10196,-3.35,2.82,-45.21,-162.109,-301.270,1509.277,-7.35,-39.60,-33.30,18.21
10211,9.31,1.70,-56.98,-259.277,-432.617,1138.672,-8.70,-40.50,-33.15,18.35
10220,4.43,-5.55,-52.10,127.441,-708.496,981.445,-9.30,-39.60,-33.30,18.30
10233,-4.04,-8.95,-40.47,-136.719,-886.230,296.387,-9.60,-39.75,-33.90,18.16
10242,3.08,-8.46,-49.56,-226.562,-867.187,815.918,-9.60,-38.25,-33.90,18.30
10252,-5.19,-4.13,-45.07,-356.934,-301.270,1750.977,-9.60,-38.25,-33.90,18.21
10262,-5.85,-1.59,-59.07,-83.008,-872.559,594.238,-9.60,-39.00,-32.40,18.16
10272,-8.00,-5.16,-51.13,-234.375,-397.461,441.406,-9.30,-38.70,-32.25,18.35
10282,-1.93,-1.21,-50.49,-330.078,-817.383,1023.926,-9.30,-38.70,-32.25,18.21
10292,13.79,-2.72,-46.56,-362.793,-341.309,1446.777,-10.35,-39.30,-33.15,18.01
10304,10.17,1.55,-51.44,-344.238,-859.375,1057.129,-10.65,-38.55,-32.40,18.01
10314,8.37,5.53,-47.80,-105.469,-757.324,969.238,-9.90,-39.00,-33.15,18.16
10324,4.79,5.85,-45.17,-77.148,-791.504,709.473,-9.90,-39.00,-33.15,18.35
10334,0.95,7.20,-48.35,-93.750,-573.730,1313.965,-9.75,-37.20,-34.05,18.30
10344,-2.94,-0.25,-55.51,-67.383,-799.805,711.914,-11.40,-38.25,-33.90,18.16
10354,-11.56,6.60,-41.56,-226.074,-500.000,1064.941,-11.25,-36.75,-33.30,18.16
10366,-5.53,0.59,-47.47,-62.988,-669.922,945.312,-10.95,-37.20,-34.05,18.06
10376,-4.30,1.63,-53.80,54.199,-851.562,961.914,-10.95,-37.20,-34.05,18.21
10386,-4.35,-1.38,-54.33,-354.492,-355.469,1355.957,-12.00,-37.20,-33.30,18.21
10396,9.86,-3.21,-50.00,-119.629,-253.906,1396.484,-11.70,-35.25,-33.30,18.16
10406,18.15,0.70,-47.66,24.902,-581.543,1339.844,-11.70,-35.25,-33.30,18.21
10416,13.05,-7.40,-49.95,100.098,-931.641,1137.695,-11.85,-36.60,-33.90,18.21
10426,-0.98,-9.47,-57.88,-155.762,-1031.738,833.496,-12.75,-35.55,-32.55,18.16
10440,-7.84,0.02,-62.66,-289.062,-588.379,1038.574,-13.35,-35.40,-32.40,18.40
10449,-1.53,-3.52,-26.88,-82.520,-118.652,1208.496,-13.05,-36.60,-32.70,18.21
10459,-0.37,2.03,-45.05,-357.910,-177.246,665.527,-13.05,-36.60,-32.70,18.16
10469,16.60,6.47,-38.08,-167.480,-531.250,878.418,-13.50,-37.20,-34.50,18.16
10479,-0.31,6.45,-42.53,-119.141,-606.445,1555.664,-14.40,-34.35,-34.05,18.35
10489,-7.32,5.34,-44.51,-105.469,-295.410,519.531,-11.40,-34.20,-33.45,18.06
10501,1.58,7.83,-41.83,-256.348,-574.219,1017.090,-13.35,-34.65,-33.90,17.97
10511,-3.56,4.23,-55.56,23.437,-620.117,1189.453,-13.35,-34.65,-33.90,18.06
10521,-3.43,-0.40,-44.89,-23.926,-1069.336,992.187,-12.75,-34.80,-32.55,18.16
10531,-10.36,-3.08,-48.62,-311.035,-558.105,661.621,-13.35,-34.65,-33.15,18.30
10541,-9.29,-9.78,-49.56,-95.215,-747.559,707.031,-13.35,-34.65,-33.15,18.16
10551,-5.09,-1.35,-42.87,-369.141,-170.898,662.598,-12.60,-33.75,-31.95,18.35
10561,0.92,2.63,-45.73,-282.227,-351.562,1179.688,-13.35,-33.45,-33.45,18.16
10573,4.22,1.47,-52.84,-233.887,-791.016,784.668,-13.95,-33.15,-34.05,18.21
10583,18.15,1.02,-37.06,-132.324,-706.055,1577.637,-13.05,-34.20,-32.40,18.06
10593,0.71,7.34,-45.70,-341.797,-302.246,1388.672,-13.05,-34.20,-32.40,18.21
10603,3.70,8.96,-45.93,-331.543,-426.758,646.973,-13.95,-32.40,-34.50,18.16
10613,10.93,4.90,-41.61,-3.906,-642.578,1422.852,-12.45,-31.95,-33.75,18.06
10623,-3.62,8.28,-44.79,-293.457,-631.348,799.805,-12.30,-32.25,-33.45,18.30
10633,0.05,4.12,-47.59,-133.789,-387.695,1087.891,-13.95,-31.20,-33.00,18.16
10645,-5.47,10.95,-46.53,-97.168,236.816,935.547,-13.50,-31.65,-33.00,18.21
10655,8.54,13.21,-43.50,6.348,-944.336,-263.184,-13.20,-32.40,-31.80,18.30
10665,-10.87,9.85,-37.80,-512.207,-324.219,842.773,-13.20,-32.40,-31.80,18.30
10675,-9.84,7.62,-45.39,-115.723,-278.809,711.914,-12.75,-31.20,-32.25,18.01
10685,1.44,2.71,-45.97,-33.691,-437.500,1999.939,-13.20,-30.75,-31.80,18.21
10695,3.15,7.72,-42.34,-439.941,-279.785,646.973,-13.20,-30.75,-30.30,18.21
10707,6.98,6.24,-37.25,-242.676,-463.379,993.164,-14.55,-30.15,-31.20,18.16
10717,6.49,9.39,-50.15,113.281,-1036.621,552.246,-14.55,-30.15,-31.20,18.30
10739,-7.43,7.38,-42.00,-189.941,-51.270,1021.484,-14.85,-30.60,-30.90,18.40
10748,1.11,5.60,-37.51,-263.184,-69.824,1584.961,-13.80,-29.85,-31.20,18.21
10758,14.31,-8.16,-43.28,214.355,-282.227,1999.939,-13.20,-30.00,-31.50,18.01
10768,28.55,-13.38,-48.37,-160.156,-504.395,1840.820,-13.20,-30.00,-31.50,18.01
10778,36.80,-14.79,-42.52,-71.289,-925.293,1502.930,-14.40,-30.45,-29.55,18.01
10790,18.06,-25.29,-44.63,-327.637,-170.898,1999.939,-14.10,-30.15,-30.45,18.30
10800,13.57,-23.90,-53.62,-45.898,-1270.996,576.660,-14.10,-30.15,-30.45,18.21
10810,2.57,-29.91,-43.27,-246.094,-846.191,1581.543,-15.75,-30.60,-29.40,18.21
10820,-0.89,-26.07,-47.98,-421.875,-1331.543,1932.617,-14.10,-29.85,-28.65,18.49
10830,-10.73,-22.92,-54.25,-188.477,-536.133,1569.336,-15.45,-30.00,-29.85,18.30
10840,-10.68,-28.55,-53.69,47.363,-369.141,1037.109,-14.70,-30.45,-28.05,18.01
10850,-24.04,-23.59,-51.77,128.906,-289.551,635.254,-14.70,-30.45,-28.05,18.06
10863,-24.76,-26.54,-38.31,-81.055,-329.590,897.461,-18.45,-29.40,-28.20,18.01
10872,-21.02,-24.44,-51.44,-225.098,353.027,759.277,-18.00,-29.85,-27.90,18.01
10882,-1.88,-8.74,-49.66,-181.152,-439.453,857.422,-16.80,-28.65,-27.90,18.59
10892,4.31,-10.18,-52.11,364.746,-653.809,665.527,-19.35,-30.45,-28.05,18.21
10902,-8.21,-6.17,-52.70,-533.203,-562.012,441.406,-19.35,-30.45,-28.05,18.49
10912,-2.93,-5.32,-39.11,35.645,-669.922,786.133,-18.45,-28.95,-28.20,18.21
10925,-12.89,-11.94,-58.83,-469.238,-162.598,754.395,-17.40,-29.55,-28.35,18.16
10934,-4.05,-15.76,-42.72,197.754,-641.602,309.570,-17.40,-29.55,-28.35,18.30
10944,7.15,-17.21,-53.25,160.156,329.102,586.426,-18.60,-29.25,-27.15,17.97
10954,31.01,-9.60,-56.98,-491.699,-208.496,1025.879,-18.60,-29.25,-28.05,18.06
10964,36.82,-2.27,-21.60,-443.359,-371.582,456.055,-20.55,-27.15,-28.05,18.16
10974,30.24,-2.18,-41.98,-222.656,-1056.152,201.172,-20.25,-28.95,-28.95,18.30
10984,18.59,15.30,-25.21,-638.184,-666.992,1516.113,-20.25,-28.95,-28.95,18.30
10996,26.62,13.67,-34.85,291.504,-869.629,1293.457,-20.10,-28.35,-29.10,18.21
11006,15.87,16.70,-43.42,93.262,-972.656,1999.939,-19.20,-26.25,-30.15,18.30
11016,-2.83,12.38,-43.40,-155.273,-817.871,747.070,-19.20,-26.55,-29.70,18.16
11026,-0.29,13.18,-44.05,-321.289,-375.488,1700.684,-19.20,-26.55,-29.70,17.97
11036,8.67,7.11,-44.95,249.512,-448.730,1272.949,-19.65,-26.40,-30.30,17.87
11046,9.81,3.14,-39.07,-25.879,-524.414,1473.633,-20.25,-26.55,-30.45,18.16
11059,-15.10,-1.73,-40.02,-91.309,-458.496,1665.039,-20.25,-26.55,-30.45,18.35
11068,-16.20,-3.39,-42.95,-265.625,-237.793,1830.078,-19.20,-27.45,-30.45,18.21
11078,-1.44,-5.88,-54.89,-366.211,35.156,1644.531,-19.50,-26.25,-30.45,18.49
11088,8.26,-10.71,-39.61,-61.523,-181.152,1014.648,-19.95,-28.20,-28.95,18.35
11098,15.73,-7.26,-51.59,201.172,27.832,1234.375,-20.55,-25.95,-29.85,18.21
11108,18.11,-11.76,-42.27,-274.414,-775.391,1069.336,-20.55,-25.95,-29.85,17.87
11118,-1.22,-11.62,-55.69,-69.336,-546.875,865.234,-20.10,-26.85,-30.30,18.16
11130,-7.53,-5.66,-44.81,5.371,-613.281,1279.785,-20.25,-25.50,-30.45,18.01
11140,-21.15,-7.36,-59.63,-300.293,-454.102,897.461,-20.85,-26.85,-28.80,17.97
11150,-20.59,-9.33,-54.58,50.781,-13.184,1104.980,-20.85,-25.95,-29.55,18.35
11160,-8.03,-5.34,-44.09,-127.930,-527.344,834.473,-20.85,-25.95,-29.55,18.49
11170,-4.34,-4.90,-45.74,-142.090,-354.980,838.867,-22.05,-28.05,-29.10,18.21
11180,-5.56,-7.83,-42.37,-75.195,-347.168,770.996,-21.00,-24.60,-30.90,18.30
11192,2.89,-3.17,-42.34,67.383,-390.625,1177.734,-21.00,-24.60,-30.90,18.21
11202,3.38,-1.50,-34.07,-107.910,-628.418,1176.758,-22.20,-24.60,-28.95,18.06
11212,0.13,-3.79,-42.55,-281.738,-514.160,882.812,-21.60,-26.40,-27.30,18.21
11222,-0.85,-3.56,-45.60,-93.750,-490.234,797.852,-21.90,-27.00,-29.70,18.21
11232,-3.51,1.15,-35.05,94.238,-336.914,1257.813,-21.90,-24.60,-29.70,18.16
11242,-1.08,2.46,-40.85,131.836,-454.590,917.969,-21.90,-24.60,-29.70,18.01
11260,8.06,9.36,-42.54,-109.375,-359.863,644.043,-21.60,-24.90,-28.80,18.21
11269,10.34,9.35,-37.07,-62.500,-443.359,902.832,-21.60,-25.65,-28.80,18.21
11279,15.48,9.84,-38.29,47.852,-771.484,669.922,-20.70,-23.85,-28.65,18.35
11289,14.88,11.23,-39.92,-172.363,-576.660,821.777,-20.70,-23.85,-28.65,18.54
11299,15.37,7.07,-43.63,-157.227,-879.395,583.496,-22.35,-24.45,-29.55,18.01
11309,14.10,2.85,-44.06,-64.941,-776.367,1067.383,-21.45,-24.30,-27.15,18.21
11319,5.69,0.98,-46.45,-50.781,-416.504,1716.797,-21.45,-24.30,-27.15,18.40
11331,2.65,-2.73,-38.43,-294.922,-404.785,1639.648,-22.65,-23.10,-28.95,18.35
11341,-0.60,-3.80,-34.64,125.977,-425.293,1488.770,-23.25,-24.90,-29.85,18.16
11351,3.78,-8.77,-40.56,223.145,-363.281,1234.863,-22.65,-21.45,-29.40,18.49
11361,1.60,-8.30,-40.89,-1.953,-300.293,1190.918,-23.70,-23.10,-28.20,18.40
11371,2.64,-12.87,-47.52,-214.844,-329.590,1091.797,-23.70,-23.10,-28.20,18.01
11381,7.05,-13.71,-37.21,-2.930,-347.656,821.777,-22.20,-23.10,-29.40,17.87
11391,5.09,-10.63,-49.63,198.242,-122.559,657.227,-22.80,-23.70,-29.85,18.49
11403,2.76,-12.95,-41.84,-5.859,-425.293,1056.641,-23.40,-21.00,-28.95,18.01
11413,-1.73,-5.19,-39.22,-163.086,-52.734,1045.898,-22.80,-23.70,-28.80,18.16
11423,-9.85,-8.22,-34.96,332.520,-111.816,486.816,-22.80,-23.70,-28.80,18.21
11433,-17.08,-3.76,-41.81,120.605,-179.199,1012.207,-22.35,-21.60,-29.55,18.30
11443,-20.25,2.11,-39.25,-80.566,-311.035,848.633,-22.95,-23.40,-30.45,18.21
11453,-20.99,4.69,-39.53,-17.578,-256.836,616.699,-22.95,-23.40,-30.45,18.21
11465,-7.72,7.80,-31.80,-363.770,-195.312,889.160,-22.05,-23.70,-28.05,18.21
11475,4.85,8.53,-34.28,4.395,-245.605,705.566,-23.40,-21.90,-29.40,18.21
11485,10.24,3.40,-29.18,133.789,107.422,996.582,-22.65,-23.10,-28.20,17.97
11494,-3.55,4.31,-32.43,-598.145,89.844,1584.961,-22.95,-23.85,-28.95,18.35
11504,21.16,-3.63,-48.92,473.633,-935.059,152.344,-22.95,-23.85,-28.95,18.30
11514,1.71,0.53,-32.49,125.000,-424.316,583.008,-22.95,-21.45,-28.95,18.06
11524,6.18,-3.09,-39.17,-111.816,-489.746,1102.051,-24.15,-21.90,-29.40,17.87
11536,-0.31,-0.47,-34.42,83.008,-695.312,823.730,-22.95,-22.20,-30.45,18.21
11546,1.05,-2.87,-32.40,-121.582,-197.754,1548.828,-22.95,-22.20,-30.45,17.87
11556,2.62,-0.54,-28.42,-196.289,-404.785,1047.852,-22.65,-21.90,-28.95,18.16
11566,-1.97,2.73,-32.84,11.719,-283.691,599.121,-24.15,-22.20,-30.90,18.21
11576,9.95,2.09,-43.13,8.789,-231.934,1421.875,-24.15,-22.20,-30.90,18.35
11586,1.72,5.18,-31.76,-396.973,-221.680,1667.969,-21.90,-23.10,-30.45,18.21
11598,-5.26,6.08,-30.92,520.020,-318.848,1124.512,-22.95,-20.25,-30.45,18.54
11608,-9.24,-0.19,-29.07,187.012,-678.223,1084.473,-22.05,-20.40,-28.80,18.21
11618,-6.98,-5.79,-32.44,-144.531,-399.902,1172.852,-23.55,-23.25,-30.75,18.16
11628,-3.22,-4.10,-32.58,360.840,-520.508,354.004,-23.55,-23.25,-30.75,18.21
11638,-2.09,-3.27,-32.42,5.371,-305.664,1002.930,-23.70,-22.20,-27.45,18.16
11648,-5.40,-4.85,-29.91,-41.992,-479.980,988.281,-23.70,-22.20,-30.90,18.06
11658,3.31,-3.07,-33.45,463.867,-383.301,812.012,-23.25,-20.10,-28.35,18.30
11670,0.10,-4.21,-38.38,128.418,-360.352,655.273,-23.55,-24.00,-28.35,18.21
11680,-8.53,-2.08,-45.18,305.664,-162.109,589.355,-23.55,-24.00,-28.35,18.21
11690,-6.48,-0.62,-33.92,-296.387,-60.547,1024.414,-23.40,-21.00,-28.20,18.35
11700,-5.40,3.81,-35.73,-477.539,-33.203,1136.719,-24.60,-22.20,-30.15,18.35
11710,2.64,2.02,-27.92,575.684,-292.480,1029.785,-24.60,-22.20,-30.15,18.16
11720,-2.79,6.31,-29.18,117.676,-104.492,1416.992,-23.70,-22.65,-30.15,18.21
11730,2.18,7.68,-33.59,79.590,-521.484,1457.520,-24.15,-18.60,-30.45,18.54
11742,-8.61,3.86,-33.17,-199.707,-190.918,1526.855,-22.35,-18.45,-28.35,18.35
11752,-7.93,-0.36,-33.69,87.402,-127.930,1248.047,-23.40,-21.45,-30.45,18.21
11762,5.38,1.47,-26.59,462.402,-537.598,507.324,-23.40,-21.45,-30.45,18.21
11777,3.87,-5.34,-27.47,-331.543,-138.672,1176.270,-23.40,-19.50,-27.30,17.87
11786,20.19,-2.47,-35.55,395.020,-682.617,1153.320,-23.40,-19.50,-28.20,18.06
11798,0.14,-5.55,-36.17,-199.707,-552.246,1462.402,-22.35,-20.85,-29.10,18.16
11808,12.47,-7.85,-31.66,272.461,-751.465,943.848,-22.35,-20.85,-29.10,18.01
11818,1.32,-8.53,-38.56,-25.879,-444.336,1367.188,-23.25,-17.25,-26.85,18.35
11828,5.52,-8.05,-36.85,-178.711,-486.816,989.746,-24.60,-20.70,-28.95,18.01
11838,12.19,-6.65,-23.06,682.617,-284.180,1113.770,-24.60,-20.70,-28.95,18.21
11848,0.08,-1.24,-34.60,-252.441,306.152,581.543,-22.80,-18.90,-27.60,18.30
11858,-1.97,-2.13,-30.21,297.852,-764.160,713.867,-24.30,-20.10,-29.10,18.21
11871,-16.47,-3.44,-25.67,-393.066,-254.395,1110.840,-23.70,-17.10,-28.20,18.40
11880,-5.44,-2.15,-37.94,526.855,-1035.156,485.840,-21.60,-18.45,-28.05,18.49
11890,-24.61,0.56,-37.39,-160.156,-279.297,1139.160,-21.60,-18.45,-28.05,18.16
11900,-15.00,-1.02,-35.11,54.688,-773.437,1126.465,-24.60,-17.85,-28.65,18.21
11910,-1.47,2.06,-38.89,248.047,-673.340,337.891,-22.95,-20.70,-27.90,18.35
11920,-8.73,-0.68,-32.96,-833.984,10.742,1999.939,-23.25,-16.80,-29.55,18.16
11932,-3.34,2.26,-36.08,-411.621,-57.617,1338.867,-23.25,-17.25,-28.05,18.30
11942,1.77,-3.58,-38.05,44.434,-956.055,645.020,-23.25,-17.25,-28.05,18.30
11952,6.94,3.90,-45.75,347.168,-896.973,748.535,-23.70,-15.45,-29.70,18.30
11962,-11.89,2.02,-47.29,-834.473,-140.137,1999.939,-21.90,-17.40,-28.20,18.35
11972,16.02,1.58,-43.15,1126.465,-835.937,702.637,-21.90,-17.40,-28.20,17.87
11982,-5.04,-0.53,-46.56,-621.582,-73.242,765.137,-22.20,-15.45,-30.15,18.40
11992,4.85,-3.14,-40.85,55.664,-726.562,890.625,-22.35,-17.25,-28.35,18.40
12004,4.83,-2.19,-43.56,250.000,-896.484,975.098,-22.80,-16.05,-29.10,18.35
12014,13.40,-0.93,-41.63,427.246,-543.945,946.777,-22.65,-13.05,-28.95,18.21
12024,-15.81,-2.85,-39.72,-615.723,-652.344,1896.484,-22.65,-13.05,-28.95,18.16
12034,7.58,-8.24,-40.42,1140.137,-1249.023,-124.023,-23.25,-15.60,-28.80,18.21
12044,-22.02,-2.17,-45.43,-828.125,-104.980,1078.125,-24.00,-12.90,-28.05,18.16
12054,2.01,-7.75,-35.50,411.133,-648.926,971.680,-22.05,-16.05,-28.05,18.21
12066,2.96,-9.68,-45.56,273.926,-688.965,822.754,-23.70,-14.70,-29.70,18.16
12076,6.56,-0.44,-47.47,-155.762,222.168,742.676,-23.70,-14.70,-29.70,18.06
12086,2.74,-10.86,-39.91,92.285,-574.219,1299.805,-22.65,-15.90,-29.40,18.49
12096,9.63,-4.23,-47.41,3.906,-516.113,590.820,-23.55,-13.20,-30.30,18.35
12106,-1.31,-4.81,-44.23,-77.148,-735.840,1768.555,-23.55,-13.20,-30.30,18.21
12116,7.47,4.69,-33.60,80.078,-705.566,204.590,-23.55,-14.40,-29.85,18.21
12126,-14.98,3.51,-40.89,-1159.180,-170.898,1875.977,-21.45,-12.30,-31.65,18.16
12138,-17.30,7.87,-38.27,-1052.246,-307.617,1999.939,-22.95,-13.50,-31.20,18.35
12148,10.78,2.98,-41.23,930.176,-977.051,484.375,-22.95,-13.50,-31.20,18.21
12158,-16.72,0.48,-35.21,-652.832,-90.820,648.437,-21.30,-13.65,-29.55,18.06
12168,6.49,-5.50,-34.09,549.805,-923.340,1025.879,-22.05,-14.10,-30.75,18.35
12178,3.14,2.76,-41.47,201.172,-448.730,393.066,-22.35,-10.95,-31.05,18.30
12188,3.47,-2.24,-49.38,-375.977,-776.855,1544.434,-20.55,-12.90,-30.75,18.21
12200,10.08,-2.26,-30.96,-781.250,-166.992,1999.939,-20.55,-12.90,-30.75,18.35
12210,26.77,-3.92,-48.94,1120.117,-911.133,421.387,-21.00,-10.65,-30.90,18.21
12220,-8.92,0.08,-49.37,-923.828,65.430,606.445,-21.60,-12.45,-30.30,18.35
12230,5.25,1.05,-41.60,920.898,-1416.016,362.305,-21.60,-12.45,-30.30,18.21
12240,-21.72,0.12,-39.37,-1083.496,-1.465,778.320,-20.25,-9.90,-29.40,18.21
12250,-13.03,-8.27,-40.47,931.641,-1246.094,678.223,-20.70,-10.35,-29.70,18.16
12260,-19.94,3.70,-35.60,-667.969,208.984,1716.797,-20.85,-13.65,-31.05,18.30
12272,-9.85,-0.76,-38.20,-971.680,187.988,1546.875,-20.85,-11.25,-29.85,18.16
12282,13.41,-4.81,-35.64,1197.754,-282.715,830.566,-20.85,-11.25,-29.85,18.40
12297,2.01,-3.43,-45.60,-908.691,-125.000,1728.516,-21.30,-12.90,-30.75,18.16
12306,12.75,-2.53,-34.93,818.359,-1342.285,483.398,-20.10,-10.05,-29.55,18.01
12316,1.94,5.76,-45.01,-749.023,-258.789,851.562,-19.20,-12.75,-30.15,18.21
12326,0.31,0.16,-44.73,285.156,-977.539,1599.609,-20.10,-10.50,-30.30,18.54
12336,7.79,8.60,-40.40,-1011.230,-427.734,968.750,-20.10,-10.50,-30.30,18.30
12348,9.87,9.47,-46.72,-605.469,-9.766,1138.184,-21.00,-10.65,-30.15,18.54
12358,-6.63,7.88,-44.50,395.996,-916.504,1388.184,-21.00,-10.65,-30.15,18.21
12368,5.82,12.40,-40.52,-227.051,-250.488,499.512,-19.65,-10.95,-29.85,18.21
12378,2.51,10.11,-46.24,41.992,-366.699,1209.961,-21.30,-10.05,-30.75,18.35
12388,22.83,8.95,-28.22,307.129,-470.215,1104.980,-21.00,-9.15,-30.15,17.82
12398,-6.02,1.73,-44.27,1071.289,-1152.344,677.734,-19.50,-8.70,-27.90,18.30
12408,-14.02,-8.12,-51.45,-486.328,-251.953,777.344,-19.50,-8.70,-27.90,18.49
12421,-17.87,-3.63,-39.38,-749.023,-296.875,1226.563,-21.30,-6.90,-30.30,18.49
12430,7.58,-6.24,-46.89,1102.051,-677.246,61.523,-18.60,-9.30,-29.85,18.49
12440,-15.35,-0.74,-42.98,-1248.535,112.305,1174.316,-19.50,-9.15,-31.20,18.21
12450,30.87,-6.64,-46.56,880.371,-555.664,602.051,-19.35,-6.15,-29.85,18.21
12460,-13.95,-5.24,-51.32,-916.992,-302.246,1338.379,-19.35,-6.15,-29.85,18.16
12470,21.69,-0.76,-38.77,-107.422,-629.883,586.426,-19.50,-8.70,-29.70,18.21
12480,-3.92,2.89,-38.57,-791.992,-651.855,1929.688,-18.00,-6.75,-30.90,18.30
12493,-10.71,-1.97,-37.85,-348.633,-1089.355,1846.680,-18.00,-6.75,-30.90,18.06
12502,2.31,3.13,-61.63,586.426,-891.113,982.910,-18.75,-7.50,-30.45,18.21
12512,-27.99,-1.40,-38.28,-445.312,-301.758,1364.258,-17.55,-6.30,-30.15,18.35
12522,7.11,-5.73,-41.78,297.852,-527.344,1241.699,-17.40,-8.10,-29.10,18.35
12532,-13.42,-2.61,-35.11,-274.902,-272.949,1497.070,-18.90,-8.85,-29.10,18.35
12542,5.05,-5.48,-44.27,-359.863,-249.023,1209.961,-18.90,-8.85,-29.10,18.21
12554,-5.68,-8.91,-55.12,-127.441,100.098,1053.223,-17.10,-7.35,-29.10,18.16
12564,19.36,-0.16,-35.20,547.852,-832.031,-415.527,-18.00,-9.15,-28.95,18.21
12574,-10.89,-5.37,-43.28,40.527,-549.316,1286.133,-18.00,-9.15,-31.65,17.97
12584,3.05,0.13,-25.38,-305.176,-205.078,817.383,-17.25,-8.25,-31.20,18.21
12594,-1.60,3.07,-34.15,441.406,-993.652,385.254,-17.25,-8.25,-31.20,18.30
12604,-10.85,0.10,-26.23,-917.969,251.465,1698.730,-16.65,-7.65,-29.55,18.21
12614,-8.08,-6.19,-47.86,774.414,-823.242,1381.836,-17.40,-6.90,-30.30,18.30
12626,6.57,-11.74,-33.21,569.336,-853.516,729.004,-17.40,-6.90,-30.30,18.01
12636,-10.82,-2.39,-47.77,-1040.039,-277.344,1459.473,-17.25,-6.75,-31.65,18.30
12646,14.31,-8.01,-43.49,387.207,-596.680,1041.016,-16.20,-6.15,-31.80,18.35
12656,-6.85,-3.41,-40.60,-490.234,-623.047,1200.195,-17.10,-6.15,-29.85,17.77
12666,16.85,-0.10,-35.26,203.125,-584.961,462.402,-16.05,-6.75,-31.20,18.21
12676,-16.21,2.63,-45.83,-358.887,-200.684,1476.563,-16.05,-6.75,-31.20,18.30
12688,-7.41,0.12,-36.70,118.164,-670.410,1218.262,-15.45,-6.45,-30.30,18.35
12698,9.53,3.62,-40.16,-831.055,-474.121,961.914,-15.90,-5.70,-30.30,18.35
12708,4.85,3.37,-42.40,614.746,-388.184,1363.281,-16.05,-3.45,-29.40,18.06
12718,12.27,9.32,-42.22,-369.141,-193.848,1093.262,-16.20,-4.95,-29.55,18.21
12728,5.25,5.57,-32.56,317.383,-1101.074,777.832,-16.20,-4.95,-29.55,18.49
12738,-0.77,-0.33,-42.15,-26.855,-530.762,673.340,-15.30,-5.55,-30.90,17.97
12748,-18.89,-2.40,-34.15,281.738,-1172.852,1135.742,-14.70,-6.15,-30.30,18.16
12760,-1.35,-4.13,-36.24,115.723,-640.137,1165.039,-15.15,-5.70,-29.10,18.30
12770,-6.24,-5.65,-46.53,-75.195,-168.457,544.922,-14.85,-4.35,-29.70,18.16
12780,16.22,-5.17,-37.36,112.793,-203.613,1044.922,-15.90,-6.15,-29.85,18.21
12790,0.35,-2.37,-48.18,551.758,-834.961,290.527,-16.20,-5.25,-29.55,18.49
12800,-4.27,-3.94,-62.34,-969.238,146.973,1350.586,-16.20,-5.25,-29.55,18.16
12817,-6.82,-0.12,-38.05,-750.000,79.590,1238.281,-15.75,-6.75,-28.95,17.87
12826,11.92,-6.57,-46.49,131.348,-948.730,1059.082,-15.75,-3.90,-30.15,17.82
12836,-2.14,2.75,-36.18,-411.621,-238.770,1547.852,-16.05,-4.35,-29.70,18.35
12846,9.63,-4.50,-44.35,-255.371,-625.488,944.336,-14.55,-4.35,-30.15,18.54
12856,-6.31,-1.71,-24.45,-108.887,-198.730,1999.939,-14.55,-4.35,-30.15,18.35
12866,0.31,-2.94,-45.30,-56.641,-725.098,951.660,-14.70,-2.55,-31.05,18.21
12876,-7.01,-0.24,-35.08,149.414,-500.488,1224.121,-15.30,-4.65,-31.20,18.30
12888,3.52,-5.09,-38.97,428.711,-225.586,1558.594,-15.30,-4.65,-31.20,18.30
12898,9.21,-1.36,-35.78,-215.332,-261.719,866.211,-14.55,-2.70,-31.95,18.21
12908,-6.08,-2.56,-40.76,-184.570,-788.086,552.734,-13.95,-2.55,-30.75,18.01
12918,-0.82,-6.24,-35.66,16.602,-572.754,398.437,-13.35,-2.70,-31.65,18.21
12928,-15.09,-2.72,-42.01,-459.961,-462.402,1066.895,-13.05,-3.45,-30.90,18.16
12938,-1.66,-6.54,-44.08,-76.172,-451.660,441.895,-13.05,-3.45,-30.90,18.16
12948,-2.32,-0.48,-33.92,-374.512,-593.750,1207.520,-12.75,-1.65,-31.05,18.49
12960,10.69,-4.76,-46.27,-412.598,-508.301,661.621,-13.95,-2.10,-29.85,18.35
12970,7.68,0.69,-32.82,-101.563,-650.879,1167.969,-12.75,-3.30,-30.75,18.21
12980,4.06,2.15,-36.84,-422.852,-504.395,1281.250,-12.75,-3.30,-30.75,18.16
12990,2.93,0.83,-36.91,-118.652,-754.883,840.820,-13.35,-2.70,-32.70,18.01
13000,0.53,-1.25,-36.61,-208.496,-599.121,381.836,-13.05,-1.95,-33.45,18.21
13010,-9.27,3.56,-40.45,-286.133,-304.687,1479.980,-13.05,-1.95,-33.45,18.21
13022,-5.19,2.03,-42.90,-239.746,-277.832,1240.723,-12.45,-2.85,-33.30,18.21
13032,6.07,-1.44,-39.24,-44.922,-277.832,973.145,-10.95,-2.10,-32.25,18.21
13042,-2.74,4.37,-38.35,-221.680,-22.949,905.762,-12.30,-1.05,-31.95,18.30
13052,7.79,3.19,-41.35,86.426,-615.723,1082.031,-12.30,-1.50,-31.95,18.21
13062,-0.73,6.27,-36.43,-280.762,-220.703,905.273,-12.30,-1.50,-31.95,18.16
13072,-4.73,1.42,-34.76,119.141,-733.887,814.941,-11.40,-2.25,-31.95,17.87
13082,-18.31,0.69,-36.42,-55.176,-196.289,1166.504,-10.35,-0.30,-32.70,18.40
13094,-21.15,3.54,-36.41,-334.961,-166.992,732.422,-10.35,-1.50,-31.20,18.21
13104,-4.43,-4.84,-33.73,-114.258,-399.902,635.254,-10.95,-1.65,-30.30,18.21
13114,0.87,0.79,-35.55,-280.273,-164.062,1238.770,-12.30,-0.75,-30.45,18.16
13124,-0.58,0.11,-40.27,-363.770,-349.121,828.613,-13.05,-1.95,-31.95,18.30
13134,10.99,1.39,-36.82,-97.168,-442.871,803.223,-11.70,-0.90,-31.50,18.16
13144,7.69,-0.69,-43.63,-362.305,-211.914,1539.063,-11.70,-0.90,-31.50,18.16
13154,17.29,1.38,-35.36,179.687,-1128.418,593.262,-11.40,-1.05,-31.95,18.01
13165,6.18,-8.29,-48.01,-41.992,-673.340,1611.816,-10.35,-0.75,-31.95,17.97
13175,2.44,-4.59,-35.97,-64.941,-1035.156,979.004,-10.35,-0.75,-31.95,18.30
13185,-14.02,-6.43,-57.17,49.805,-1001.465,1088.379,-11.25,-0.90,-33.30,18.21
13195,-8.95,-5.62,-35.48,-341.797,54.688,1114.746,-11.25,-0.90,-33.30,18.30
13205,4.31,-4.66,-43.05,-176.758,-475.098,925.293,-9.15,-1.50,-32.40,18.21
13215,17.17,-4.02,-36.27,170.898,-990.234,1195.801,-9.60,-0.75,-31.20,18.06
13227,6.66,-1.77,-36.89,120.117,96.680,1569.336,-10.35,-0.30,-31.95,18.49
13237,-3.20,-6.89,-49.69,-186.523,-786.133,966.797,-10.50,-1.35,-30.30,18.30
13247,7.89,-3.39,-32.31,-26.367,-404.297,839.844,-9.60,-1.05,-31.65,18.06
13257,-10.07,-1.91,-40.37,-337.891,86.426,1238.770,-10.05,1.35,-31.80,18.06
13267,6.69,-4.01,-39.48,526.855,-698.242,298.828,-10.35,-0.30,-30.45,18.30
13277,-18.27,0.66,-34.16,-822.266,74.707,1103.516,-10.35,-0.30,-30.45,18.35
13287,6.23,-1.65,-29.63,1154.297,-1119.141,67.383,-10.35,0.30,-31.20,18.16
13299,11.43,3.90,-29.44,811.523,-584.961,310.059,-9.60,-1.05,-31.20,18.30
13309,-10.20,4.60,-31.18,-743.164,-230.957,992.676,-10.35,-0.30,-31.65,18.40
13319,16.08,4.99,-38.31,679.687,-960.937,-41.992,-9.30,1.35,-31.80,18.21
13334,-4.78,7.74,-36.23,-871.094,165.039,1430.664,-10.05,0.45,-31.80,18.35
13343,20.47,-1.69,-27.79,686.035,-610.840,712.402,-7.95,0.30,-30.45,18.30
13353,-2.29,-0.56,-38.24,-157.227,-111.328,1313.477,-9.30,0.15,-30.30,18.35
13363,4.44,-1.24,-41.59,219.238,-191.406,1480.469,-8.55,-0.15,-32.55,18.21
13375,7.88,-4.59,-35.39,58.594,-780.762,559.570,-7.95,0.30,-33.15,18.40
13385,3.62,0.90,-54.15,-619.141,-280.273,1227.051,-7.80,-0.45,-32.55,18.21
13395,6.60,0.12,-26.63,308.105,-709.473,582.520,-9.75,-0.15,-32.55,18.06
13405,3.98,5.64,-39.52,-142.578,-184.570,796.387,-9.75,-0.15,-32.55,18.35
13415,1.26,3.69,-35.29,-51.270,-832.031,1652.344,-7.80,-0.45,-31.50,18.30
13425,6.89,4.31,-51.76,-18.066,-459.961,786.621,-7.05,0.15,-33.30,18.16
13435,-4.41,1.89,-26.56,124.512,-641.602,1489.746,-7.80,1.35,-31.80,18.06
13447,-1.14,0.91,-38.37,119.141,-898.926,922.363,-7.35,-1.35,-31.80,18.21
13457,-2.75,5.09,-29.31,-162.109,-416.016,697.754,-7.35,-1.35,-31.80,18.06
13467,-14.08,-2.56,-38.69,173.828,-464.844,840.332,-7.35,1.35,-33.00,18.30
13477,-1.19,-1.69,-51.17,-370.605,-21.973,1310.547,-7.35,-1.35,-31.50,18.21
13487,-2.17,-2.08,-32.39,520.996,-657.715,1320.313,-7.35,0.15,-31.50,18.21
13497,-2.05,-4.92,-38.82,-938.477,-91.797,1364.258,-6.90,0.00,-31.95,18.21
13509,-5.72,-2.50,-39.34,-939.941,-169.434,1229.004,-6.90,0.00,-31.95,18.30
13519,5.92,-1.94,-37.64,467.773,-1290.039,800.293,-7.80,0.15,-33.75,18.21
13529,-3.50,-2.40,-43.04,-937.012,-578.613,846.680,-5.70,1.50,-33.45,18.30
13539,7.04,-2.37,-38.46,268.066,-940.918,1217.773,-5.70,1.50,-33.45,18.35
13549,-4.47,1.82,-35.64,-560.547,-371.094,1023.926,-6.30,1.35,-32.55,18.16
13559,2.11,-0.95,-30.63,150.391,-922.852,904.785,-4.80,1.65,-31.80,17.97
13569,-8.51,3.29,-45.80,-389.648,-145.020,921.387,-4.80,1.35,-33.00,18.30
13581,-9.80,-1.62,-45.08,-315.430,-33.691,1160.645,-4.95,1.05,-32.70,17.97
13591,3.25,-7.84,-37.18,560.059,-1020.996,541.992,-4.80,2.55,-32.25,18.21
13601,-17.07,-5.42,-40.66,-410.645,-94.238,1205.566,-3.45,1.95,-33.15,18.21
13611,5.44,-4.51,-39.71,225.098,-711.426,1186.035,-4.35,3.30,-33.00,18.21
13621,-14.40,-6.73,-44.01,-262.207,-25.391,1184.082,-4.20,1.95,-33.90,18.35
13631,6.65,-7.79,-42.13,65.918,-305.664,120.605,-4.20,1.95,-33.90,18.06
13641,-2.95,-2.05,-55.75,-115.723,70.313,710.937,-2.40,0.90,-33.30,18.06
13653,-0.66,-1.25,-45.55,-369.141,-574.707,663.574,-3.00,0.75,-33.45,18.21
13663,13.06,0.17,-34.73,-115.234,-865.234,597.168,-3.00,0.75,-33.45,18.16
13673,-9.50,-4.64,-45.38,-502.441,-491.699,1162.109,-3.00,0.30,-32.40,18.06
13683,5.77,-3.19,-43.12,-105.957,-647.461,1229.004,-2.25,1.95,-31.95,18.35
13693,-17.40,-4.73,-37.12,-298.340,-342.773,1754.883,-1.80,0.30,-31.95,18.35
13703,0.44,-2.54,-45.64,-205.566,-864.746,808.594,-1.80,1.50,-31.65,18.16
13713,-4.02,-4.58,-36.16,-251.953,-362.305,1301.270,-1.80,1.50,-31.65,18.21
13725,9.27,-0.43,-46.11,-407.715,-465.332,939.941,-2.40,0.45,-32.25,18.21
13735,17.89,1.58,-40.94,-153.320,-428.223,265.137,-1.05,0.30,-31.95,18.16
13745,13.65,5.29,-43.62,-375.977,-560.547,794.922,-1.20,1.35,-31.05,17.97
13755,1.89,2.54,-47.78,5.859,-760.742,1009.277,-3.00,1.95,-32.70,18.21
13764,-7.53,4.46,-50.83,15.137,-1334.961,1297.363,-3.00,1.95,-32.70,18.40
13774,-29.33,3.67,-40.27,-515.625,-648.926,1307.129,-1.80,0.00,-33.90,18.40
13784,-23.15,5.09,-32.63,11.230,-407.227,970.215,-1.05,1.05,-31.95,18.06
13795,-19.71,0.50,-47.79,-270.020,54.688,1396.973,-1.05,1.05,-31.95,18.06
13805,-0.56,5.47,-52.51,-44.434,-603.516,1000.488,-0.45,-0.15,-32.55,18.01
13815,1.66,3.85,-43.45,-7.812,-272.461,1848.633,0.45,1.35,-33.75,18.16
13825,-1.42,0.96,-48.69,-109.863,-271.484,1224.121,-0.30,1.05,-33.15,18.30
13835,0.37,0.27,-43.12,-17.090,-92.285,932.617,-0.30,1.95,-33.15,18.40
13850,-16.82,-2.05,-49.47,24.902,-267.090,1401.367,-0.30,1.95,-33.15,18.21
13859,-33.93,-10.20,-71.58,-82.031,445.801,1999.939,0.45,1.65,-32.25,17.97
13871,-25.60,-8.75,-59.85,-307.129,-95.703,613.770,0.90,0.90,-31.80,18.01
13881,0.34,-10.48,-30.08,-133.789,206.055,1678.711,1.50,0.30,-32.40,18.30
13891,25.20,-8.21,-37.20,-108.398,-712.891,1498.047,0.90,0.15,-33.30,18.30
13901,26.29,-12.53,-57.08,-229.004,-1039.551,1028.809,0.90,0.15,-33.30,18.30
13911,9.13,-7.97,-43.47,-173.828,-953.613,996.582,0.45,1.35,-33.30,18.30
13921,-1.27,-10.26,-45.27,192.871,-509.766,1964.355,2.10,0.90,-33.30,18.35
13931,-28.30,-18.76,-54.88,74.219,-494.141,435.547,2.10,0.90,-33.30,18.06
13943,-16.67,-19.69,-42.43,-495.605,83.008,937.012,1.50,1.05,-32.40,18.06
13953,5.18,-30.95,-42.96,260.742,-612.305,334.961,0.45,0.15,-32.25,18.01
13963,-0.52,-33.44,-50.07,250.000,-1103.027,359.375,1.20,-0.15,-32.55,18.16
13973,3.89,-33.03,-48.04,-557.617,-424.316,1084.473,1.20,-0.15,-32.55,18.35
13983,-1.60,-31.82,-32.42,372.559,-1165.039,747.559,0.90,-0.15,-31.80,18.30
13993,0.37,-18.59,-56.63,-797.363,-674.805,689.941,1.50,1.05,-32.40,18.21
14003,4.44,-25.61,-35.89,-229.004,-707.031,375.488,1.50,0.30,-32.40,18.16
14015,-18.12,-22.60,-48.50,328.125,-1046.875,1119.141,0.45,-0.15,-33.00,18.40
14025,-17.93,-14.77,-62.20,-102.539,-704.590,1232.422,0.45,-0.15,-33.00,18.21
14035,-25.84,-7.95,-44.60,169.922,-619.141,859.375,0.90,0.45,-32.25,18.06
14045,-11.57,-4.76,-44.28,-811.523,-720.215,659.180,0.75,-0.75,-31.95,18.40
14055,-3.53,10.95,-48.00,-525.879,-274.414,1999.939,0.45,0.45,-33.00,18.16
14065,4.59,15.16,-47.50,-130.859,-466.797,1023.437,0.75,-0.75,-32.40,18.35
14077,21.69,25.02,-46.47,-270.508,-562.012,627.441,2.55,0.75,-32.70,18.54
14087,17.40,-5.56,-43.37,-691.895,-2000.000,1207.031,2.85,0.15,-34.05,18.30
14097,-8.95,18.35,-53.44,-227.539,-938.477,1022.461,1.80,0.75,-34.20,18.21
14107,-5.33,37.07,-47.10,291.992,-803.223,531.738,1.80,0.75,-34.20,18.35
14117,1.57,8.37,-46.85,-80.078,-813.965,1997.559,3.60,1.65,-33.30,18.01
14127,3.18,12.11,-54.95,-18.066,-152.832,1609.863,2.25,0.30,-34.20,18.21
14136,13.56,11.53,-51.15,57.617,-500.977,436.035,3.15,0.15,-33.75,18.21
14148,8.42,7.08,-47.40,95.703,-937.500,647.461,3.90,0.90,-34.05,18.30
14157,7.87,-0.98,-55.17,472.168,-1173.340,1005.859,3.90,0.90,-34.05,18.21
14167,-8.75,-1.59,-55.91,-281.250,-399.902,848.633,3.75,1.05,-34.20,18.21
14177,11.42,-8.07,-50.79,-26.855,-268.555,1254.395,3.90,0.45,-32.55,18.06
14187,5.36,-1.70,-57.98,662.109,-599.609,69.336,4.20,-0.30,-34.20,18.35
14197,-1.64,-3.02,-48.76,-211.426,-283.203,1076.660,4.50,2.25,-33.15,18.35
14207,10.67,-2.51,-49.86,27.832,-1041.504,784.668,4.50,2.25,-33.15,18.35
14219,-8.57,0.26,-50.43,-366.211,-216.309,396.484,5.55,-0.15,-34.05,18.30
14229,18.79,3.60,-44.69,617.676,-632.812,561.523,6.45,-0.75,-34.20,18.16
14239,-10.58,2.77,-37.77,-877.441,-576.172,1331.055,6.45,-0.75,-34.20,18.21
14249,10.95,0.11,-36.05,500.488,-959.961,565.918,5.25,0.00,-34.65,18.16
14259,-2.92,6.34,-39.04,-302.246,-160.156,1155.273,5.70,0.75,-32.70,18.16
14269,3.62,2.31,-43.59,-260.742,-1120.605,1278.320,6.15,-0.30,-33.15,18.35
14279,0.53,5.89,-38.05,16.602,-915.527,772.461,6.90,0.75,-35.70,18.30
14290,2.25,-1.71,-37.24,-375.000,-569.336,1641.602,6.90,0.75,-35.70,18.21
14300,7.72,9.29,-46.42,186.035,-619.629,1165.527,7.80,-0.45,-34.50,18.35
14310,-1.19,3.27,-48.97,6.348,-640.625,1669.922,6.45,0.75,-34.20,18.21
14320,-1.01,-0.54,-52.72,160.156,-907.227,876.953,7.35,-0.15,-34.05,18.06
14330,-7.53,-4.42,-54.30,-41.016,-498.535,721.191,7.80,0.45,-35.55,18.06
14340,6.73,-3.16,-1.49,-295.898,-272.949,1653.809,7.80,0.45,-35.55,18.35
14350,2.41,-5.49,-51.28,-163.086,-365.234,1285.156,7.95,-0.30,-33.90,18.35
14367,-0.94,-0.13,-53.54,-88.867,-293.457,1584.473,8.70,0.30,-34.65,18.35
14376,0.35,-2.31,-54.04,239.746,-855.469,1041.504,8.25,-2.55,-35.55,18.54
14386,-0.28,3.31,-48.63,-393.066,-396.484,1053.711,9.60,0.75,-34.20,18.01
14396,8.37,4.86,-42.63,-95.215,-759.277,952.637,9.00,-1.35,-34.50,18.16
14406,2.59,2.89,-49.24,228.516,-657.227,758.301,8.25,0.45,-35.25,18.21
14415,-1.48,3.04,-47.97,-62.988,-645.020,816.406,8.25,0.45,-35.25,18.35
14425,-7.62,9.24,-49.73,-449.219,-466.309,1285.156,10.35,-1.05,-34.20,18.21
14437,-3.67,-4.92,-25.78,-184.570,-92.285,1287.109,10.95,-0.45,-36.30,18.30
14447,5.38,-1.08,-50.73,383.789,-795.898,720.215,9.75,-0.45,-34.80,18.21
14457,7.09,3.99,-39.01,-276.367,-512.207,380.371,11.25,-2.55,-34.05,18.21
14467,-9.48,1.64,-49.02,-321.289,-54.199,1140.625,11.25,-2.55,-34.05,18.40
14477,5.14,-5.06,-41.33,443.848,-613.281,1056.641,10.50,0.15,-34.50,18.16
14487,1.67,-6.20,-50.33,-346.191,-478.516,877.930,10.95,-0.90,-34.80,18.49
14497,2.73,-3.94,-46.10,205.078,-981.934,1200.195,10.95,-0.90,-34.80,18.40
14509,-2.60,-13.98,-53.73,-339.355,-196.289,1819.824,12.30,-1.50,-34.20,18.16
14519,8.37,-9.27,-44.04,100.586,-490.723,892.090,11.25,0.15,-34.80,18.49
14529,0.66,0.51,-50.53,-288.086,-64.453,1277.832,12.75,-2.55,-36.30,18.30
14539,3.18,-6.33,-48.24,-82.520,-710.937,1286.133,12.75,-0.90,-35.25,18.01
14549,0.92,-2.34,-42.66,239.258,-682.617,906.250,12.75,-0.90,-35.25,18.49
14559,-9.34,-2.66,-60.72,-612.305,381.836,1986.816,12.45,-0.45,-34.05,18.30
14569,5.60,-6.13,-41.99,232.422,-1009.277,589.844,12.60,-2.25,-34.65,18.30
14581,-1.26,-8.11,-43.49,-133.789,-646.973,895.996,11.25,-0.15,-36.00,18.35
14591,-24.40,13.18,-34.67,-160.645,-949.219,989.746,13.05,-2.70,-34.20,18.21
14601,-12.28,0.30,-48.73,-573.242,187.012,566.895,13.05,-2.70,-34.20,18.30
14611,2.00,-6.94,-35.08,219.238,-1034.180,1218.262,12.60,-0.30,-35.40,18.30
14621,-4.15,-0.27,-49.97,193.359,-414.551,983.887,13.95,-1.65,-35.25,17.87
14631,-14.68,0.71,-53.40,-616.699,-552.246,1006.836,13.95,-1.65,-35.25,18.16
14641,6.69,2.60,-48.88,268.555,-989.258,409.668,13.35,-1.95,-35.40,18.35
14653,1.21,-0.09,-62.40,97.168,-640.625,791.016,14.10,-3.90,-35.70,18.40
14663,2.65,2.55,-49.82,107.910,-439.941,1007.812,14.40,-1.35,-36.90,18.40
14672,-1.07,2.85,-52.98,-12.695,-290.527,873.535,14.40,-1.35,-34.80,18.16
14682,1.73,1.44,-51.04,-49.316,-969.727,942.383,14.40,-1.35,-34.80,18.21
14692,8.48,2.28,-48.90,312.012,-1021.484,648.437,15.30,-1.50,-34.95,18.01
14702,-10.70,1.92,-43.93,-806.641,-67.383,1447.266,14.10,-2.70,-34.65,18.21
14714,-3.79,4.66,-58.11,-157.715,-581.543,1208.008,15.30,-2.25,-34.95,18.01
14724,-11.63,-3.48,-56.80,-426.270,-397.461,1488.281,15.30,-2.25,-34.95,18.21
14734,10.79,-0.43,-44.49,434.082,-863.770,419.922,14.85,-3.90,-35.70,18.35
14744,4.85,1.28,-54.02,-779.297,30.273,1990.723,17.25,-3.15,-36.15,18.16
14754,1.71,4.56,-50.48,-14.648,-824.707,807.617,17.25,-3.15,-36.15,18.21
14764,-10.36,0.27,-55.27,325.195,-368.164,712.402,16.80,-2.25,-35.40,18.30
14774,-5.27,3.96,-63.92,-304.687,-314.941,1230.469,15.30,-2.25,-35.70,18.06
14786,6.85,3.79,-58.19,-3.418,-972.168,910.156,17.10,-3.75,-36.30,18.06
14796,-5.09,0.44,-47.35,145.996,-831.543,1009.766,15.45,-2.85,-36.30,18.01
14806,-5.42,5.67,-44.88,168.457,-678.223,1030.762,15.45,-2.85,-36.30,18.21
14816,-6.05,3.79,-43.52,-311.035,-475.098,1319.824,15.75,-4.35,-36.15,18.21
14826,0.10,0.15,-53.79,43.457,-698.242,304.687,16.80,-2.70,-36.90,18.21
14836,4.01,0.85,-45.27,-136.719,-455.078,384.766,16.80,-3.45,-35.70,18.30
14846,-2.63,-1.47,-55.88,-570.312,-324.219,1181.152,18.75,-3.15,-35.70,18.40
14859,-5.21,3.34,-53.68,28.809,-926.758,824.707,18.75,-3.15,-35.70,18.30
14869,-0.47,3.92,-48.12,143.066,-739.258,551.758,17.40,-5.70,-36.00,18.21
14890,4.69,5.78,-57.47,14.160,-398.926,1154.297,18.00,-5.10,-36.60,18.30
14900,0.84,4.63,-53.16,-83.496,-1033.691,1249.023,18.00,-4.65,-36.15,18.06
14910,2.94,4.82,-50.54,-161.621,-913.086,1074.219,19.35,-3.30,-36.75,18.40
14920,-3.54,4.85,-51.01,-340.332,-680.664,1093.750,18.45,-4.35,-36.15,18.30
14932,7.87,2.46,-49.80,-139.160,-759.277,1638.184,20.25,-5.10,-36.90,18.16
14942,-0.69,2.35,-51.13,-350.586,-634.277,1232.910,20.25,-5.10,-36.90,18.35
14952,0.26,2.32,-51.56,-487.305,-503.906,1476.563,18.90,-5.25,-37.05,18.35
14962,5.69,-0.50,-59.83,-130.371,-440.430,1178.711,19.35,-4.95,-38.25,18.30
14972,2.50,-1.19,-53.08,206.543,-865.723,1163.086,20.10,-6.15,-36.75,18.21
14982,2.63,0.76,-56.37,-118.652,-461.426,901.367,20.25,-6.30,-37.35,18.06
14992,4.91,-3.46,-53.32,254.395,-999.512,1311.523,20.25,-6.30,-37.35,18.35
15004,1.91,-4.98,-54.92,-125.488,-500.977,1220.215,19.50,-7.50,-38.40,18.01
15014,-4.47,-7.50,-48.94,307.129,-591.797,1054.688,19.50,-7.50,-38.40,18.49
15024,-9.95,-6.44,-55.68,-440.918,35.156,1191.895,19.50,-9.15,-36.15,18.21
15034,-4.08,-8.58,-70.04,-478.516,-337.402,1134.766,20.10,-6.90,-37.05,18.30
15044,7.88,-3.47,-52.12,-19.531,-791.992,455.566,20.10,-6.90,-37.05,18.21
15054,-1.85,1.74,-59.48,-192.871,-512.207,944.336,20.55,-9.75,-37.50,18.21
15066,-6.87,2.95,-62.20,-17.578,-343.750,906.250,20.55,-9.75,-37.50,18.49
15076,-3.92,0.71,-51.51,-284.180,-588.867,518.555,21.90,-7.95,-36.60,18.06
15086,-1.46,-3.24,-46.67,51.758,-419.922,898.926,21.45,-6.75,-35.70,18.06
15096,5.27,-0.91,-46.44,168.945,-538.574,919.434,21.60,-7.65,-37.05,18.21
15106,4.53,-0.91,-40.64,-526.367,-202.148,1406.738,22.05,-9.30,-37.05,18.40
15116,8.98,-1.84,-56.28,-60.059,-599.609,1063.477,22.05,-9.30,-37.05,18.30
15126,7.62,1.01,-48.80,-9.766,-1014.648,518.066,21.00,-10.65,-36.90,18.49
15138,13.61,0.63,-46.81,-55.664,-1045.410,1167.480,21.60,-9.30,-37.50,18.30
15148,1.11,-5.42,-52.44,84.473,-732.422,911.621,22.65,-9.15,-37.35,18.21
15158,-21.84,-23.56,-206.55,44.922,-875.977,872.070,21.30,-10.05,-37.05,18.54
15168,-6.74,-5.08,-82.20,129.395,-531.738,1038.086,21.30,-10.05,-37.05,17.82
15178,1.52,-1.31,-40.66,-489.258,-697.754,875.000,21.45,-9.15,-37.65,18.35
15188,-1.64,4.73,-49.74,-284.180,-564.941,388.184,21.60,-10.50,-36.00,18.30
15198,-0.18,2.64,-53.89,-15.137,-441.406,1207.031,21.60,-10.50,-36.00,18.21
15210,-3.15,8.93,-44.12,-47.363,-586.426,893.066,22.35,-10.50,-37.80,18.49
15220,-9.62,2.80,-54.74,-88.867,-676.758,887.207,21.90,-10.65,-36.60,18.30
15230,-5.76,-2.40,-47.18,300.781,-485.840,960.449,22.95,-9.90,-37.65,18.35
15240,-8.85,3.34,-41.15,-411.133,-566.406,1528.320,23.40,-11.10,-36.90,18.16
15250,-9.95,4.90,-59.87,-45.898,-553.711,814.941,23.40,-11.10,-36.90,18.21
15260,-6.89,6.73,-48.37,166.016,-508.789,816.406,22.80,-10.95,-37.50,18.35
15272,4.73,6.24,-43.88,4.395,-1091.309,64.453,22.20,-10.65,-38.40,18.06
15282,-2.60,6.13,-52.79,-353.516,-420.410,1166.016,23.40,-11.55,-38.85,18.30
15292,5.24,2.92,-58.70,-134.766,-365.234,1172.363,23.70,-11.55,-35.70,18.30
15302,11.02,1.13,-36.27,435.547,-143.066,1524.414,23.70,-11.55,-35.70,18.54
15312,-0.05,8.20,-52.45,-250.488,-453.613,1052.734,22.20,-10.65,-39.15,18.30
15322,3.18,8.58,-49.95,-250.977,-344.727,961.426,23.70,-11.55,-37.65,18.30
15332,3.05,6.66,-52.16,363.770,-621.094,267.578,23.70,-11.55,-37.65,18.06
15344,13.01,8.13,-48.18,23.926,-1075.684,684.570,23.70,-12.75,-38.85,18.16
15354,4.14,6.99,-44.50,375.488,-818.848,1236.816,24.00,-13.20,-39.00,18.16
15364,-12.40,2.20,-53.50,-375.977,-587.402,1213.379,24.30,-12.15,-39.00,18.30
15374,-3.69,3.36,-34.64,467.773,-687.500,315.430,24.60,-11.85,-38.40,18.21
15384,-14.06,-0.98,-65.19,157.227,-344.727,509.766,24.60,-11.85,-38.40,18.21
15394,-12.41,-1.63,-59.69,-459.961,-33.691,837.402,24.30,-12.90,-38.25,18.30
15412,-14.72,-5.24,-49.27,-379.395,-519.531,887.207,24.75,-12.15,-38.55,18.21
15421,3.75,1.11,-49.89,224.609,-743.164,1077.637,24.60,-13.05,-37.35,18.21
15431,-6.12,1.04,-55.64,-261.719,-283.691,1460.938,24.60,-13.05,-37.35,18.01
15441,-1.38,-4.29,-50.65,-57.617,-726.074,1028.809,24.60,-13.50,-39.60,18.21
15451,-2.98,-2.87,-54.76,-21.484,-521.484,593.262,25.50,-15.30,-39.30,18.49
15461,-7.47,-0.59,-57.73,-553.223,-446.777,1999.939,25.50,-15.30,-39.30,18.49
15471,4.86,0.52,-39.11,-140.137,-747.559,1337.891,24.00,-14.40,-39.30,18.30
15482,-1.93,4.67,-38.47,-172.363,-701.172,1383.789,25.50,-14.85,-38.25,18.21
15492,-5.40,1.44,-45.34,-312.988,-720.703,1026.855,25.65,-15.00,-38.10,18.40
15502,-3.24,2.17,-54.85,304.199,-1137.207,603.027,25.05,-16.05,-38.55,18.01
15512,-6.75,-2.13,-43.63,-748.535,-103.516,1602.051,25.05,-16.05,-38.55,18.21
15522,1.86,-4.77,-48.79,23.926,-388.672,1182.129,24.75,-15.30,-39.00,18.54
15532,5.35,-2.61,-45.81,168.457,-527.344,759.277,25.50,-17.25,-39.00,18.40
15542,5.04,-3.16,-55.21,120.605,-520.508,807.617,24.90,-17.10,-38.85,18.49
15554,-3.02,0.63,-45.13,276.855,-619.629,444.336,25.50,-16.80,-39.75,18.54
15564,0.69,-4.52,-35.92,-361.328,-590.332,1336.426,25.50,-16.80,-39.75,18.30
15574,3.36,-2.60,-46.17,-11.230,-571.777,1533.691,24.15,-17.85,-39.60,18.21
15584,-0.28,2.50,-56.58,160.156,-423.828,730.469,24.75,-18.00,-39.00,17.97
15594,-5.46,0.74,-21.60,-413.086,-249.512,1132.813,24.75,-18.00,-39.00,18.30
15604,7.78,-2.21,-36.94,132.812,-1065.918,260.742,24.75,-17.25,-39.00,18.40
15616,7.92,-2.79,-44.81,94.238,-859.375,1373.535,24.90,-18.60,-38.85,18.21
15626,-7.99,-4.56,-44.96,22.461,-421.387,1248.535,24.30,-18.00,-39.75,18.35
15636,2.38,-3.56,-45.49,-164.551,-434.082,1414.063,24.30,-18.00,-39.75,18.35
15646,1.00,-4.16,-45.30,-105.957,-619.629,1126.953,24.75,-18.00,-39.75,18.21
15656,0.53,-2.86,-47.05,-5.371,-866.211,577.148,25.65,-18.30,-38.40,18.21
15666,1.05,1.25,-48.70,-288.086,-507.812,1313.965,24.90,-19.50,-39.90,18.16
15676,3.16,0.31,-43.47,-229.004,-824.707,737.793,25.05,-18.45,-40.50,18.40
15688,0.49,7.56,-41.75,-197.754,-609.863,1253.418,25.05,-18.45,-40.50,18.01
15698,0.98,-4.60,-47.18,-134.277,-697.754,611.328,24.60,-20.25,-39.15,18.49
15708,1.44,-0.15,-44.52,41.016,-697.266,467.773,26.25,-21.30,-40.05,18.30
15718,-4.43,1.68,-38.25,-155.273,-137.207,1355.469,26.25,-21.30,-40.05,18.49
15728,-1.15,1.16,-42.74,225.586,-543.945,1066.406,24.90,-20.70,-40.35,18.21
15738,-8.73,5.41,-67.73,109.863,-330.566,659.180,25.35,-19.80,-39.15,18.35
15748,1.38,0.69,-43.48,-52.246,-469.238,1036.133,26.10,-21.45,-41.40,18.16
15760,-6.80,-1.76,-43.47,-427.734,-353.027,1717.285,25.65,-20.70,-41.10,18.49
15770,1.53,1.92,-41.26,171.387,-348.145,1193.359,25.65,-20.70,-41.10,18.21
15779,7.74,1.41,-33.61,-378.418,-513.672,1242.676,25.35,-21.90,-40.65,18.35
15789,-0.19,9.04,-43.95,109.375,-581.055,1010.742,25.50,-20.10,-39.75,18.16
15799,-3.32,-4.07,-37.39,-32.227,-356.934,1217.773,26.70,-21.60,-39.75,18.21
15809,-0.67,1.02,-47.11,8.789,-567.383,674.805,26.25,-20.10,-40.05,18.16
15821,1.21,0.04,-37.30,-355.957,-504.395,1199.707,26.25,-20.10,-40.05,18.21
15831,-3.50,2.66,-36.28,154.785,-454.102,1167.969,24.75,-22.80,-39.00,18.30
15841,-6.66,3.79,-41.31,-134.277,-406.738,1464.355,24.90,-21.45,-40.35,18.06
15851,-6.74,1.61,-48.95,-361.328,-407.715,988.281,24.90,-21.45,-40.35,18.40
15861,3.18,3.13,-41.21,69.824,-556.641,1169.434,25.80,-24.00,-40.50,18.49
15871,-0.48,8.01,-34.34,-373.047,-135.254,1348.633,25.35,-21.00,-40.35,18.30
15881,0.18,5.05,-42.38,-93.750,-228.027,985.352,25.35,-22.20,-40.65,18.40
15893,2.37,1.73,-40.31,-234.863,-700.684,1160.645,25.65,-21.90,-41.10,18.21
15903,-3.29,1.69,-23.65,225.098,-877.441,558.105,25.65,-21.90,-41.10,18.30
15913,-3.85,5.95,-41.25,-419.434,-297.363,1008.789,26.25,-24.45,-40.05,18.54
15929,1.50,2.03,-48.40,-189.453,-1031.738,301.270,25.05,-23.70,-39.75,18.35
15938,-3.13,-3.08,-51.44,-158.203,-516.602,289.551,24.60,-24.30,-40.65,18.21
15948,-4.35,-2.01,-39.27,-166.504,-440.430,1192.871,24.60,-24.30,-40.65,18.49
15958,2.95,-5.85,-44.21,320.312,-630.859,979.492,25.65,-24.60,-39.90,18.40
15969,1.92,-4.02,-51.83,-275.391,-606.445,1605.957,24.60,-24.30,-39.60,18.21
15979,5.37,5.43,-39.30,103.516,-988.281,391.602,24.60,-24.30,-39.60,18.30
15988,5.01,-2.07,-37.46,329.102,-741.211,742.187,25.50,-25.65,-38.55,18.35
15998,-6.16,-1.20,-34.56,-541.992,-582.520,1652.344,24.60,-23.85,-41.40,18.40
16008,-6.64,-6.30,-33.39,-89.355,-594.727,775.391,25.35,-25.05,-39.60,18.30
16018,-5.45,-4.27,-48.21,200.195,-277.832,841.309,23.55,-26.40,-40.50,18.49
16030,1.44,-3.89,-39.18,157.715,-816.895,582.520,23.55,-26.40,-40.50,18.30
16040,-3.89,1.11,-43.61,-327.148,-78.613,1334.473,24.15,-25.50,-40.35,18.30
16050,6.95,-0.18,-36.15,-61.523,-503.418,1144.043,24.30,-28.05,-40.05,18.16
16060,5.20,4.38,-42.64,252.930,-822.266,472.656,24.15,-25.50,-40.65,18.01
16070,-6.06,1.49,-36.10,-398.926,-350.098,1974.609,25.35,-27.00,-39.90,18.30
16080,3.54,-1.74,-42.83,145.996,-790.527,826.660,25.35,-27.00,-39.90,18.40
16090,1.69,3.28,-45.08,262.207,-434.082,642.090,25.05,-25.95,-39.30,18.40
16102,4.67,-1.50,-43.37,458.984,-937.012,517.578,22.35,-28.05,-39.30,18.49
16112,-10.50,-3.43,-45.56,-347.656,-358.398,1505.859,22.35,-28.05,-39.30,18.35
16122,-7.95,-10.56,-41.03,48.828,-461.914,1198.730,23.55,-26.85,-40.50,18.35
16132,2.08,-5.47,-38.34,-38.086,-170.410,550.293,24.30,-29.55,-40.05,18.30
16142,-9.80,-2.31,-43.41,-411.621,-243.652,1945.313,23.70,-26.55,-39.90,18.06
16152,11.63,1.24,-37.72,97.168,-468.262,877.441,24.75,-27.60,-39.30,18.40
16161,16.44,-0.42,-35.15,503.418,-641.113,979.492,24.75,-27.60,-39.30,18.40
16173,16.56,-0.82,-40.92,428.711,-775.391,614.746,22.95,-27.75,-40.35,18.40
16183,3.64,4.11,-33.96,-497.559,-195.312,965.820,23.40,-28.20,-39.90,18.35
16193,3.79,2.12,-39.86,15.625,-590.820,828.125,22.95,-28.20,-40.65,18.49
16203,6.10,0.83,-30.05,286.621,-486.328,924.316,24.00,-28.35,-40.05,18.16
16212,-7.38,7.18,-40.96,102.051,-332.520,911.133,24.00,-28.35,-40.05,18.35
16222,-19.18,4.08,-30.69,-434.082,-464.355,1443.848,21.30,-28.05,-41.25,18.21
16234,-14.71,5.70,-28.53,-572.266,-69.824,1851.074,22.80,-28.35,-39.00,18.40
16244,5.88,-4.24,-40.66,560.059,-480.957,1115.723,22.80,-28.35,-39.00,18.30
16254,-5.05,1.82,-29.69,-183.594,-170.410,1064.941,22.65,-28.95,-39.90,18.40
16264,6.66,-1.55,-39.39,-116.699,-598.145,1524.414,22.80,-28.80,-39.00,18.30
16274,8.82,5.66,-38.90,22.461,-760.254,905.762,22.05,-29.55,-40.50,18.06
16284,-9.37,-4.86,-37.98,-805.664,-152.344,1762.695,22.80,-27.60,-40.50,18.06
16294,4.53,-1.47,-48.64,338.379,-979.492,793.945,22.80,-27.60,-40.50,18.21
16306,7.05,-5.80,-36.82,416.016,-1049.316,462.402,22.05,-31.20,-40.50,18.35
16316,-0.04,-1.26,-44.68,95.215,-758.789,223.633,22.35,-28.35,-40.50,18.21
16326,-3.55,3.27,-37.01,-588.379,-520.996,1999.939,22.65,-31.05,-38.85,18.49
16336,2.82,2.91,-32.15,360.840,-777.344,724.609,21.90,-30.15,-39.60,18.35
16345,5.69,1.40,-31.53,357.422,-548.828,1122.070,21.90,-30.15,-39.60,18.16
16355,3.39,-2.41,-32.77,138.184,-346.191,1637.207,21.45,-31.35,-39.60,18.40
16365,15.15,1.88,-37.27,-239.258,-807.617,742.676,22.80,-30.00,-40.05,18.30
16377,5.82,0.47,-54.50,471.191,-1087.891,916.504,22.80,-30.00,-40.05,18.16
16387,-17.98,-5.18,-51.72,-674.316,60.547,1157.227,21.45,-29.40,-41.40,18.21
16397,2.53,1.02,-32.79,625.977,-812.012,346.680,21.45,-29.40,-41.40,18.35
16407,0.22,-0.07,-39.38,-201.172,-2.441,1349.121,23.40,-30.60,-39.15,18.35
16417,-8.03,-1.59,-37.62,-144.531,-391.113,1612.305,21.30,-33.15,-39.30,18.35
16427,12.81,-3.14,-35.63,68.359,-358.887,714.844,21.30,-33.15,-39.30,18.06
16444,10.30,-4.69,-33.27,595.215,-822.266,1272.461,21.45,-32.55,-39.15,18.21
16453,-9.99,2.11,-45.09,-759.766,-86.426,1766.113,21.45,-31.05,-39.90,18.21
16463,4.63,0.12,-28.37,265.137,-839.355,450.195,21.60,-31.95,-39.00,18.35
16472,4.86,-2.42,-37.86,393.066,-871.582,443.359,21.60,-31.95,-39.00,18.49
16482,-9.26,-0.02,-40.74,-666.992,-30.273,1658.203,21.30,-31.20,-40.80,18.21
16492,9.26,-7.31,-44.62,539.551,-920.898,954.590,21.30,-31.20,-39.00,18.16
16502,1.73,-3.78,-39.89,-133.301,-838.867,1012.695,21.30,-31.20,-39.00,18.30
16514,1.61,1.53,-40.73,-10.742,-600.098,737.305,21.45,-30.15,-39.90,18.16
16524,3.24,0.63,-35.52,-459.961,36.621,1842.285,20.70,-33.75,-39.90,18.35
16534,20.32,0.21,-44.82,626.465,-770.996,1002.930,20.55,-31.65,-40.50,18.40
16543,9.95,0.32,-42.22,220.703,-578.125,564.941,21.30,-31.20,-40.50,18.40
16553,-2.06,1.54,-39.70,-326.172,-615.723,1811.035,21.30,-31.20,-40.50,18.16
16563,0.47,-2.49,-39.69,64.453,-886.719,512.695,19.35,-32.40,-39.75,18.30
16573,-18.79,4.31,-39.73,-702.637,189.941,1037.598,20.85,-31.95,-39.00,18.40
16585,-8.31,-0.59,-35.85,-527.344,-124.512,1220.215,19.35,-32.85,-39.30,18.35
16595,6.15,-6.18,-24.43,457.520,-936.523,455.566,19.20,-32.55,-39.90,18.35
16605,-6.09,0.40,-49.80,-880.371,-4.883,1447.266,19.20,-32.55,-39.90,18.49
16615,14.36,-2.09,-24.60,815.430,-885.254,578.125,18.60,-34.80,-39.30,18.35
16625,1.92,2.13,-46.12,-84.961,-348.145,721.191,18.75,-33.00,-39.60,18.40
16635,3.56,-1.05,-42.40,139.648,-988.281,949.707,19.20,-33.00,-39.15,18.21
16645,8.55,-3.02,-39.74,16.602,-950.684,637.695,17.85,-34.80,-40.50,18.01
16657,7.53,-2.79,-40.09,482.910,-685.059,962.402,19.50,-31.80,-39.15,18.01
16667,-10.59,-1.65,-54.51,-968.262,-493.164,1759.766,19.95,-34.20,-39.60,18.21
16677,12.78,-0.78,-32.98,283.203,-920.410,651.367,17.85,-34.35,-39.00,18.16
16687,-4.45,-0.28,-37.75,-482.910,-33.203,920.410,17.85,-34.35,-39.00,18.21
16697,11.94,-1.15,-37.76,225.586,-770.508,1201.172,18.45,-33.45,-40.35,18.30
16707,3.98,-3.57,-38.57,-13.672,-476.562,881.836,19.35,-35.25,-40.05,18.30
16719,4.38,4.24,-42.53,-206.055,-496.582,502.930,18.75,-34.20,-38.85,18.21
16729,-9.76,0.14,-50.60,-193.848,-451.172,1336.426,18.75,-34.20,-38.85,18.21
16739,9.27,-1.37,-15.24,610.840,-744.141,329.102,18.75,-33.45,-39.15,18.16
16749,-10.72,0.85,-21.88,-426.270,-414.551,1208.496,18.00,-34.65,-41.40,18.06
16759,6.10,-3.37,-35.73,304.199,-651.367,1134.766,18.00,-34.95,-40.35,18.30
16769,-17.90,-0.35,-38.02,-425.781,109.375,967.773,19.50,-33.00,-39.90,18.21
16779,5.98,-2.37,-31.71,635.742,-665.527,325.684,17.10,-34.80,-39.75,18.16
16791,6.43,-3.37,-41.11,488.281,-604.980,520.996,16.50,-36.15,-40.35,18.49
16801,1.06,0.91,-51.09,-534.180,-84.473,1147.461,17.25,-33.75,-39.60,18.54
16811,2.48,2.17,-15.23,175.293,-769.531,739.258,17.25,-33.75,-39.60,18.54
16821,1.19,1.08,-31.05,-145.020,-328.125,1648.438,17.10,-34.80,-38.25,18.21
16831,-3.98,0.90,-31.94,-236.328,-255.859,1949.707,17.10,-34.05,-38.25,18.35
16841,11.60,6.37,-38.34,127.441,-839.355,656.250,15.75,-36.60,-39.15,18.30
16850,-4.70,2.60,-33.50,-795.410,81.543,630.859,17.25,-35.40,-38.85,18.30
16862,-3.97,1.81,-29.05,-155.273,-117.188,1437.500,17.25,-35.40,-38.85,18.40
16872,5.61,-1.63,-42.67,-43.457,-739.258,1258.789,17.40,-37.20,-38.55,18.30
16882,7.64,-2.50,-36.20,177.734,-778.809,449.219,16.50,-34.20,-39.60,18.30
16892,-13.88,-7.21,-31.75,-231.445,-174.316,1570.801,15.75,-36.15,-37.35,18.01
16902,12.34,-4.27,-28.93,446.289,-387.207,459.961,16.65,-37.20,-39.30,18.21
16912,-19.00,-5.37,-37.02,-633.789,148.926,1047.363,16.65,-37.20,-39.30,18.35
16924,-13.89,1.21,-32.75,-682.129,14.648,1692.871,15.45,-35.25,-37.50,18.30
16934,13.21,-2.36,-26.91,694.336,-985.840,466.797,14.85,-35.85,-38.85,18.30
16944,-15.73,5.03,-35.10,-656.250,121.094,1092.773,14.85,-35.85,-38.85,18.49
16959,3.89,-2.50,-32.66,320.801,-663.574,1008.789,16.80,-35.85,-37.35,18.21
16968,-7.39,2.28,-24.08,-465.332,-178.223,875.000,15.75,-36.15,-39.15,18.01
16978,1.85,1.30,-37.49,144.531,-743.652,1083.008,17.25,-35.40,-39.90,18.30
16987,9.79,0.74,-27.06,96.680,-771.973,325.684,14.40,-36.45,-38.55,18.30
16999,0.79,4.92,-34.16,-17.578,-626.465,1223.633,14.70,-34.80,-37.50,18.35
17009,-9.63,-2.53,-50.16,-108.887,-166.504,901.367,14.70,-36.00,-38.25,18.30
17019,2.33,-7.87,-34.44,76.660,-686.523,889.648,14.70,-36.00,-38.25,18.21
17029,-6.09,0.37,-30.05,-414.062,-150.879,1090.332,13.35,-34.65,-39.15,18.01
17039,-2.73,-13.04,-38.27,544.434,-367.676,810.547,13.35,-34.65,-39.15,18.06
17049,7.60,2.26,-23.99,-412.109,111.816,1021.484,14.10,-37.05,-39.15,18.54
17058,-2.19,1.69,-27.05,-539.062,69.824,1474.609,14.10,-37.05,-38.40,18.35
17069,11.44,5.45,-21.82,27.832,-467.285,1056.152,15.30,-36.15,-37.65,18.49
17079,-19.89,-3.80,-41.26,-715.820,-263.672,1006.836,14.70,-37.20,-0.90,18.35
17089,8.69,-0.08,-31.12,665.039,-1167.969,448.242,15.30,-35.85,-38.10,18.16
17099,-11.79,-0.17,-34.49,-307.617,246.094,1256.348,15.30,-35.85,-38.10,18.40
17109,12.43,-2.10,-32.26,350.586,-651.855,305.176,14.55,-36.15,-37.65,18.35
17119,7.00,3.00,-39.12,-414.062,-24.414,746.582,14.55,-36.15,-37.65,18.21
17131,-6.18,0.53,-37.15,-306.152,-469.727,921.875,13.80,-37.05,-37.65,18.30
17141,4.85,-1.40,-29.83,-100.098,-1022.461,585.937,13.20,-36.45,-39.30,18.35
17151,-0.57,4.34,-38.00,-29.785,-107.422,818.848,14.10,-35.40,-36.60,18.49
17161,1.10,0.37,-29.76,72.266,-533.203,1783.691,13.80,-37.35,-37.35,18.21
17171,6.00,6.49,-25.32,-50.781,-546.387,1092.773,13.80,-37.35,-37.35,18.21
17181,0.95,2.02,-34.86,-90.332,-766.113,1473.145,13.80,-38.25,-37.65,18.35
17191,8.83,2.95,-40.50,-267.578,-434.082,856.445,13.05,-37.35,-38.40,18.21
17203,3.60,3.31,-36.95,80.566,-750.977,720.703,13.05,-37.35,-38.40,18.35
17213,-7.09,5.15,-22.83,-187.988,-110.352,1939.453,14.10,-36.60,-36.15,18.35
17223,3.31,2.08,-42.89,219.238,-486.816,870.117,13.95,-37.20,-37.50,18.49
17233,-4.15,1.76,-27.54,-342.285,189.941,928.711,13.35,-36.15,-39.15,18.40
17243,1.38,-4.40,-34.51,647.949,-642.578,551.270,13.50,-36.45,-38.25,18.35
17253,-4.26,4.11,-32.57,-283.691,115.723,1233.398,13.50,-36.45,-38.25,18.16
17263,3.32,-2.60,-32.91,-35.156,-388.672,1339.355,13.05,-36.15,-39.15,18.21
17275,-5.05,-9.76,-32.05,55.176,-979.492,1804.688,13.05,-37.80,-36.15,18.16
17285,2.71,-5.78,-34.76,7.324,-627.441,1012.207,12.75,-35.55,-38.25,18.35
17295,-4.57,1.05,-24.76,-365.234,-278.320,1229.980,12.00,-37.65,-37.50,18.30
17305,8.68,0.34,-29.62,23.437,-392.090,625.977,12.00,-37.65,-37.50,18.54
17314,10.77,-1.76,-38.65,54.199,-401.367,854.980,12.45,-36.75,-38.25,18.35
17324,9.72,-1.24,-28.63,-76.172,-406.250,1535.645,13.20,-37.65,-36.30,18.06
17336,-2.85,-2.02,-34.44,-420.410,-308.594,1373.047,13.20,-37.65,-36.30,18.21
17346,9.41,-4.73,-22.25,188.965,-660.645,493.164,12.00,-36.00,-38.25,18.16
17356,-2.79,-4.75,-43.72,-414.551,6.348,1329.102,12.30,-36.15,-36.90,18.30
17366,7.76,-0.24,-12.96,293.945,-623.535,842.773,12.30,-38.55,-37.35,18.49
17376,7.16,4.18,-39.16,62.988,-554.687,1024.414,12.45,-37.20,-39.00,18.49
17386,-0.99,-3.47,-36.82,-240.723,-708.496,1247.070,12.45,-37.20,-39.00,18.49
17396,3.41,-0.29,-29.89,8.789,-689.453,791.504,12.00,-37.20,-37.80,18.30
17408,7.97,0.98,-25.97,63.477,-413.574,956.055,11.40,-37.35,-37.65,18.21
17418,7.18,-2.37,-27.95,112.793,-212.402,1068.359,11.40,-37.80,-37.65,18.21
17428,1.37,-5.99,-19.88,182.617,-864.746,299.805,11.10,-37.80,-36.15,18.01
17438,-7.15,-3.85,-35.73,-323.730,-241.211,930.664,11.10,-37.80,-36.15,18.49
17448,0.17,-5.30,-31.83,175.293,60.547,1577.148,12.45,-37.65,-36.75,18.35
17458,5.74,-5.14,-33.85,-377.441,-248.047,1220.215,10.65,-39.30,-35.70,18.21
17474,3.33,3.73,-31.24,35.156,-547.363,809.082,11.10,-37.35,-37.35,18.54
17484,-5.70,4.39,-48.89,-142.090,-384.277,1050.781,11.70,-38.40,-37.05,18.35
17494,6.44,4.70,-25.31,-92.773,-397.949,723.145,11.10,-37.35,-38.10,18.21
17504,8.77,4.77,-29.81,-400.879,-176.758,936.035,12.30,-37.80,-38.40,18.49
17514,12.09,0.17,-28.76,180.176,-726.074,1094.238,12.30,-37.80,-38.40,18.21
17523,3.24,1.82,-31.82,81.055,-464.844,1312.012,11.85,-37.35,-36.90,18.30
17533,-8.74,4.57,-31.73,-158.691,-207.031,1079.590,11.70,-38.40,-34.80,18.21
17545,2.09,1.38,-34.01,-170.410,-317.383,766.602,11.70,-37.65,-38.55,18.49
17555,10.65,2.57,-22.36,23.926,-408.203,1489.258,10.95,-37.20,-36.30,18.30
17565,9.89,2.22,-43.08,-36.621,-236.816,953.613,10.95,-37.20,-36.30,18.16
17575,6.58,-2.32,-38.09,-70.801,-47.363,1239.746,12.60,-37.05,-37.35,18.40
17585,7.27,-0.10,-24.69,62.500,-705.566,922.852,11.40,-37.05,-37.35,18.54
17595,-3.04,1.02,-38.10,-273.926,-609.375,755.371,11.40,-37.05,-37.35,18.30
17605,-2.21,2.92,-37.31,-109.863,-364.258,1393.066,11.25,-37.95,-37.05,18.30
17617,0.71,-0.30,-44.00,-27.344,-769.043,418.945,10.50,-39.15,-38.25,18.30
17627,0.63,4.60,-40.05,-173.340,-301.270,792.969,11.70,-37.95,-37.05,18.30
17637,-0.37,2.25,-40.20,-159.180,-361.816,1254.883,11.70,-38.40,-38.25,18.40
17647,3.31,-2.18,-40.67,-96.680,-583.008,1014.160,11.70,-38.40,-38.25,18.06
17657,-5.86,-4.14,-31.34,-139.160,-878.418,678.711,11.25,-37.65,-37.50,18.16
17667,-8.68,0.85,-39.13,-37.109,-130.371,1231.934,11.10,-38.55,-36.60,18.16
17677,-4.70,1.99,-33.70,-208.496,-185.547,1586.426,11.10,-38.25,-36.60,18.40
17689,-2.29,3.80,-40.21,-274.902,-633.789,1381.836,9.90,-37.80,-38.10,18.40
17699,-1.27,-2.87,-38.38,-211.914,-565.430,1142.090,9.90,-37.80,-38.10,18.35
17709,-2.47,-5.09,-40.76,-125.000,-497.070,1268.066,10.95,-37.95,-36.75,18.30
17719,-6.27,-3.90,-38.32,-271.484,-362.793,978.516,11.25,-37.95,-37.80,18.35
17729,3.43,3.05,-41.70,-107.422,-351.562,864.746,9.75,-38.70,-36.75,18.21
17739,5.98,2.41,-47.12,-267.578,-47.363,970.703,10.35,-38.25,-37.35,18.54
17751,12.64,3.02,-40.32,-458.496,-574.219,1572.754,9.60,-38.25,-37.65,18.16
17761,9.95,2.69,-45.56,-55.176,-854.492,1192.871,9.30,-37.65,-37.50,18.40
