Time_ms,GyroX_degps,GyroY_degps,GyroZ_degps,AccelX_g,AccelY_g,AccelZ_g,MagX_uT,MagY_uT,MagZ_uT,Temp_C
1311,1.67,-2.95,1.68,-24.414,38.086,1020.020,-22.80,-13.20,-34.05,16.24
1328,0.11,-1.47,-1.59,-26.855,41.992,1015.625,-22.65,-14.25,-33.15,16.05
1337,-0.05,-1.31,0.31,-20.508,33.203,1016.113,-22.05,-13.65,-32.55,16.05
1347,0.60,-1.43,0.37,-14.160,43.457,1020.508,-22.05,-12.90,-34.05,16.19
1357,-0.47,-0.16,-1.71,-30.273,38.086,1014.648,-22.95,-13.80,-33.90,16.19
1367,0.28,-2.00,-3.51,-33.691,36.621,1017.578,-21.90,-13.50,-34.20,15.95
1377,-1.23,-2.26,-2.17,-18.555,26.855,1018.066,-21.90,-13.50,-34.20,15.91
1387,-0.92,3.84,-1.42,-28.809,33.691,1017.090,-21.00,-12.75,-32.70,16.24
1399,0.22,1.15,-4.03,-10.742,43.945,1020.508,-22.65,-13.50,-33.45,15.76
1409,-0.05,-1.43,-1.79,-24.414,30.273,1014.648,-22.65,-13.50,-33.45,16.10
1419,-0.47,0.63,-0.52,-14.160,30.273,1013.672,-23.40,-14.25,-32.40,16.10
1429,-0.15,0.41,-2.30,-22.461,35.156,1015.137,-22.80,-14.10,-32.55,16.24
1439,-1.10,0.21,-1.48,-17.578,35.156,1007.324,-22.65,-13.05,-32.70,15.95
1449,3.17,0.34,-2.89,-31.250,27.344,1020.996,-22.05,-14.85,-33.30,16.29
1459,-0.63,-3.69,-0.11,-19.531,31.250,1020.996,-22.05,-14.85,-33.30,15.86
1471,1.02,-1.30,-0.93,-17.578,39.551,1013.184,-21.30,-12.45,-33.30,15.95
1481,-1.10,0.11,-0.83,-20.020,38.574,1011.230,-20.70,-13.05,-33.15,16.05
1491,0.50,-0.33,1.68,-21.484,43.457,1018.066,-20.70,-13.05,-33.15,16.10
1501,-0.23,-0.53,-2.73,-33.691,30.762,1022.949,-21.60,-12.45,-33.30,16.10
1511,-0.05,0.19,1.45,-20.996,43.945,1015.137,-22.05,-13.65,-33.75,16.19
1521,-1.71,-0.33,-2.81,-28.809,40.039,1008.789,-22.95,-13.05,-33.15,16.38
1531,-0.60,-0.12,-0.42,-23.926,39.063,1009.766,-22.35,-12.90,-33.75,16.24
1543,-1.54,-0.73,-1.56,-29.297,30.273,1020.508,-23.40,-13.80,-33.45,16.19
1553,2.47,-0.61,1.81,-29.297,27.832,1009.277,-22.35,-14.10,-33.30,16.10
1563,-0.01,-1.19,1.80,-24.414,35.156,1019.043,-22.35,-14.10,-33.30,15.86
1573,0.40,-0.71,-2.85,-31.250,34.668,1016.113,-22.05,-14.10,-33.30,16.24
1583,1.36,-0.76,2.40,-33.691,34.668,1022.461,-22.05,-13.20,-33.30,16.05
1593,0.21,3.06,-2.66,-15.625,30.273,1013.184,-21.60,-13.20,-33.30,16.19
1603,0.82,1.02,-1.30,-14.160,47.852,1014.160,-22.05,-13.65,-33.00,15.95
1615,-0.24,-1.34,-1.17,-25.391,43.457,1014.648,-22.05,-13.65,-33.00,16.10
1625,-0.76,0.21,-0.78,-27.832,30.273,1007.812,-23.55,-12.90,-34.05,16.43
1635,-0.72,-1.47,0.12,-22.949,35.645,1013.672,-22.65,-13.80,-33.15,16.10
1645,0.15,-0.09,-1.63,-37.109,41.992,1016.602,-22.35,-13.65,-33.00,15.86
1655,1.05,-0.91,1.58,-30.273,30.273,1026.367,-20.85,-13.20,-32.55,16.38
1665,-0.96,-0.17,-0.04,-21.973,40.039,1001.465,-22.20,-13.50,-32.40,16.38
1677,0.49,-0.02,-0.76,-29.785,37.109,1016.602,-22.20,-13.80,-33.45,16.19
1687,-0.07,0.36,-1.53,-29.785,32.715,1013.184,-23.25,-12.15,-33.00,16.19
1697,-1.11,-0.11,0.00,-22.949,44.434,1020.996,-23.25,-12.15,-33.00,16.38
1707,-0.38,-0.31,-0.47,-28.809,21.484,1011.230,-21.90,-13.05,-34.65,16.29
1717,-0.98,-1.43,-0.47,-33.203,31.738,1017.578,-21.90,-12.75,-33.90,16.10
1727,1.63,-2.50,0.26,-32.715,31.738,1014.648,-24.00,-12.90,-32.25,15.86
1737,0.18,0.98,-3.01,-16.113,29.785,1020.508,-22.65,-14.25,-32.40,16.24
1749,-1.20,0.82,-2.24,-14.160,42.969,1020.508,-21.90,-13.05,-33.15,15.95
1759,0.39,-1.10,-0.52,-25.391,36.133,1020.508,-22.65,-13.50,-33.90,16.10
1769,0.41,0.78,0.94,-26.367,46.387,1029.297,-22.80,-14.10,-32.55,16.24
1778,-0.14,0.27,-0.85,-24.414,44.434,1020.996,-22.80,-14.10,-32.55,16.19
1788,0.08,-1.53,-0.60,-37.109,35.156,1020.020,-22.95,-12.30,-32.70,16.10
1798,1.79,-1.85,2.39,-20.508,39.063,1026.855,-22.35,-13.20,-31.50,15.95
1808,-0.89,2.77,-0.53,-31.738,35.156,1006.348,-21.60,-14.40,-33.00,16.24
1820,0.90,-1.40,-2.50,-30.273,42.480,1016.602,-23.25,-13.65,-33.30,16.24
1842,-0.30,0.75,-2.10,-23.437,37.109,1009.766,-22.35,-13.65,-33.00,16.19
1851,1.16,-1.98,-0.22,-13.184,28.320,1027.832,-20.85,-13.65,-34.05,16.19
1861,0.95,-1.17,-1.03,-26.855,39.551,1028.809,-20.85,-13.65,-34.05,16.29
1871,-1.78,-0.53,-0.90,-28.809,27.344,1017.090,-22.20,-13.80,-31.95,16.48
1881,1.02,0.39,0.20,-24.902,42.969,1016.602,-22.65,-13.80,-32.70,15.86
1890,0.56,-1.03,-3.05,-32.227,32.227,1007.812,-23.25,-14.40,-34.50,16.24
1902,-0.31,-0.74,-2.02,-23.437,27.832,1018.555,-20.85,-13.65,-34.50,16.19
1912,-1.05,-0.56,-1.09,-20.020,40.039,1019.043,-20.85,-13.65,-34.50,16.19
1922,-0.82,-0.32,-2.52,-20.996,41.992,1022.949,-22.20,-12.75,-33.90,16.24
1932,1.47,-0.25,2.64,-35.156,35.645,1020.996,-22.05,-14.10,-33.75,16.24
1942,0.41,-1.65,1.41,-22.949,44.434,1025.879,-22.05,-14.10,-33.75,16.38
1952,-2.23,-1.04,-0.74,-22.949,32.715,1013.184,-22.20,-13.80,-32.40,15.86
1962,-1.53,-1.75,1.25,-32.715,34.668,1016.602,-22.05,-12.45,-33.30,16.38
1974,-0.95,-1.05,-1.74,-23.926,41.504,1017.578,-22.95,-14.25,-33.45,16.05
1984,-0.59,0.23,1.91,-30.762,30.762,1024.414,-22.95,-14.25,-33.45,16.29
1994,-0.42,-0.85,-2.25,-27.344,42.480,1019.043,-22.95,-13.05,-33.90,16.24
2004,0.13,0.11,-1.82,-27.344,49.805,1018.066,-21.45,-14.25,-33.90,16.48
2014,-0.84,-1.89,-0.17,-33.203,31.250,1016.113,-21.45,-14.25,-33.90,16.10
2024,1.69,0.79,-3.30,-14.648,45.410,1023.437,-22.35,-12.45,-33.75,16.29
2034,-0.60,-1.08,0.53,-30.762,39.063,1015.625,-23.40,-15.00,-33.45,16.10
2046,-0.16,1.46,-1.94,-13.672,20.996,1018.555,-22.05,-12.15,-33.30,16.29
2056,1.22,-2.52,0.31,-18.066,26.855,1012.695,-23.25,-13.65,-32.25,15.95
2066,-1.16,-0.56,-1.27,-26.367,45.898,1022.949,-23.25,-13.65,-32.25,16.38
2076,-1.22,-1.86,0.85,-32.227,37.109,1018.555,-22.95,-13.80,-33.45,16.24
2086,-1.76,-0.95,-2.69,-22.461,41.016,1020.020,-21.90,-12.75,-33.15,15.95
2096,2.10,-0.24,-0.39,-14.648,30.762,1005.371,-21.90,-12.75,-33.15,16.05
2108,-1.34,-0.43,0.05,-18.555,44.434,1025.879,-22.05,-14.10,-32.25,16.38
2118,1.36,-1.47,-2.01,-16.113,22.461,1010.254,-23.40,-13.50,-33.45,16.29
2128,0.62,1.77,0.18,-18.066,35.156,1028.320,-23.25,-12.45,-34.05,15.95
2137,-0.98,-0.60,0.37,-14.648,36.133,1015.625,-22.95,-13.50,-33.45,16.43
2147,0.83,1.05,-1.54,-19.531,42.480,1015.137,-22.95,-13.50,-33.45,16.19
2157,0.40,-0.35,-0.21,-31.250,45.410,1014.648,-23.25,-13.20,-33.00,16.19
2167,-0.34,-0.64,-2.65,-27.832,39.551,1013.184,-22.20,-12.75,-33.15,16.29
2179,1.53,-1.94,-0.17,-28.320,34.180,1018.066,-22.20,-12.75,-33.15,16.58
2189,1.01,1.20,-2.94,-18.066,17.578,1020.996,-21.90,-13.05,-33.15,16.24
2199,0.90,1.98,-3.24,-34.180,35.645,1023.926,-21.90,-14.70,-33.15,16.24
2209,-2.48,-0.04,-0.18,-22.949,30.762,1012.695,-23.55,-12.90,-33.00,16.10
2219,-0.66,-2.57,-3.95,-28.809,44.922,1018.066,-21.45,-13.50,-33.90,16.24
2229,-0.43,-2.34,-0.25,-22.949,39.551,1016.602,-21.45,-13.50,-33.90,16.24
2239,-1.25,1.08,-2.60,-21.973,41.016,1026.367,-22.80,-13.20,-33.30,16.43
2251,-2.28,0.57,-2.37,-11.719,44.922,1014.160,-22.65,-12.75,-33.45,16.38
2261,0.55,0.98,-1.73,-23.437,38.574,1018.066,-22.65,-12.30,-33.45,16.29
2271,-0.27,0.51,0.95,-22.949,35.645,1012.695,-21.30,-14.10,-32.55,16.24
2281,-2.31,-1.00,-1.13,-12.695,43.457,1020.508,-22.80,-12.45,-33.30,16.29
2291,-0.89,-0.24,-1.35,-22.461,32.227,1012.695,-21.60,-12.15,-33.75,16.10
2301,-0.05,-1.51,0.98,-16.602,37.109,1033.691,-21.60,-12.90,-33.00,16.29
2311,-0.51,-0.52,-0.59,-16.113,32.715,1024.414,-21.60,-12.90,-33.00,16.24
2323,-0.03,2.76,-1.56,-19.531,46.875,1010.742,-21.60,-12.45,-34.05,16.38
2333,-0.11,0.38,-0.08,-27.344,27.344,1012.207,-22.95,-13.80,-34.20,16.43
2343,-0.79,1.82,-0.44,-19.531,41.016,1022.949,-21.30,-13.20,-33.75,16.24
2359,-1.73,-0.35,-1.66,-20.996,29.297,1015.137,-22.20,-13.80,-33.45,16.10
2368,-2.27,-0.69,-1.25,-33.691,40.039,1028.809,-22.35,-12.15,-33.00,16.05
2378,0.81,2.29,-0.90,-31.738,35.156,1028.809,-22.35,-12.90,-33.00,16.38
2388,0.72,-3.47,-2.48,-24.902,43.457,1027.344,-22.35,-12.90,-33.00,16.48
2402,-2.15,0.05,-1.24,-0.977,-5.371,1036.133,-23.70,-13.50,-34.95,16.29
2412,-0.26,-0.09,1.13,7.812,48.828,900.879,-22.65,-13.50,-33.90,16.19
2422,-0.69,0.15,0.11,-11.719,38.086,1044.922,-22.95,-12.75,-32.70,16.38
2432,1.18,0.15,-3.08,-21.484,18.066,1012.207,-22.65,-13.50,-31.95,16.24
2442,-0.35,-0.38,-3.05,-16.602,4.883,1035.156,-22.65,-13.50,-31.95,16.38
2452,0.03,0.23,-2.03,-2.441,44.434,970.215,-21.60,-14.40,-33.75,16.38
2462,0.42,-1.15,-2.14,-26.367,34.668,1008.789,-22.65,-13.50,-33.15,16.48
2474,-0.80,-1.05,-0.63,-26.855,33.203,1051.270,-22.65,-13.50,-33.15,16.48
2484,-2.20,-2.45,-2.56,-40.039,46.875,1031.250,-21.60,-14.10,-34.50,16.43
2494,0.63,-2.01,-2.18,-25.879,29.297,1017.578,-21.60,-14.10,-34.50,16.24
2504,-1.87,1.93,-0.91,-37.598,50.781,1023.926,-22.05,-12.75,-32.40,16.38
2514,-1.86,-0.39,0.79,-35.645,49.805,1019.043,-22.05,-13.20,-33.75,16.43
2524,0.63,3.38,-0.08,-29.297,31.738,1007.324,-22.05,-13.20,-33.75,16.24
2534,-0.88,-1.82,-0.34,-21.973,28.809,1018.066,-22.35,-14.10,-32.70,16.58
2546,-0.57,0.38,-0.47,-18.066,33.203,1007.324,-22.35,-14.10,-33.00,16.38
2556,2.71,-0.63,0.15,-26.855,39.551,1021.484,-22.80,-12.90,-33.00,16.43
2566,-0.28,0.63,-0.11,-21.484,14.160,1023.437,-22.35,-14.10,-33.75,16.38
2576,1.22,-2.51,-4.11,-18.066,18.066,1011.230,-21.45,-12.30,-33.45,16.10
2586,-0.46,0.15,-1.95,-33.203,37.109,1016.602,-23.25,-12.45,-32.55,16.38
2596,-2.84,0.66,2.11,-32.715,52.246,1017.578,-23.25,-12.45,-32.55,16.38
2606,0.42,4.14,-2.13,-25.879,51.758,1022.949,-21.90,-13.05,-33.15,16.38
2618,-1.05,0.02,0.74,-25.879,35.645,1020.020,-21.90,-13.80,-32.70,16.24
2628,0.19,-1.02,-0.35,-31.738,29.785,1016.602,-21.90,-13.80,-32.70,16.43
2638,0.36,-0.60,-0.56,-35.156,47.852,1025.391,-22.20,-14.25,-33.45,16.38
2648,-0.42,0.24,-1.71,-33.691,41.504,1025.879,-22.80,-14.10,-33.30,16.19
2658,-0.71,0.80,-0.44,-14.648,42.480,1024.414,-22.35,-14.10,-32.25,16.19
2668,0.31,-2.53,-0.30,-22.949,50.293,1041.016,-22.20,-12.30,-33.45,16.24
2678,-0.25,1.70,0.50,-18.066,20.996,1019.531,-22.20,-12.30,-33.45,16.38
2690,0.83,1.51,2.49,-18.555,30.762,995.605,-22.20,-14.25,-33.45,16.38
2700,-1.29,-0.56,2.79,-13.672,37.109,998.047,-21.00,-14.25,-33.15,16.29
2710,0.83,1.54,-1.21,-14.648,9.766,1026.855,-21.00,-14.25,-33.15,16.43
2720,-1.07,0.47,-0.58,-23.926,50.781,1061.523,-21.45,-13.50,-32.70,16.29
2730,-0.23,-0.40,0.23,-12.695,24.902,1033.203,-20.25,-12.75,-31.65,16.38
2740,-1.90,-2.25,-0.40,-10.254,22.949,973.633,-22.20,-12.75,-32.70,16.19
2750,0.58,0.10,-0.06,-6.836,37.109,1006.836,-21.90,-12.75,-33.45,16.29
2762,1.92,0.20,-0.44,-17.578,30.273,1009.277,-21.90,-12.75,-33.45,16.19
2772,-0.73,0.46,0.85,-18.555,27.344,1027.832,-22.20,-13.50,-32.40,16.24
2782,-1.11,0.89,0.60,2.930,35.156,1024.414,-21.60,-12.90,-33.00,16.29
2792,-1.40,-1.40,-2.86,45.898,22.949,1029.785,-22.20,-13.05,-33.15,16.38
2802,-0.99,1.36,-0.56,26.855,65.430,1000.000,-22.05,-12.15,-33.00,16.43
2812,1.56,-0.33,-1.58,19.531,44.922,1026.855,-21.45,-12.30,-31.95,16.29
2822,-1.69,-1.08,-1.89,40.039,53.711,1033.203,-21.00,-12.30,-33.15,16.29
2834,0.73,-1.92,0.00,41.016,-20.020,1016.113,-21.90,-11.85,-32.70,16.19
2844,-0.61,-4.02,1.46,47.852,50.781,1062.988,-21.90,-11.85,-32.70,16.10
2854,-1.40,1.65,-1.59,5.859,12.207,962.891,-20.10,-12.45,-33.00,16.38
2864,-1.37,1.33,-0.50,29.297,36.133,993.652,-21.45,-12.30,-32.40,16.43
2879,-0.78,-0.88,0.14,24.414,44.922,1032.715,-21.90,-12.30,-32.40,16.38
2888,0.59,0.63,-1.67,7.324,25.391,1051.270,-21.90,-12.30,-32.40,16.24
2900,0.17,-1.61,1.44,7.324,32.227,1033.203,-22.65,-11.85,-31.95,16.48
2910,-0.54,-0.24,-2.73,0.977,26.367,1023.437,-22.35,-12.90,-33.30,16.19
2920,-0.05,0.64,-2.62,8.789,20.996,1028.320,-22.35,-12.90,-33.30,16.38
2930,0.18,-2.61,2.36,-12.695,20.020,1026.367,-22.95,-13.05,-32.40,16.38
2940,2.21,0.69,-2.98,-3.418,42.480,1034.180,-21.00,-14.70,-32.70,16.38
2950,0.88,0.40,2.22,24.414,41.992,1004.395,-23.70,-13.50,-33.45,16.29
2960,-0.18,0.12,-2.75,-26.367,54.199,1058.594,-22.20,-13.50,-33.15,16.19
2972,1.85,-1.62,-1.75,40.527,69.336,1022.461,-22.20,-13.50,-33.15,16.29
2982,-1.14,1.64,0.51,22.949,17.090,1044.922,-21.45,-13.80,-34.20,16.48
2992,1.92,0.74,-0.47,28.320,41.016,1025.879,-22.80,-14.10,-33.30,16.10
3001,-0.73,1.82,0.92,45.410,37.109,959.473,-22.80,-14.10,-33.30,16.72
3011,-1.53,0.17,0.95,11.719,2.441,1023.926,-22.65,-13.80,-33.90,16.38
3020,1.96,-0.15,-1.92,-22.949,10.254,1026.855,-23.40,-14.70,-33.15,16.24
3030,-2.03,-2.45,0.20,14.160,77.637,1045.898,-22.05,-14.10,-34.05,15.91
3042,-0.87,1.19,-1.04,-7.324,55.664,967.773,-22.95,-13.80,-34.95,16.38
3052,-1.24,-0.08,-0.23,29.785,22.949,1004.883,-22.95,-13.80,-34.95,16.24
3062,-0.43,0.31,3.04,-31.250,34.668,1043.945,-23.25,-14.40,-33.00,16.43
3072,-0.54,-2.53,-1.54,-29.785,52.246,1035.156,-22.20,-14.25,-32.40,16.48
3082,1.85,1.58,-0.76,-13.672,62.012,1046.387,-22.20,-14.25,-32.40,16.38
3092,-0.19,2.20,-3.20,-23.437,38.574,1070.313,-22.05,-13.20,-34.05,16.43
3102,0.04,-1.34,-1.72,-16.113,46.875,1028.320,-21.60,-12.90,-32.55,16.38
3114,-1.82,2.27,0.76,16.113,110.352,1086.914,-20.85,-12.15,-34.50,16.38
3124,-1.89,0.21,-2.13,-0.977,-1.953,1038.574,-21.60,-12.45,-34.80,16.43
3134,1.78,-4.40,1.92,-4.883,87.891,1073.242,-21.60,-12.45,-34.80,16.19
3144,0.86,0.23,-0.95,54.688,11.230,1021.973,-24.30,-12.45,-34.05,16.48
3154,0.55,-1.82,-0.08,104.980,9.766,1056.641,-23.70,-13.05,-34.95,16.38
3164,1.73,-0.09,0.06,12.695,40.039,1005.371,-23.70,-13.05,-34.95,16.29
3174,0.85,-0.26,-1.95,64.453,41.016,1039.063,-24.75,-13.20,-34.80,16.58
3186,-3.88,-2.01,1.15,3.906,53.223,1003.906,-24.60,-12.30,-34.65,16.43
3196,0.80,0.75,0.06,-1.953,55.664,1029.297,-24.30,-13.65,-34.05,16.19
3206,1.01,1.14,-0.02,2.441,50.293,1003.418,-24.30,-13.65,-34.05,16.24
3215,0.31,2.60,-1.18,81.543,25.391,1075.195,-24.30,-13.65,-34.05,16.43
3225,0.38,1.84,-0.57,127.930,23.437,908.203,-23.55,-14.85,-33.30,16.38
3234,-1.73,0.84,0.62,145.996,-0.488,1045.410,-23.70,-13.80,-34.20,16.19
3244,-0.92,-1.11,-0.87,126.465,29.785,995.117,-23.70,-13.80,-34.20,16.48
3254,0.97,-2.98,-0.32,77.148,14.648,1090.820,-24.30,-14.10,-33.75,16.38
3266,0.73,-0.84,-1.91,59.082,11.230,954.590,-23.70,-12.30,-34.65,16.24
3276,0.05,-2.78,-4.46,34.668,12.207,1062.988,-21.90,-12.30,-33.90,16.43
3286,-0.01,-1.76,0.24,83.008,34.668,1072.266,-21.90,-12.30,-33.90,16.38
3296,0.47,3.31,0.34,176.270,22.461,987.793,-22.20,-13.05,-31.20,16.43
3305,-6.33,-10.07,12.73,190.430,77.637,921.387,-22.20,-13.05,-31.20,16.29
3315,4.62,-7.67,-57.01,561.523,-80.566,589.355,-19.65,-13.20,-32.25,16.24
3325,-1.57,-0.86,-17.34,-6.348,38.086,1120.117,-21.00,-13.05,-31.20,16.38
3337,-1.16,-2.69,0.44,-71.289,6.348,1060.059,-21.30,-14.40,-32.25,16.24
3347,0.02,-1.31,-4.29,144.531,-16.113,1073.730,-22.20,-15.45,-31.65,16.62
3357,0.50,0.60,-2.78,147.949,37.109,922.363,-20.55,-14.40,-30.30,16.43
3367,1.98,-3.66,1.05,82.031,27.832,1028.809,-20.55,-14.40,-30.30,16.38
3376,1.82,1.90,0.15,40.527,13.672,933.594,-19.65,-13.20,-31.05,16.48
3391,-0.38,-0.65,-3.79,100.586,27.832,1033.691,-19.95,-12.75,-30.90,16.72
3400,-0.43,0.22,-1.33,160.156,51.270,1047.852,-18.90,-12.45,-31.50,16.48
3412,1.02,-0.69,-0.67,137.207,58.105,981.445,-20.10,-12.90,-31.05,16.48
3422,-1.70,0.05,-3.48,42.969,12.207,990.234,-20.10,-12.90,-31.05,16.43
3432,-0.53,-2.02,-2.34,95.215,8.789,1050.293,-20.55,-14.40,-33.00,16.58
3442,-1.44,1.89,-1.42,157.227,35.156,1006.348,-22.05,-14.40,-33.75,16.43
3452,-1.64,0.38,-4.18,102.539,2.930,975.586,-22.05,-14.40,-33.75,16.19
3462,0.82,-2.44,-1.22,56.641,54.199,1054.688,-22.35,-14.10,-35.25,16.24
3472,-0.37,-2.85,-1.45,169.922,27.344,1032.715,-23.70,-13.80,-34.95,16.38
3484,-1.69,0.61,-5.30,181.641,20.508,963.867,-23.70,-12.30,-35.70,16.29
3494,-0.28,0.65,-3.85,7.324,21.973,1011.230,-24.90,-13.50,-36.90,16.58
3504,-1.26,-2.67,1.88,158.691,14.648,1149.414,-24.90,-13.50,-36.90,16.58
3514,-1.08,-1.83,-6.14,237.305,23.926,1036.621,-26.25,-14.85,-33.30,16.43
3524,0.98,-0.85,2.35,-17.090,36.133,980.957,-24.60,-15.45,-35.40,16.24
3534,-0.52,0.07,-5.04,101.563,-16.602,1027.344,-24.60,-15.45,-35.40,16.19
3544,-2.49,0.53,-1.76,277.344,-2.441,1006.836,-22.35,-13.20,-31.50,16.48
3556,-0.36,1.39,-2.42,-6.836,16.113,969.238,-22.20,-13.50,-32.40,16.29
3566,-1.45,-1.27,-3.73,158.203,19.043,1059.570,-19.65,-14.10,-32.25,16.38
3576,-2.39,1.06,-2.27,273.437,-40.527,982.910,-19.65,-14.10,-32.25,16.29
3586,-0.74,-0.27,-4.79,-71.289,-17.090,939.453,-19.65,-14.10,-32.25,16.58
3596,-0.49,-1.79,-4.36,305.664,4.395,1045.410,-19.20,-11.85,-32.70,16.62
3606,-1.03,-2.31,-4.00,169.922,15.137,1003.418,-19.20,-11.85,-32.70,16.38
3616,-0.95,-3.27,-4.58,-76.660,-34.180,1076.172,-22.80,-12.15,-32.70,16.29
3628,-2.50,-0.19,-2.99,238.281,-7.812,908.691,-24.60,-13.05,-34.95,16.38
3638,-0.37,-5.31,-8.73,31.250,-13.672,1263.672,-25.35,-11.85,-35.40,16.19
3648,-0.55,0.60,-2.93,312.988,-46.387,707.520,-26.10,-13.50,-34.95,16.43
3658,-0.24,-1.15,-11.30,-7.812,110.840,1375.000,-26.10,-13.50,-34.95,16.62
3668,-2.08,-2.63,-2.02,318.848,-10.742,895.020,-25.05,-14.10,-34.50,16.58
3678,-0.86,2.01,-2.82,66.895,7.812,995.605,-22.95,-13.05,-33.45,16.62
3688,-1.02,-2.06,-5.24,118.652,-89.355,1293.945,-22.20,-13.05,-30.45,16.38
3700,-0.37,2.31,-8.31,88.379,20.020,906.250,-20.70,-14.70,-30.45,16.29
3710,-0.15,-1.47,-5.77,256.348,-50.781,1048.828,-18.75,-13.80,-30.45,16.43
3720,0.87,0.63,-5.75,128.418,-35.156,858.398,-19.50,-13.80,-30.90,16.24
3730,-0.58,-3.81,-5.15,151.367,20.996,1414.551,-19.35,-14.10,-32.55,16.77
3740,3.53,2.23,-4.22,127.930,-115.723,884.766,-19.35,-14.10,-32.55,16.38
3750,0.49,-1.84,-4.47,80.566,-54.688,1264.160,-23.70,-13.50,-36.15,16.38
3760,1.87,3.41,-7.33,219.238,-54.688,617.187,-24.30,-11.70,-36.30,16.58
3772,-0.85,0.18,-8.76,81.543,43.457,928.711,-25.80,-12.45,-36.00,16.48
3782,-0.11,0.70,-8.61,209.961,10.742,1080.078,-25.50,-13.20,-34.05,16.38
3792,0.29,0.70,-7.61,97.168,63.477,796.875,-25.50,-13.20,-34.05,16.48
3802,2.85,0.69,-5.76,207.031,-66.895,1201.172,-21.45,-12.30,-32.40,16.43
3812,0.69,-1.77,-7.33,102.539,26.855,908.691,-21.60,-14.85,-31.80,16.43
3822,1.72,-2.57,-9.01,233.887,-147.461,1249.512,-21.60,-14.85,-31.80,16.48
3832,1.34,0.70,-5.59,115.723,1.953,1034.668,-18.60,-12.90,-31.05,16.38
3844,-0.82,-1.83,-8.82,139.160,-59.082,641.602,-19.95,-13.05,-32.40,16.62
3854,-0.90,-4.39,-8.44,207.520,-21.973,1118.652,-23.25,-11.70,-35.55,16.43
3864,-2.41,-0.97,-8.34,99.609,38.086,980.469,-25.05,-11.70,-36.30,16.43
3874,-0.42,0.21,-9.15,75.684,22.949,1117.188,-25.05,-11.70,-36.30,16.48
3884,-1.75,0.53,-7.95,254.883,-59.082,1103.027,-24.60,-12.30,-34.95,16.38
3894,-0.88,2.22,-11.10,115.234,121.094,1033.691,-22.20,-12.75,-32.70,16.58
3911,-0.22,0.93,-6.21,79.102,-4.883,969.238,-18.45,-12.30,-30.15,16.62
3920,0.50,-3.73,-7.84,122.070,-54.199,1191.406,-17.55,-13.50,-31.65,16.38
3930,1.42,-2.08,-5.31,202.637,-80.566,955.566,-19.35,-12.15,-34.80,16.38
3940,0.38,-0.18,-9.50,229.492,-70.313,1110.840,-23.25,-12.45,-37.50,16.38
3950,-0.54,1.31,-8.51,187.012,-11.719,915.527,-23.25,-12.45,-37.50,16.38
3960,2.51,1.54,-11.16,63.965,23.926,1258.301,-25.35,-13.05,-36.60,16.77
3970,-0.17,-2.28,-12.21,271.973,-95.215,792.480,-23.25,-13.20,-34.50,16.48
3982,-0.88,0.60,-6.31,183.594,89.355,1331.055,-23.25,-13.20,-34.50,16.58
3992,0.26,-0.92,-11.44,105.957,-12.207,902.344,-17.55,-13.05,-30.15,16.58
4002,0.31,1.02,-7.28,142.578,-72.754,1387.207,-18.60,-10.95,-32.25,16.43
4012,0.72,2.55,-13.56,221.191,14.648,984.863,-20.25,-11.55,-34.20,16.62
4022,1.57,-0.78,-11.70,235.840,-81.543,1178.223,-22.95,-11.55,-35.70,16.58
4032,0.63,-1.34,-9.15,85.449,-46.875,867.676,-22.95,-11.55,-35.70,16.19
4042,-4.29,-1.24,-9.23,131.836,-35.156,1292.480,-22.65,-12.75,-35.40,16.77
4054,0.95,-1.01,-12.76,164.551,18.555,1038.574,-20.10,-13.20,-32.55,16.10
4064,-3.37,-1.24,-9.76,136.230,57.617,1091.797,-20.10,-13.20,-32.55,16.48
4074,0.60,0.27,-11.09,191.406,-5.371,911.621,-15.90,-11.70,-32.55,16.48
4084,-1.08,-1.28,-11.79,267.090,-6.836,657.715,-18.90,-11.25,-35.25,16.48
4094,1.09,-0.05,-12.19,313.477,-105.469,980.469,-22.80,-11.25,-37.05,16.38
4104,1.46,2.49,-9.95,-58.105,-72.266,946.289,-23.25,-12.15,-36.30,16.29
4114,-3.36,-1.08,-10.50,265.137,-17.090,1091.309,-23.25,-12.15,-36.30,16.43
4126,-1.81,-2.44,-12.01,270.996,41.992,1270.508,-19.50,-13.80,-30.15,16.29
4136,-3.39,-1.02,-11.47,-10.742,112.305,1050.293,-16.65,-12.15,-29.10,16.19
4146,-1.42,-0.50,-12.84,181.641,-102.539,1259.766,-17.55,-11.85,-32.40,16.48
4156,-0.51,-0.87,-12.31,212.402,-11.719,1105.957,-21.90,-9.90,-35.40,16.48
4166,-2.77,-2.13,-13.28,73.730,-52.246,998.047,-24.30,-12.90,-36.00,16.58
4176,1.50,-0.07,-13.18,202.148,-130.371,1181.641,-21.45,-12.75,-33.45,16.48
4186,-2.73,1.81,-12.75,296.387,12.695,840.332,-18.45,-12.75,-30.15,16.24
4197,-0.40,0.37,-10.46,23.437,-0.488,1188.965,-17.85,-12.75,-30.15,16.48
4207,0.21,-1.69,-14.07,263.672,-48.340,807.129,-21.45,-11.85,-33.90,16.10
4217,-0.89,3.49,-15.54,223.145,-89.844,757.324,-21.45,-11.85,-33.90,16.58
4227,-1.53,-1.89,-12.78,242.676,-97.656,1093.750,-24.15,-12.75,-35.70,16.48
4237,-2.80,-0.17,-13.63,191.406,46.387,1259.766,-24.15,-12.75,-32.70,16.62
4247,0.04,-0.56,-10.99,71.289,-178.711,808.594,-24.15,-12.75,-32.70,16.48
4257,0.82,-3.34,-14.76,198.730,-124.023,859.863,-18.75,-11.55,-33.90,16.19
4269,-2.86,-3.63,-15.12,214.355,114.258,948.242,-18.75,-11.55,-33.90,16.38
4279,2.89,-2.63,-14.48,68.848,-56.152,1099.121,-21.90,-12.30,-35.40,16.24
4289,-0.60,-2.64,-15.04,325.684,-159.180,978.516,-20.25,-13.80,-30.15,16.48
4299,1.01,-1.05,-11.97,351.074,44.922,1263.672,-16.50,-11.85,-28.95,16.58
4309,-1.52,-4.91,-17.99,39.063,-127.930,1292.969,-17.25,-9.90,-32.40,16.38
4319,0.69,-3.40,-13.27,149.414,-18.555,1136.719,-17.25,-9.90,-32.40,16.62
4331,-3.74,-2.70,-16.68,-162.109,80.078,1341.797,-22.65,-11.55,-34.20,16.72
4341,-0.46,-9.34,-14.08,61.523,119.629,1519.531,-19.65,-12.15,-31.05,16.48
4351,-3.13,-7.78,-13.52,284.668,70.801,1229.004,-19.65,-12.15,-31.05,16.62
4361,5.35,1.09,-15.19,17.578,253.906,1452.148,-17.85,-9.30,-31.80,16.24
4371,2.98,-2.63,-17.48,447.754,78.125,979.004,-22.05,-10.05,-33.75,16.38
4381,3.66,-3.15,-12.76,291.016,-38.574,1148.926,-22.80,-10.50,-33.75,16.48
4391,0.93,-0.27,-17.58,356.934,98.145,1186.523,-18.45,-11.55,-28.95,16.62
4403,2.63,0.40,-9.25,311.035,-226.074,996.582,-18.45,-11.55,-28.95,16.48
4413,-0.93,1.97,-13.62,247.070,-30.273,631.836,-18.90,-8.85,-32.55,16.43
4428,-2.66,3.28,-13.78,127.441,-90.820,1090.332,-22.35,-10.05,-32.55,16.48
4437,-3.02,2.01,-12.31,58.594,55.664,1067.383,-22.35,-10.05,-32.55,16.29
4447,-6.01,6.72,-13.24,155.762,-181.152,517.090,-17.55,-13.50,-28.20,16.58
4457,-6.34,4.95,-15.58,289.062,-23.437,988.770,-17.10,-10.95,-28.05,16.48
4467,0.79,0.74,-14.95,236.816,-138.672,1194.824,-19.95,-10.65,-31.65,16.58
4477,1.70,5.56,-17.75,183.594,-151.855,1310.547,-22.80,-11.70,-32.55,16.58
4489,1.32,-1.87,-16.40,384.277,-262.695,986.328,-15.90,-11.25,-25.80,16.77
4499,-2.90,3.37,-16.56,68.848,-125.000,1252.441,-18.90,-10.05,-29.55,16.72
4509,-4.32,-0.57,-22.56,233.887,123.535,853.516,-22.80,-11.25,-32.25,16.38
4519,-6.26,-3.79,-19.37,258.789,-167.480,850.098,-20.85,-12.45,-30.75,16.62
4529,-6.17,-7.75,-19.35,403.809,-295.898,1061.523,-15.15,-10.05,-27.60,16.58
4539,-5.55,-2.59,-20.95,70.313,107.910,1387.695,-18.60,-9.30,-31.05,16.58
4551,-3.87,-6.43,-20.46,283.203,56.641,892.578,-22.80,-11.25,-33.00,16.72
4561,-1.98,-2.83,-20.48,234.863,48.828,1066.895,-22.80,-11.25,-33.00,16.43
4571,-2.76,-5.44,-22.56,249.512,-111.328,931.641,-17.55,-12.30,-27.45,16.62
4581,0.59,-2.27,-21.11,40.527,21.973,769.043,-18.45,-10.35,-31.20,16.58
4591,1.12,-1.89,-22.82,284.180,-319.336,1024.902,-23.25,-8.85,-33.00,16.38
4601,1.20,-1.44,-22.27,-106.445,-111.816,740.723,-21.45,-11.55,-30.45,16.62
4611,-0.80,-3.94,-21.29,435.547,-125.488,1087.891,-21.45,-11.55,-30.45,16.72
4623,0.45,-0.14,-20.66,-81.055,-61.523,1087.891,-18.60,-9.75,-31.50,16.58
4633,1.27,-3.96,-17.29,190.918,-196.777,582.520,-22.95,-11.10,-33.90,16.62
4643,4.11,-0.03,-22.82,177.734,8.301,1367.676,-22.95,-11.10,-33.90,16.62
4653,-2.81,-0.80,-18.45,248.047,-56.152,802.734,-17.10,-9.75,-28.35,16.43
4663,7.40,4.92,-20.08,359.375,-59.570,1039.551,-20.25,-9.90,-31.65,16.72
4673,0.56,2.81,-17.21,395.508,-103.516,388.672,-22.20,-11.10,-33.90,16.43
4683,3.40,-3.35,-20.27,242.187,-182.617,993.164,-18.60,-12.90,-29.55,16.62
4695,-0.95,-0.56,-20.14,-99.609,102.051,983.398,-18.60,-12.90,-29.55,16.38
4705,0.19,-1.50,-19.71,212.402,-198.242,1048.340,-20.85,-9.30,-33.75,16.48
4715,2.62,-1.02,-18.24,126.465,-379.395,610.352,-22.65,-11.55,-32.40,16.62
4725,-1.27,-0.19,-21.14,-1.953,-113.770,989.746,-22.65,-11.55,-32.40,16.38
4735,1.59,2.38,-20.78,249.512,11.230,623.047,-17.85,-8.85,-31.05,16.48
4745,-2.31,-2.26,-24.30,102.539,-26.855,1063.965,-22.20,-8.70,-34.20,16.43
4755,0.92,-1.95,-24.60,353.027,-57.129,1999.939,-20.25,-11.10,-31.20,16.24
4767,1.52,-5.92,-20.73,28.320,85.449,1416.504,-16.80,-9.15,-29.70,16.58
4777,-0.11,-1.73,-23.59,290.039,-145.020,972.168,-16.80,-9.15,-29.70,16.24
4787,0.98,0.24,-22.85,333.496,-278.320,700.684,-21.90,-9.90,-34.20,16.48
4797,-0.77,0.23,-22.63,236.816,-35.156,627.930,-15.45,-12.15,-31.05,16.72
4807,3.89,0.43,-24.09,-135.742,93.750,1385.254,-15.45,-12.15,-31.05,16.62
4817,4.11,-1.64,-21.31,60.059,-67.383,1586.426,-21.30,-8.55,-35.55,16.58
4827,0.38,-1.77,-20.10,301.270,-94.727,1094.238,-18.15,-10.05,-30.75,16.48
4839,1.24,10.31,-21.83,257.324,-333.496,768.555,-21.00,-7.95,-33.90,16.48
4849,-11.91,1.73,-24.56,93.262,-434.570,1394.043,-21.00,-7.95,-33.90,16.48
4859,-17.49,-1.79,-21.02,418.457,-201.660,1999.939,-15.75,-9.15,-30.15,16.29
4869,-12.29,-4.31,-19.73,-122.559,31.738,835.449,-18.75,-7.50,-33.15,16.43
4879,-11.61,-3.20,-24.85,221.680,-4.883,1737.793,-20.70,-10.35,-33.90,16.72
4889,-5.84,-2.50,-23.11,220.215,-81.543,732.910,-16.65,-8.55,-29.10,16.62
4901,4.43,-8.13,-28.01,228.027,-33.691,1262.207,-16.65,-8.55,-29.10,16.58
4911,10.56,-9.60,-25.38,-60.059,-59.570,794.922,-20.25,-9.15,-33.45,16.62
4921,3.96,-13.44,-33.52,-48.828,-276.367,713.379,-16.05,-8.70,-30.15,16.58
4931,0.50,-10.40,-29.16,202.637,-470.703,493.652,-16.05,-8.70,-30.15,16.58
4946,-11.52,-5.44,-20.78,-55.176,147.949,1221.680,-20.25,-8.25,-33.90,16.72
4955,-16.44,4.27,-44.47,-2.441,246.094,1345.703,-15.90,-7.65,-30.30,16.62
4967,8.61,7.35,-12.30,330.078,-62.500,1138.672,-18.60,-5.25,-33.00,16.62
4977,6.76,11.42,-27.80,-25.879,-341.309,228.516,-19.50,-6.30,-34.20,16.62
4987,1.80,4.18,-19.58,108.398,-371.582,1134.766,-19.50,-6.30,-34.20,16.38
4997,6.71,3.58,-20.16,370.605,-558.594,420.898,-17.10,-4.95,-32.55,16.48
5007,-2.43,4.93,-24.98,62.012,-283.691,1627.441,-19.35,-6.90,-33.75,16.29
5017,-2.21,2.70,-22.29,420.898,-226.562,615.234,-19.35,-6.90,-33.75,16.43
5027,-8.35,-0.37,-24.82,485.352,-283.691,1127.441,-17.25,-4.65,-32.40,16.38
5039,-4.69,2.40,-26.30,9.766,181.641,934.082,-15.75,-7.95,-28.20,16.58
5049,-1.87,-4.05,-29.65,4.883,-153.320,741.211,-18.00,-3.45,-32.70,16.62
5059,1.07,-6.27,-23.81,474.609,-403.809,826.660,-18.00,-3.45,-32.70,16.62
5069,0.79,-2.73,-30.63,117.676,-157.715,1213.379,-14.10,-5.85,-29.40,16.58
5079,3.23,-6.71,-25.87,303.223,-108.398,1011.719,-18.15,-5.70,-33.30,16.48
5089,3.81,-5.02,-27.93,179.199,-423.828,1271.973,-18.15,-5.70,-33.30,16.38
5099,2.00,-1.66,-27.11,-119.141,-260.254,977.539,-14.85,-7.50,-30.45,16.48
5111,3.58,-1.31,-27.04,-4.395,-43.945,1422.852,-19.50,-4.35,-34.20,16.29
5121,2.69,0.60,-32.43,42.480,-234.375,1100.098,-17.40,-8.85,-32.25,16.43
5131,0.39,-1.92,-25.44,355.469,-324.707,1164.063,-14.55,-6.75,-30.15,16.62
5141,-4.53,1.21,-30.68,272.461,-97.168,1456.543,-14.55,-6.75,-30.15,16.62
5151,2.07,1.33,-26.32,-99.609,-68.848,950.684,-15.75,-9.15,-31.20,16.77
5161,4.13,-3.11,-29.95,313.477,-229.492,1041.504,-14.55,-6.30,-31.65,16.58
5171,0.90,-6.07,-23.11,401.367,-211.914,1229.004,-19.50,-7.95,-32.40,16.38
5183,-2.05,-2.52,-31.26,281.738,132.324,700.195,-15.30,-8.70,-29.70,16.72
5193,-0.82,-6.08,-27.99,160.156,-326.660,1073.730,-16.50,-5.85,-32.40,16.48
5203,-5.86,0.32,-23.10,24.902,-177.246,688.477,-17.25,-8.70,-33.45,16.72
5213,-8.76,5.33,-28.96,133.301,48.340,735.840,-13.20,-6.90,-30.30,16.58
5223,-8.96,3.46,-22.67,-19.531,176.758,1026.855,-13.20,-6.90,-30.30,16.48
5233,-3.44,1.69,-20.14,59.082,0.977,1996.094,-14.10,-9.90,-31.20,16.43
5243,1.98,-0.30,-24.48,278.320,36.621,1739.746,-14.40,-4.95,-31.80,16.62
5255,1.86,6.36,-23.87,17.090,-558.594,733.398,-17.40,-7.35,-35.55,16.72
5265,3.55,1.18,-20.49,124.023,-253.906,420.898,-13.35,-7.05,-30.90,16.38
5275,5.47,1.34,-32.11,381.348,-397.949,1000.488,-13.35,-7.05,-30.90,16.38
5285,3.98,-1.31,-29.78,2.441,-640.625,1937.012,-16.80,-8.25,-30.15,16.62
5295,-2.70,0.69,-28.37,74.707,-351.074,455.566,-12.00,-4.50,-31.50,16.48
5305,-4.67,-0.45,-28.98,125.000,-31.738,682.617,-12.00,-4.50,-31.50,16.58
5317,-5.05,-2.49,-23.80,151.367,-400.391,1105.957,-12.45,-7.35,-28.80,16.77
5327,-6.54,-3.24,-26.90,39.063,-123.535,866.699,-15.15,-4.50,-32.55,16.58
5337,-1.00,0.23,-24.12,452.148,-303.223,976.562,-16.80,-8.25,-32.70,16.48
5347,-4.07,2.61,-32.80,-123.047,128.906,1050.293,-13.35,-4.65,-30.15,16.72
5357,-3.74,-2.39,-28.44,642.578,-524.414,1831.055,-13.35,-4.65,-30.15,16.24
5367,-10.55,3.47,-27.08,-203.613,-201.660,559.082,-13.50,-6.15,-29.85,16.62
5377,-7.21,-2.66,-26.45,441.406,-270.020,883.301,-15.75,-1.95,-33.15,16.43
5389,2.51,-4.91,-30.07,-56.641,-89.844,1967.773,-15.75,-1.95,-33.15,16.62
5399,5.72,-0.94,-30.21,157.715,95.703,848.145,-17.85,-6.45,-33.75,16.38
5409,3.91,-0.01,-24.35,224.121,-30.273,1999.939,-17.85,-6.45,-33.75,16.58
5419,7.26,1.97,-18.14,187.012,-332.520,866.211,-16.50,-4.95,-30.75,16.62
5429,1.39,0.36,-31.03,39.063,-225.098,1327.148,-16.50,-3.90,-32.70,16.48
5439,2.91,0.05,-24.98,363.770,-552.246,175.781,-16.50,-3.90,-32.70,16.19
5449,8.11,-0.20,-23.70,-115.723,76.172,1607.910,-14.85,-6.75,-32.55,16.62
5466,13.16,4.47,-27.86,215.820,-250.000,586.914,-14.85,-6.75,-33.45,16.48
5475,5.49,-1.95,-24.04,176.270,-596.191,165.039,-16.05,-4.65,-34.20,16.62
5485,-7.89,-3.43,-26.79,458.984,-121.582,686.035,-12.60,-6.30,-29.70,16.48
5495,-8.40,-1.63,-25.38,167.480,-440.430,649.902,-14.70,-2.85,-32.55,16.58
5505,-13.14,-8.04,-31.90,378.418,-426.270,592.773,-12.75,-7.35,-30.75,16.43
5515,-7.63,-6.91,-46.97,431.152,-324.707,906.250,-12.75,-7.35,-30.75,16.48
5525,-8.19,-11.36,-47.50,-184.082,16.602,1730.469,-14.55,-7.95,-32.40,16.77
5537,0.05,-13.90,-18.14,480.469,-158.691,1564.453,-10.35,-3.15,-30.15,16.58
5547,2.23,-4.85,-29.34,-934.082,7.812,1999.939,-15.75,-5.10,-31.65,16.58
5557,5.36,0.84,-30.85,380.859,-622.559,667.969,-10.95,-4.05,-27.60,16.62
5567,9.29,-4.62,-28.13,647.949,-332.520,696.289,-15.45,-4.95,-33.00,16.38
5577,10.08,-2.72,-35.57,-480.469,-383.789,703.125,-11.25,-5.25,-29.85,16.48
5587,3.76,-4.47,-37.08,586.426,-531.250,392.578,-15.75,-2.25,-33.15,16.29
5597,7.18,-4.27,-29.70,391.113,-288.574,1274.414,-15.75,-2.25,-33.15,16.62
5609,-8.30,-5.12,-35.73,-84.961,-688.477,354.980,-13.50,-1.35,-33.00,16.48
5619,-4.55,-11.05,-31.47,775.391,170.898,1621.094,-12.30,-7.05,-30.45,16.48
5629,7.14,-2.65,-28.05,-438.965,-90.332,1107.422,-12.45,-1.35,-31.05,16.62
5639,-6.14,5.40,-33.66,229.004,-363.770,221.191,-13.95,-5.25,-31.80,16.62
5649,-1.71,-2.35,-32.34,582.520,-368.652,-454.590,-13.95,-5.25,-31.80,16.72
5659,-0.80,-5.47,-23.03,297.852,147.949,1999.939,-15.30,-3.45,-33.45,16.77
5669,17.60,9.41,-35.79,-41.016,-883.301,1220.703,-10.35,-3.90,-29.40,16.58
5681,0.88,-0.27,-33.08,552.246,-382.812,1871.582,-11.40,-6.30,-30.15,16.43
5691,1.67,-1.99,-29.53,219.727,-477.539,1755.859,-13.20,-3.30,-33.30,16.48
5701,1.39,2.18,-32.05,-216.797,-377.441,953.613,-11.85,-6.75,-30.45,16.58
5711,-3.65,1.00,-36.99,-156.250,-206.543,662.598,-12.45,-2.10,-33.00,16.62
5721,-6.72,1.07,-30.43,220.703,-289.062,628.418,-12.45,-2.10,-33.00,16.48
5731,2.67,0.85,-30.73,312.988,-188.965,781.738,-11.85,-1.95,-31.95,16.77
5741,5.64,-2.48,-24.63,130.859,19.043,1554.199,-10.50,-4.50,-31.05,16.72
5753,7.17,-4.67,-28.85,167.969,-32.227,906.250,-10.50,-4.50,-31.05,16.43
5763,5.82,-4.68,-37.15,189.941,-52.246,669.434,-11.40,-5.55,-33.15,16.58
5773,12.07,-5.91,-23.94,471.191,-270.508,1545.898,-11.25,-1.65,-32.25,16.38
5783,0.73,4.14,-35.30,-215.820,-402.832,1053.711,-12.60,-3.90,-34.20,16.58
5793,4.87,4.05,-31.47,37.109,-599.609,601.074,-9.60,-1.05,-33.15,16.48
5803,-1.53,3.44,-27.35,-172.363,-921.875,793.457,-9.60,-1.05,-33.15,16.58
5815,-10.45,4.77,-31.33,364.258,304.199,607.422,-10.05,-2.10,-31.80,16.58
5825,5.41,2.53,-20.27,345.703,-14.648,1205.078,-10.35,-4.35,-34.95,16.43
5835,7.56,0.97,-37.38,186.035,347.168,1409.668,-10.35,-4.35,-34.95,16.62
5844,3.21,4.90,-36.16,-120.117,-1402.832,1268.066,-11.25,-2.55,-34.80,16.43
5854,-11.41,7.45,-27.40,144.043,-725.098,152.832,-8.40,-0.75,-30.90,16.72
5864,-16.85,-0.18,-37.84,7.324,-460.449,190.430,-10.95,-1.65,-33.00,16.38
5874,-22.50,-5.84,-42.83,297.363,-527.344,-166.992,-8.55,-0.90,-30.75,16.72
5887,-13.08,2.63,-35.31,-85.449,322.266,111.328,-8.55,-0.90,-30.75,16.62
5897,-8.33,-6.46,-44.81,-56.641,-131.348,895.508,-8.25,-0.15,-33.75,16.43
5907,3.63,-10.50,-34.51,-58.594,473.633,430.176,-8.70,0.75,-33.90,16.62
5917,23.26,7.85,-37.56,-189.453,-598.633,546.387,-8.70,0.30,-34.65,16.58
5927,10.14,5.37,-39.38,-233.398,-174.316,215.820,-6.90,-0.30,-35.40,16.29
5937,7.92,-0.95,-27.61,197.754,-471.680,791.016,-9.75,-1.35,-34.80,16.48
5947,1.09,5.34,-34.44,-217.285,-518.066,338.379,-7.35,-0.15,-34.50,16.62
5959,0.89,1.16,-40.27,101.563,-28.809,811.035,-8.40,0.00,-34.20,16.72
5969,-4.42,-2.05,-36.31,6.836,-135.254,778.320,-8.40,0.00,-34.20,16.58
5991,8.80,4.83,-37.53,-75.195,-253.418,528.809,-6.60,-0.45,-35.25,16.72
6000,10.21,1.60,-37.41,-504.883,-132.812,1811.035,-5.85,0.15,-35.25,16.72
6010,12.43,1.74,-39.44,-208.008,-307.617,1408.691,-5.55,0.90,-36.30,16.77
6020,2.50,4.56,-31.27,-126.465,-607.910,583.496,-5.55,0.90,-36.30,16.58
6030,-19.96,6.53,-34.03,-12.207,-413.574,670.410,-6.45,-0.45,-34.05,16.58
6040,-10.60,-4.23,-29.38,218.262,-383.789,1028.809,-6.45,-1.05,-35.40,16.58
6052,-6.00,-2.37,-38.34,-99.609,84.961,675.293,-5.85,-0.45,-34.50,16.58
6062,-0.63,-4.85,-31.60,-101.074,161.133,960.449,-6.45,0.00,-34.20,16.72
6072,-0.65,-1.02,-40.29,-84.473,-116.699,680.664,-5.85,-1.35,-36.00,16.62
6082,-0.34,-6.98,-29.67,78.125,-271.484,1095.703,-5.70,-0.75,-33.90,16.82
6092,3.50,-3.27,-39.02,-413.086,7.812,1379.883,-5.70,-0.75,-33.90,16.77
6102,1.66,2.63,-37.96,-40.527,-554.199,579.102,-6.45,1.50,-35.40,16.48
6112,-1.63,4.50,-33.53,43.945,-340.332,927.246,-5.70,1.05,-34.65,16.58
6124,11.76,3.93,-35.23,98.633,-620.117,911.621,-5.70,1.05,-34.65,16.38
6134,7.49,2.49,-33.10,16.602,-908.203,1312.988,-5.70,1.95,-34.95,16.48
6143,-1.71,1.76,-34.15,-183.594,-439.453,806.152,-6.15,2.25,-36.60,16.48
6153,2.63,3.85,-34.87,87.891,-359.375,1588.379,-5.70,1.50,-36.15,16.58
6162,-3.83,11.52,-35.37,-195.801,-263.184,731.445,-5.10,0.45,-36.75,16.48
6172,0.82,5.80,-28.59,309.082,-496.582,447.754,-5.10,0.45,-36.75,16.58
6181,-0.99,6.95,-41.70,-109.863,138.672,1062.500,-5.70,1.50,-37.35,16.62
6193,10.35,-1.86,-33.21,-145.020,-248.535,1108.887,-4.35,0.15,-37.05,16.82
6203,9.59,-0.10,-31.90,-13.184,-264.160,920.898,-4.35,0.15,-37.05,16.91
6213,4.40,-6.57,-35.88,114.746,-737.793,717.285,-3.00,0.75,-36.15,16.72
6223,-2.44,-4.11,-34.67,-76.172,-329.590,852.051,-2.40,-0.15,-36.75,16.62
6233,-0.92,-11.56,-30.77,30.762,-171.875,1207.520,-2.25,0.00,-37.65,16.38
6243,0.66,-4.07,-35.13,-279.297,-121.094,1577.637,-3.90,0.15,-36.00,16.43
6255,-6.46,-10.94,-30.98,-145.508,258.301,1441.406,-3.90,0.15,-36.00,16.58
6265,3.02,-4.05,-30.44,-188.477,134.766,1916.992,-3.45,0.30,-35.70,16.72
6275,-0.03,-1.50,-34.72,-231.934,36.621,692.871,-3.00,1.05,-36.60,16.77
6285,-1.98,-5.12,-27.25,59.082,-139.648,589.844,-3.00,1.05,-36.60,16.72
6295,-3.73,-3.86,-32.30,-243.164,-169.434,1749.512,-3.45,1.05,-36.90,16.62
6305,-5.82,-6.27,-34.22,-187.988,-7.812,1258.789,-2.85,1.35,-37.05,16.72
6315,-6.34,-4.11,-31.75,275.879,-597.168,707.520,-2.85,1.35,-36.30,16.48
6327,-2.28,0.71,-29.81,37.109,-473.633,421.387,-3.15,2.10,-36.30,16.24
6337,-4.70,-0.54,-30.22,259.766,-457.031,497.559,-3.15,2.10,-36.30,16.58
6347,-3.69,-7.32,-30.33,-114.258,-177.734,1097.168,-2.25,0.30,-38.10,16.62
6357,1.62,-5.73,-36.25,-180.664,139.648,1585.938,-1.20,0.90,-38.55,16.82
6367,9.20,-2.34,-39.51,-175.293,-173.828,1486.328,-1.20,0.90,-36.00,16.72
6377,4.70,-1.15,-31.34,-192.383,-493.164,458.496,-0.75,1.05,-36.60,16.62
6387,1.82,-5.50,-32.55,202.148,-331.543,582.520,0.00,1.50,-36.60,16.43
6399,6.74,-2.05,-29.60,206.055,-420.898,459.473,-1.20,0.45,-36.00,16.58
6409,1.63,-4.46,-30.97,-8.789,-336.914,1050.293,-0.90,2.10,-34.50,16.62
6419,-1.29,-2.85,-29.96,-442.871,63.965,1252.441,-0.90,2.10,-34.50,16.38
6429,3.32,3.19,-28.40,109.375,-518.066,637.207,-1.05,1.05,-34.65,16.77
6439,-3.68,0.23,-30.98,70.313,-263.184,1038.086,0.00,-0.30,-34.95,16.62
6449,-2.28,-2.17,-23.98,-332.520,-423.828,602.051,0.75,0.75,-34.95,16.82
6459,-6.43,1.69,-32.95,-110.840,198.730,1429.688,0.15,-0.15,-35.25,16.48
6471,1.83,-1.05,-32.05,-163.574,184.082,1999.939,0.15,-0.15,-35.25,16.58
6481,9.92,4.98,-28.82,-349.121,-218.262,1280.762,0.30,0.30,-34.20,16.58
6491,8.87,6.68,-28.27,-37.598,-666.504,513.184,0.30,0.30,-34.20,16.38
6506,4.47,2.11,-28.24,-60.547,-222.656,999.512,0.45,0.90,-35.55,16.58
6516,3.10,4.16,-32.28,-309.570,-387.207,1508.789,-0.75,1.05,-35.40,16.38
6526,4.39,6.13,-31.70,131.836,-579.590,772.461,-0.15,1.35,-34.50,16.82
6535,0.85,8.03,-35.37,-375.977,-156.738,1417.480,0.30,0.00,-34.95,16.72
6546,-11.24,2.52,-24.53,-259.277,-241.699,881.348,0.30,0.00,-34.95,16.29
6556,-16.76,1.05,-32.76,171.387,-348.633,1232.910,1.65,1.65,-35.25,16.48
6566,-15.95,-2.76,-30.31,-222.168,287.598,1002.930,-0.15,1.65,-35.25,16.72
6576,-6.82,-1.11,-33.46,103.516,286.621,995.605,-0.15,1.65,-35.25,16.72
6586,2.69,-0.19,-30.54,-168.457,106.934,1020.996,0.75,0.30,-35.40,16.62
6596,7.43,7.52,-22.64,152.832,-479.980,886.230,0.75,1.05,-34.65,16.58
6605,-0.82,0.03,-35.41,-529.297,39.063,1713.867,1.20,0.15,-34.50,16.58
6617,3.18,-4.21,-27.85,14.160,115.723,1722.168,0.15,1.35,-35.55,16.38
6626,-3.94,2.60,-26.54,61.523,-591.797,348.145,0.15,1.35,-35.55,16.72
6636,-11.82,1.10,-25.24,-203.125,-258.301,655.273,1.05,1.50,-34.20,16.91
6646,-8.69,2.72,-26.56,-159.180,59.082,702.637,1.05,0.75,-34.20,16.62
6656,-11.22,4.27,-26.16,-516.602,-311.523,1691.406,1.05,0.75,-34.20,16.62
6666,-21.89,-3.89,-21.34,118.164,-79.590,713.867,2.25,0.00,-35.40,16.43
6676,-14.67,-7.11,-5.24,-7.324,232.422,1968.750,1.50,0.75,-34.95,16.62
6688,-4.52,-10.34,-8.99,-68.359,416.992,949.707,1.65,0.45,-33.75,16.43
6698,8.98,-13.34,-27.62,68.848,-323.242,1771.484,2.55,0.30,-34.65,16.29
6708,8.69,-11.90,-23.68,90.332,-150.391,1128.906,2.55,0.30,-34.65,16.82
6717,1.99,-9.17,-20.96,140.137,234.375,737.793,0.45,0.45,-36.30,16.62
6727,2.88,-14.66,-25.27,-44.922,-107.422,974.609,1.65,0.15,-35.25,16.38
6737,9.55,-15.09,-29.58,50.781,-479.004,1215.820,2.55,1.05,-34.65,16.48
6746,-8.05,-15.98,-19.31,-453.125,63.477,1232.910,0.90,0.45,-35.55,16.77
6758,9.85,-13.91,-19.87,-199.219,-425.781,596.191,3.60,-0.45,-34.50,16.62
6768,9.52,-9.69,-18.69,-53.223,-312.012,554.687,2.10,0.15,-34.50,16.58
6778,9.18,-14.93,-14.71,280.273,-143.555,299.805,2.40,0.45,-36.00,16.62
6787,7.54,-19.92,-17.10,-16.113,-314.453,1091.309,2.40,0.45,-36.00,16.58
6797,8.24,-21.02,-23.48,157.227,-315.430,1031.738,2.55,1.95,-33.90,16.38
6807,-0.43,-19.39,-20.80,333.496,-567.383,899.902,1.05,-0.30,-34.20,16.77
6817,2.94,-24.96,-5.07,-258.301,100.098,1702.637,2.25,1.05,-34.65,16.58
6829,-1.84,-14.71,-30.09,-93.750,-145.020,776.367,0.75,0.00,-35.40,16.48
6839,-1.92,-9.14,-22.70,-50.781,-234.375,691.406,0.75,0.00,-35.40,16.77
6849,-6.93,-11.79,-16.69,-72.266,-76.172,1460.938,1.50,-0.30,-34.95,16.77
6859,-3.67,-2.50,-18.85,-41.504,-768.555,235.352,2.40,-0.15,-34.50,16.77
6869,-6.89,-8.02,-23.68,-90.332,-543.457,1492.676,2.40,-0.15,-34.50,16.72
6879,-5.93,-2.57,-29.95,-75.195,-276.855,1027.344,1.20,0.15,-33.75,16.38
6889,-15.27,-1.42,-24.30,312.012,-363.770,637.695,0.90,0.15,-34.80,16.72
6901,-16.63,-5.56,-29.50,358.398,-352.051,563.477,1.65,-0.45,-33.30,16.24
6911,-15.48,-15.69,-30.51,-233.887,-0.977,1206.543,2.40,-0.15,-36.30,16.72
6921,-14.31,-13.24,-33.33,-53.223,339.844,1505.371,2.40,-0.15,-36.30,16.62
6931,4.21,-3.06,-27.40,-480.957,16.113,1350.586,1.20,-0.15,-34.80,16.58
6941,6.60,2.40,-23.93,-94.238,-464.355,937.500,0.75,-1.05,-35.40,16.48
6951,-2.16,3.24,-21.64,-51.270,-479.980,1536.133,0.75,-1.05,-35.40,16.48
6961,-4.93,16.19,-25.95,407.715,-122.070,747.559,1.50,-0.30,-35.40,16.38
6973,11.08,19.06,-18.00,257.812,-136.719,691.895,0.90,-0.15,-35.55,16.38
6983,1.42,17.66,-24.21,47.363,7.324,914.062,1.80,-0.30,-34.65,16.38
6993,10.33,4.92,-17.73,98.633,-468.750,794.922,1.80,-0.30,-34.65,16.62
7003,-0.47,3.85,-18.15,-59.570,-557.617,639.648,2.85,-0.45,-34.50,16.77
7018,-1.32,3.79,-29.27,-17.090,-168.945,1901.855,2.40,0.90,-34.80,16.58
7027,-5.13,-5.26,-17.76,-204.102,-36.133,1580.078,1.80,-1.05,-35.40,16.38
7039,9.08,5.66,-26.13,-360.352,87.891,487.793,2.85,0.90,-35.55,16.72
7048,14.23,1.24,-14.60,137.695,-170.410,1207.520,2.40,0.15,-34.80,16.77
7058,13.47,7.89,-19.20,-115.234,-62.988,1068.359,3.45,0.30,-34.65,16.82
7067,-2.77,4.24,-19.37,168.457,-376.465,804.199,3.00,0.00,-36.15,16.58
7077,-2.34,-0.55,-19.96,65.430,-337.891,1239.258,3.00,0.00,-36.15,16.58
7087,-5.69,0.87,-12.95,-392.578,-149.902,1644.531,2.10,0.90,-34.80,16.48
7097,-6.31,5.24,-25.02,-9.277,-371.094,768.066,2.85,0.15,-33.30,16.72
7109,1.27,3.00,-19.37,-127.441,-128.906,363.281,3.45,1.50,-36.60,16.48
7119,10.69,2.63,7.76,-63.477,-476.074,1151.855,3.15,-0.90,-34.50,16.58
7129,10.98,-2.05,1.97,90.820,-336.914,857.910,4.35,2.55,-35.55,16.77
7138,4.08,4.24,-17.78,66.895,-439.941,551.758,5.10,-2.10,-35.25,16.58
7148,-2.76,0.13,-22.44,196.289,-17.090,1159.668,4.20,1.05,-34.95,16.58
7157,4.62,4.99,-33.44,-173.340,-340.820,937.988,4.20,1.05,-34.95,16.62
7167,-0.21,4.90,-18.81,56.152,-441.406,169.922,5.55,0.45,-34.50,16.91
7179,0.17,5.99,-23.73,55.176,-411.133,707.031,3.75,0.00,-35.70,16.91
7188,-2.11,-2.37,-24.69,-331.543,156.250,1999.939,3.90,-0.90,-34.50,16.72
7198,4.11,1.89,-27.54,183.594,-546.387,844.238,3.75,1.05,-34.95,16.72
7207,-0.03,4.18,-20.73,63.965,-500.977,813.477,3.75,1.05,-34.95,16.72
7217,-1.85,-1.63,-32.26,-214.355,166.992,1328.613,4.20,1.95,-35.70,16.77
7227,-0.22,-0.03,-26.53,-153.809,-655.273,770.996,4.35,-0.90,-34.80,16.77
7237,5.29,2.46,-23.10,67.383,-211.914,756.836,4.35,-0.90,-34.80,16.82
7246,6.80,1.11,-26.61,-165.039,-436.523,1035.645,3.15,-0.45,-35.25,16.38
7258,2.51,-2.68,-26.97,-66.895,38.574,1787.598,6.15,1.05,-33.90,16.62
7268,2.90,1.12,-14.66,45.410,-434.570,850.098,4.35,-0.45,-36.75,16.58
7277,4.84,1.52,-7.64,4.395,-153.809,969.238,4.95,0.00,-34.20,16.72
7287,3.98,-1.49,-23.56,-37.598,-323.730,1653.320,4.95,0.00,-34.20,16.62
7297,-1.78,5.43,-31.69,-37.109,-768.555,771.973,6.30,-0.45,-35.25,16.82
7307,-3.81,1.40,-27.70,38.574,-194.824,1064.453,5.55,0.15,-36.75,16.72
7316,-2.34,-3.02,-19.62,118.652,-228.516,998.535,5.55,0.15,-36.75,16.58
7328,-0.08,-0.19,-25.65,-63.965,127.930,1279.297,7.05,0.90,-36.30,16.48
7338,0.46,-0.24,-27.08,192.383,-466.797,963.379,4.95,-1.50,-34.65,16.77
7348,2.04,1.65,-22.75,-231.445,-102.539,893.555,6.45,0.75,-36.15,16.62
7358,3.02,1.38,-17.98,38.574,-20.020,941.895,5.85,-0.15,-35.55,16.43
7367,-0.52,1.18,-29.76,147.949,-314.941,764.648,5.85,-0.15,-35.55,16.58
7377,1.14,0.02,-19.44,107.422,-704.590,1153.809,5.70,-1.95,-36.15,16.38
7386,-2.36,1.40,-27.27,179.687,-305.176,888.184,7.20,0.00,-34.65,16.72
7398,-3.12,6.44,-22.16,-1.465,-338.379,812.012,7.20,0.00,-34.65,16.82
7408,-4.28,1.06,-30.43,346.680,-641.113,969.238,9.00,-1.65,-34.50,16.62
7418,1.60,-1.37,-34.43,-33.691,-427.246,1362.793,6.15,1.50,-36.15,16.62
7428,4.24,-6.17,-31.73,-104.004,-135.742,1656.738,6.90,-0.30,-34.65,16.77
7438,3.27,2.16,-32.40,-69.336,-488.281,1125.488,6.45,0.00,-36.60,16.43
7448,-4.34,0.35,-34.06,40.527,-293.945,130.859,6.45,0.00,-36.60,16.72
7457,1.71,-1.98,-34.63,-659.668,-166.992,1999.939,7.35,0.15,-35.25,16.82
7469,0.15,-6.25,-35.18,-186.523,-331.543,1999.939,9.00,-1.35,-36.30,16.77
7479,2.11,-1.16,-33.44,-224.609,-781.738,1025.879,7.05,0.90,-35.25,16.62
7489,-2.25,6.28,-21.37,180.664,-654.785,609.375,7.95,-1.05,-36.15,16.77
7499,-2.30,-1.24,-40.63,-224.609,-120.117,743.652,10.05,-0.45,-34.50,16.77
7509,1.56,-1.80,-28.42,193.848,-256.348,1032.227,8.40,-1.50,-34.95,16.48
7523,0.88,0.63,-30.98,159.668,-441.895,886.719,8.70,-0.30,-33.45,16.77
7533,-2.53,-5.16,-49.06,-166.016,-685.059,1052.734,10.65,-0.30,-34.65,16.77
7545,2.37,-6.33,-43.76,-91.309,-537.598,1151.855,8.40,0.30,-36.60,16.91
7555,4.11,-1.27,-35.44,-106.934,-491.699,1571.289,11.70,-2.10,-34.50,16.91
7565,-0.84,0.57,-41.20,-11.719,-649.414,545.898,9.30,-0.15,-36.75,16.91
7575,-12.08,-1.75,-42.44,-280.762,-606.934,699.707,9.30,-0.15,-36.75,16.43
7585,-6.01,-6.92,-44.19,-76.660,-143.555,944.824,9.15,-0.30,-36.90,16.72
7595,6.37,-6.51,-40.31,-308.105,273.926,1808.594,10.50,-2.10,-36.75,16.72
7605,17.00,0.37,-44.62,55.176,-707.031,835.937,10.50,-2.10,-36.75,16.77
7616,0.21,-0.13,-47.18,-96.191,-657.227,921.875,10.65,-2.25,-36.60,16.58
7626,-13.13,-2.45,-47.94,19.043,-986.328,1515.137,10.05,-0.45,-36.00,16.77
7636,-13.41,-8.16,-43.53,-8.789,-170.410,1398.438,9.75,-1.65,-36.00,16.62
7646,-6.01,3.57,-48.07,-121.582,499.512,821.289,13.05,-1.50,-34.95,16.38
7656,6.37,-3.05,-41.79,215.332,-336.914,811.523,13.05,-1.50,-34.95,16.77
7666,12.07,-4.83,-46.55,417.480,-524.414,399.902,11.40,-1.50,-35.40,16.77
7676,7.69,-3.34,-36.98,235.840,-396.973,788.086,9.15,-3.15,-36.60,16.62
7688,-8.40,3.74,-40.53,235.352,-496.094,315.918,9.15,-3.15,-36.60,16.72
7698,-9.55,-10.26,-42.11,118.164,-396.973,1758.301,10.50,-0.15,-36.75,16.48
7708,-6.11,-3.93,-43.98,-55.664,-71.289,1411.133,12.00,-2.85,-35.55,16.82
7718,-2.80,1.17,-39.49,-15.625,-721.680,595.215,10.65,-0.75,-37.65,16.77
7728,-3.14,4.05,-40.98,-26.367,-638.672,420.410,12.60,-2.70,-36.60,16.58
7738,-0.50,-1.89,-45.46,105.469,-516.602,576.660,12.60,-2.70,-36.60,16.58
7748,1.27,-5.25,-42.09,-466.309,-216.797,1349.121,12.45,-2.55,-34.80,16.72
7760,0.60,-4.76,-38.40,-122.070,-953.125,1432.129,11.10,-2.25,-37.35,16.77
7770,3.27,3.05,-48.94,-317.383,-666.504,1174.316,11.10,-2.25,-37.35,16.62
7780,-4.70,2.82,-43.36,-41.992,-424.316,302.246,13.05,-0.30,-37.65,16.62
7790,-1.16,1.40,-44.50,62.500,-564.941,110.840,12.60,-3.45,-35.40,16.82
7800,0.03,0.31,-49.07,420.898,-199.707,1462.402,12.75,-1.65,-37.50,16.62
7810,1.29,-0.47,-44.51,-403.320,-226.562,1595.703,13.20,-4.50,-37.05,16.38
7820,11.75,10.20,-40.76,220.215,-938.477,760.742,13.20,-4.50,-37.05,16.72
7832,-2.60,4.26,-46.07,-139.648,-426.270,1112.793,13.95,-3.75,-36.75,16.38
7842,1.64,-0.13,-25.44,212.891,-352.539,808.594,14.55,-3.45,-35.70,16.72
7852,4.17,2.07,-52.85,382.324,-707.031,1111.328,13.20,-4.05,-37.50,16.77
7862,-2.08,-6.65,-46.24,16.602,-694.336,1823.730,15.45,-3.75,-36.00,16.77
7872,-4.47,-2.69,-51.00,-151.855,-347.656,511.230,13.35,-3.15,-37.65,16.72
7882,-0.37,-2.58,-48.63,323.242,-365.723,358.398,14.55,-4.65,-35.40,16.91
7892,2.98,2.33,-45.43,-354.004,-302.246,762.695,13.50,-4.50,-36.30,16.48
7904,15.26,-6.53,-40.46,51.758,-859.375,1999.939,14.10,-3.90,-36.90,16.77
7914,1.27,6.93,-36.52,-84.961,-820.801,731.445,14.85,-3.45,-35.70,16.43
7924,-0.63,5.40,-44.17,202.637,-577.148,1291.992,15.15,-3.30,-37.50,16.91
7934,8.88,3.50,-44.83,118.652,-646.973,1822.266,15.15,-4.50,-36.75,16.77
7943,-1.93,0.52,-48.15,-188.965,-232.422,417.480,15.15,-4.50,-36.75,16.48
7953,-9.75,2.80,-46.90,2.930,6.348,660.645,15.15,-4.50,-36.75,16.58
7965,-2.79,0.14,-50.31,-281.738,-869.141,887.695,15.45,-4.50,-38.25,16.72
7975,-5.17,1.01,-43.76,-94.727,-842.285,404.785,15.45,-4.50,-38.25,16.48
7985,-10.94,1.50,-40.53,141.602,-411.133,267.578,14.70,-4.95,-38.25,16.48
7995,-2.01,-4.57,-53.76,-342.773,-21.484,1007.812,16.65,-5.25,-36.75,16.62
8005,0.05,1.53,-44.47,226.562,-241.699,1156.250,15.75,-3.90,-38.40,16.77
8014,11.11,-1.55,-56.66,-259.277,-133.301,503.906,17.85,-6.90,-36.75,16.77
8024,12.63,1.84,-44.92,-127.441,-887.695,1589.355,17.85,-6.90,-36.75,16.58
8041,-1.87,9.00,-43.95,-140.625,-1082.031,782.227,18.00,-6.75,-38.10,16.58
8050,-4.36,8.21,-40.53,308.594,-892.090,165.527,15.45,-4.95,-37.80,16.48
8060,-2.69,-0.95,-42.95,-19.043,-1133.301,1371.094,15.45,-4.95,-37.80,16.72
8070,-2.23,1.21,-34.67,-13.184,-885.742,523.437,16.65,-5.25,-38.55,16.91
8080,-2.39,-1.36,-68.37,112.305,-673.340,1680.176,18.15,-6.45,-37.05,16.62
8090,0.28,2.36,-52.53,-473.145,-605.957,1499.023,17.55,-4.65,-38.85,16.91
8100,-13.47,7.57,-49.37,-123.535,-221.191,268.066,19.20,-8.25,-36.60,16.29
8112,13.96,0.07,-43.91,-131.348,-518.555,1238.770,19.20,-8.25,-36.60,16.72
8122,8.72,2.15,-34.57,-220.215,-758.301,1094.727,18.15,-7.65,-36.30,16.38
8132,2.98,0.43,-45.90,-216.797,-375.488,1277.344,17.40,-6.45,-38.25,16.72
8142,7.50,2.66,-34.41,368.164,-585.449,1026.367,19.50,-6.30,-37.65,16.91
8152,16.86,-1.69,-44.02,410.156,-885.254,1202.148,18.45,-5.85,-38.85,16.77
8162,20.23,1.14,-45.87,252.930,-1088.867,1541.016,18.60,-7.65,-37.05,16.82
8171,-10.02,1.65,-49.43,-39.551,-425.781,58.105,18.90,-5.25,-37.80,16.43
8183,2.85,2.52,-48.98,98.145,185.547,1102.051,19.50,-8.70,-37.65,16.43
8192,2.35,1.39,-52.41,-276.367,-832.520,809.082,19.50,-8.70,-37.65,16.77
8202,12.86,0.33,-39.91,-94.727,-809.082,602.539,20.10,-8.55,-36.75,16.62
8212,4.08,-2.86,-56.79,114.258,-1052.734,965.332,19.50,-5.10,-38.85,16.48
8222,7.62,-4.66,-37.95,159.180,-650.879,1086.914,20.70,-8.70,-36.60,16.62
8232,1.00,-7.92,-47.92,140.137,-816.406,792.969,19.65,-5.70,-38.55,16.43
8242,0.75,-2.67,-19.80,237.305,-1126.953,1118.164,19.65,-5.70,-38.55,16.72
8254,-8.87,-10.48,-40.17,391.113,-113.281,1276.855,20.85,-10.95,-36.30,16.62
8264,-5.83,-0.92,-32.19,283.691,-199.707,1113.770,20.85,-10.95,-36.30,16.58
8274,2.07,-3.97,-49.20,380.371,-657.227,1589.844,20.85,-10.95,-36.30,16.72
8284,-3.63,-4.02,-42.11,176.758,-1020.996,1303.223,21.00,-7.50,-38.40,16.62
8294,-8.67,0.39,-40.36,278.809,-849.121,869.141,21.00,-7.50,-38.40,16.62
8304,-2.34,0.95,-38.47,235.352,-388.672,784.180,21.60,-9.75,-36.30,16.91
8314,4.08,-0.28,-49.04,32.715,-257.812,1046.387,19.50,-8.25,-38.40,16.58
8326,3.00,-7.11,-47.76,76.172,-804.199,1536.133,21.60,-8.55,-37.80,16.58
8336,-4.97,-2.20,-41.55,310.059,-612.305,854.980,22.20,-9.90,-36.15,16.43
8346,-1.14,2.17,-45.46,-177.246,-606.934,1186.523,22.20,-9.90,-36.15,16.72
8356,1.69,-0.15,-36.36,229.004,-484.863,641.113,21.90,-10.65,-36.15,16.77
8366,3.07,-2.03,-52.97,3.906,-128.906,1335.938,19.35,-9.75,-39.30,16.82
8376,10.45,-4.47,-51.41,221.191,-446.289,1195.313,21.30,-10.50,-36.75,16.82
8386,3.67,-5.17,-41.48,380.859,-476.562,1765.625,20.10,-10.50,-37.50,16.77
8398,-0.45,-0.54,-24.76,-252.930,-245.605,893.066,20.10,-10.50,-37.50,16.72
8408,1.92,-1.36,-54.76,118.652,-182.129,898.926,20.10,-10.95,-38.25,16.91
8418,-1.73,-6.19,-37.18,115.723,-205.566,1376.953,21.30,-10.95,-37.80,16.38
8428,-4.21,0.64,-47.83,66.895,-65.918,480.957,21.30,-10.95,-37.80,16.77
8438,1.08,-0.82,-39.88,421.387,-457.520,239.258,22.20,-9.15,-37.65,16.82
8448,5.90,3.88,-51.18,281.250,-150.391,413.086,22.05,-12.15,-36.75,16.91
8460,-8.92,-0.37,-42.91,170.898,-356.445,666.992,21.90,-8.70,-39.15,16.62
8470,-0.24,3.27,-30.43,119.629,-794.434,901.855,22.35,-12.90,-37.05,16.77
8480,1.21,7.21,-37.98,5.859,-227.051,1020.996,22.35,-12.90,-37.05,16.77
8489,-3.40,0.31,-34.33,347.168,-718.262,1267.578,22.05,-12.90,-37.80,16.48
8499,-4.50,5.53,-35.21,52.246,-344.238,1177.246,21.90,-10.65,-39.60,16.82
8509,-8.81,4.82,-38.98,-188.965,-209.961,757.812,22.05,-12.45,-37.50,16.58
8519,-0.63,0.15,-33.77,101.074,-177.246,1404.297,22.20,-11.85,-39.15,16.82
8531,-7.95,2.76,-36.13,-379.395,-426.758,891.113,24.15,-12.30,-36.90,16.72
8541,-2.82,1.94,-40.93,-127.930,-354.980,1145.508,23.40,-12.30,-39.60,16.77
8556,-0.24,0.00,-40.31,-172.363,-316.406,1186.523,23.40,-13.05,-36.15,16.43
8565,-2.76,-4.95,-37.92,-475.098,421.875,1747.559,23.40,-12.30,-38.40,16.43
8575,3.28,-2.77,-42.96,-4.883,-167.480,1414.063,22.65,-13.50,-38.85,16.82
8585,9.01,-3.40,-40.66,58.105,-314.453,1720.703,23.40,-9.45,-38.85,16.62
8597,1.70,4.39,-31.35,410.645,-452.637,1033.691,23.25,-14.10,-37.80,16.62
8607,3.38,8.54,-40.18,462.402,-588.867,730.469,23.25,-14.10,-37.80,16.91
8617,-2.51,9.14,-35.39,-133.301,-830.566,933.594,24.30,-14.40,-37.50,16.91
8627,-1.50,13.05,-38.99,457.520,-341.797,797.363,23.40,-11.85,-39.90,16.58
8637,9.58,9.20,-28.34,283.691,-700.195,1521.484,23.40,-11.85,-39.90,16.29
8647,14.95,11.48,-15.24,-134.277,-733.887,748.535,22.35,-13.65,-39.75,16.91
8657,-11.05,10.53,-41.47,195.312,-690.430,552.734,24.90,-11.85,-38.40,16.77
8669,-15.98,-0.99,-26.88,-156.250,-4.395,1132.813,24.15,-13.80,-40.35,16.82
8679,-7.26,1.21,-29.73,374.023,-543.945,1066.895,25.35,-13.50,-38.40,16.77
8689,-16.19,-0.28,-44.69,-751.953,-188.477,1679.199,25.35,-13.50,-38.40,16.77
8699,4.77,-2.69,-47.06,650.879,-935.547,152.832,24.30,-14.10,-39.30,16.48
8709,2.22,-3.04,-42.34,216.309,-181.641,839.844,25.65,-15.45,-38.10,16.72
8719,-1.09,-16.53,-40.41,355.469,-334.473,1517.090,25.65,-15.45,-38.10,16.58
8731,0.18,-10.02,-29.93,-526.367,-487.305,938.477,24.15,-13.05,-39.60,16.82
8741,7.47,-3.63,-137.49,22.949,-271.973,824.219,24.60,-17.10,-39.15,16.62
8751,8.40,-7.02,-18.03,17.578,-259.277,1243.652,22.80,-14.85,-39.75,16.77
8761,3.38,5.00,-37.40,-329.102,-562.500,1441.406,24.90,-18.30,-38.85,16.72
8771,-0.79,-0.42,-45.65,-240.723,-310.547,1154.785,24.90,-18.30,-38.85,16.72
8781,-2.07,1.63,-36.83,-161.621,-673.828,1895.996,26.25,-16.05,-37.05,16.77
8791,1.34,2.23,-52.67,-52.246,-305.176,1559.570,25.80,-14.85,-40.50,16.72
8802,-9.56,4.02,-32.99,200.684,-1100.586,1099.121,26.10,-14.25,-39.90,16.58
8812,-8.53,4.41,-36.89,338.379,-332.520,531.250,24.00,-15.60,-39.75,16.77
8822,-5.96,5.10,-37.84,439.453,-446.777,818.848,24.15,-14.70,-41.10,16.62
8832,-3.11,-0.86,-41.92,-196.777,-287.109,1062.500,24.30,-16.80,-39.75,16.77
8842,0.60,-1.34,-37.93,68.359,-483.887,481.934,24.00,-16.05,-40.50,16.77
8852,1.87,-3.19,-41.95,-84.961,-458.496,1127.930,24.00,-16.05,-40.50,16.82
8862,-0.59,-4.34,-39.27,97.656,-387.695,968.750,24.60,-18.30,-39.60,16.72
8874,-3.18,-1.31,-38.24,-217.773,-327.637,904.297,25.35,-15.00,-39.60,17.01
8884,-0.82,-6.15,-44.88,-195.312,-179.687,1687.500,25.05,-19.65,-38.55,16.82
8894,1.44,-0.89,-46.27,-121.582,-117.188,717.773,24.90,-15.45,-40.65,16.43
8904,0.64,0.48,-29.82,296.875,-713.379,1104.492,24.90,-15.45,-40.65,16.91
8913,2.89,-2.14,-24.25,101.563,-531.738,738.770,22.80,-19.20,-40.80,16.82
8923,-2.89,-3.00,-43.13,159.180,-300.293,1148.438,24.75,-16.80,-39.30,16.82
8933,2.27,-1.02,-36.28,290.039,-312.988,897.949,24.75,-16.80,-39.30,16.77
8945,8.53,-3.04,-42.43,61.523,-493.652,416.992,25.50,-17.25,-41.55,16.77
8955,6.51,3.67,-41.56,34.180,-730.469,320.312,25.50,-18.90,-39.75,16.77
8964,6.39,0.51,-30.21,32.715,-431.152,729.980,24.30,-17.70,-40.80,16.72
8974,11.04,4.66,-39.53,-186.035,-622.070,854.492,25.05,-18.90,-40.05,16.77
8984,-3.92,5.52,-46.11,170.410,-521.484,636.230,25.05,-18.90,-40.05,16.82
8994,-0.14,3.82,-55.63,48.828,-297.852,1279.785,25.50,-18.00,-39.75,16.91
9006,-1.52,3.90,-35.66,419.434,-577.148,536.133,25.05,-20.85,-40.50,16.58
9016,-1.89,1.27,-36.50,-398.437,-437.988,572.266,26.25,-20.10,-39.00,16.77
9026,-5.69,-0.60,-56.81,-135.254,-467.285,654.785,24.00,-19.65,-40.80,17.01
9036,1.52,2.02,-35.76,70.313,-568.848,770.996,25.80,-19.20,-39.30,16.19
9046,3.41,5.40,-40.93,156.250,-574.707,1113.770,24.60,-21.00,-41.10,16.77
9055,-0.49,1.46,-37.01,116.211,-306.641,864.258,24.60,-21.00,-41.10,16.82
9070,10.50,-2.41,-20.53,345.703,-444.824,1523.438,25.50,-20.40,-40.50,16.82
9079,-1.25,-0.69,-33.79,-112.305,-316.406,845.703,24.30,-20.10,-42.00,16.77
9091,0.15,-1.44,-40.14,-131.348,-204.102,1348.145,26.70,-20.40,-39.30,16.43
9101,-4.84,-0.58,-36.42,18.555,-191.895,1337.402,24.60,-21.90,-39.90,16.62
9111,-2.59,0.96,-33.69,-199.707,-230.469,903.320,25.65,-19.80,-42.15,16.77
9121,-4.50,-0.04,-40.56,-120.117,-312.012,867.676,24.75,-22.50,-40.80,16.96
9131,-9.18,5.69,-38.50,-218.262,-386.230,1573.242,25.35,-20.70,-41.40,16.77
9141,-1.66,6.70,-41.76,328.613,-250.488,883.301,25.35,-20.70,-41.40,16.77
9151,-6.58,9.99,-38.53,-170.410,13.184,1258.789,24.15,-22.20,-41.10,16.58
9163,6.50,6.29,-36.53,252.441,-770.020,1030.762,25.35,-20.25,-41.40,16.58
9173,-8.31,14.63,-40.32,-285.156,-254.883,815.430,26.25,-23.25,-40.50,16.38
9183,-3.62,0.33,-39.96,-110.352,-175.293,907.715,25.50,-22.50,-42.00,16.77
9193,-4.91,3.34,-57.15,361.816,-247.070,844.238,25.50,-22.50,-42.00,16.91
9203,-0.06,0.37,-27.22,277.344,-214.844,1189.453,24.90,-23.40,-40.65,16.82
9213,1.56,-7.52,-27.44,-2.930,-409.180,1874.512,25.35,-20.25,-40.65,16.62
9223,0.43,3.73,-36.02,126.953,-387.207,662.109,25.35,-20.25,-40.65,16.91
9235,-9.36,-1.08,-34.96,-108.398,1.953,1352.051,25.50,-22.50,-42.00,16.72
9245,7.09,-7.88,-38.82,779.297,-638.184,915.039,24.30,-21.60,-39.75,16.72
9255,7.34,-0.31,-22.07,-74.219,-565.430,688.965,25.80,-24.45,-40.50,16.48
9265,-2.95,-4.35,-37.70,-658.691,-97.168,1818.848,25.05,-21.60,-40.50,17.15
9275,2.60,-4.77,-35.21,275.391,-746.582,554.199,25.05,-21.60,-40.50,16.77
9285,-4.03,4.68,-40.63,-72.754,-815.430,-45.898,24.30,-23.70,-41.55,16.72
9297,3.26,2.54,-32.23,192.871,-593.262,154.297,25.35,-23.85,-40.35,16.72
9307,-2.52,2.48,-34.06,-254.395,-799.805,653.809,23.70,-22.20,-41.85,16.82
9317,-12.04,-7.03,-39.94,-258.301,-311.035,1531.738,24.90,-23.85,-39.15,16.62
9327,-6.13,2.34,-29.70,442.871,-442.383,1016.113,23.70,-25.50,-41.10,16.77
9337,-1.87,1.65,-44.63,-25.391,-593.750,1005.859,24.90,-23.10,-40.65,16.62
9347,-1.95,-2.12,-44.07,69.336,-637.695,1487.793,24.90,-23.10,-40.65,16.77
9357,-3.69,-1.53,-41.92,227.539,-592.285,710.937,24.60,-25.50,-41.85,16.96
9369,-3.58,-8.89,-41.02,-97.168,-621.582,166.016,24.00,-23.25,-41.25,16.77
9379,4.21,-2.99,-41.69,-433.105,-586.426,940.430,24.00,-23.25,-41.25,16.82
9389,2.08,-5.73,-38.86,675.293,-692.871,189.453,22.95,-25.05,-42.15,16.48
9399,0.91,-8.50,-39.63,-27.344,-360.840,1132.813,25.35,-24.60,-41.85,16.91
9409,-3.37,-14.60,-19.47,198.730,-626.953,1089.355,24.90,-26.25,-40.65,16.58
9419,-2.92,-0.78,-36.27,242.676,-493.652,251.465,24.00,-25.95,-42.45,16.58
9429,-3.02,-0.90,-27.40,-364.746,-161.621,1093.750,24.00,-25.95,-42.45,16.82
9442,-5.64,-3.27,-30.06,-24.902,-678.711,-131.348,23.40,-27.45,-40.65,16.82
9451,-10.52,-1.86,-39.63,-489.258,86.426,979.004,23.55,-24.45,-40.80,16.72
9461,4.21,1.90,-27.94,224.121,-589.844,1493.652,24.30,-27.15,-40.05,16.77
9471,6.92,6.68,-34.05,-293.945,-659.180,1102.051,22.20,-26.25,-41.85,16.77
9481,1.23,2.28,-37.10,-204.102,-178.711,1771.484,24.90,-24.60,-40.35,16.77
9491,2.83,-7.66,-39.50,140.625,-725.586,845.215,22.95,-27.00,-39.90,16.43
9501,5.19,5.40,-52.00,127.441,-434.082,1101.563,22.95,-26.25,-42.60,16.77
9513,-0.38,0.22,-35.88,-75.195,-462.402,354.980,22.95,-26.25,-42.60,16.58
9523,-17.67,5.21,-30.76,-479.492,-219.727,1210.938,24.75,-27.60,-41.55,16.72
9533,-7.48,-6.69,-29.12,139.160,-148.926,1602.051,24.90,-25.80,-41.85,16.72
9543,-2.61,3.11,-35.56,233.398,-469.727,1004.883,24.90,-26.55,-41.10,16.77
9553,-6.94,-0.87,-37.22,-375.488,-1.953,1687.500,22.95,-29.40,-41.85,16.91
9563,2.97,0.99,-29.80,321.777,-534.668,1028.809,22.95,-29.40,-41.85,16.43
9575,-1.91,-1.47,-42.06,236.816,-278.809,1294.922,24.30,-28.05,-40.80,16.91
9590,-3.66,2.37,-37.87,107.910,-636.719,193.359,22.65,-27.75,-42.15,16.82
9599,-12.11,0.68,-36.04,-292.969,-224.121,1134.277,23.40,-28.95,-41.85,16.96
9609,-12.21,-2.78,-51.95,-67.383,-285.645,1317.871,22.35,-28.05,-42.75,16.72
9619,-1.37,1.27,-35.43,0.977,-548.828,813.477,22.95,-27.75,-41.40,16.77
9629,-5.08,-5.62,-33.90,-324.219,-622.559,1999.939,22.95,-28.65,-41.85,16.62
9639,-8.45,-6.29,-46.23,108.887,-629.395,866.211,22.95,-28.65,-41.85,16.77
9651,-2.49,-6.18,-42.60,91.797,-68.848,1208.496,24.00,-28.35,-40.80,16.96
9661,10.66,-0.27,-28.44,276.855,-872.559,1002.930,22.65,-30.15,-41.40,16.77
9671,6.39,3.07,-35.02,-335.937,-480.469,556.152,22.65,-30.15,-41.40,16.38
9681,6.79,3.76,-37.83,17.090,-894.043,266.113,23.70,-28.65,-41.85,16.62
9690,-2.19,3.92,-48.90,-229.980,-672.852,193.848,23.55,-29.55,-42.45,16.77
9700,-11.64,1.90,-36.95,-361.328,-1084.473,910.645,22.05,-28.05,-43.20,16.77
9712,-1.98,4.91,-36.94,-324.219,-580.566,897.461,23.25,-28.80,-42.45,16.91
9722,-8.05,1.67,-31.89,72.754,-386.719,252.441,23.25,-28.80,-42.45,16.77
9732,0.03,-3.28,-31.06,182.129,-330.078,1736.816,22.05,-28.80,-42.45,16.58
9742,-2.92,-1.04,-51.20,-250.977,-525.879,640.625,22.80,-28.80,-42.45,16.38
9752,1.85,3.96,-41.94,45.410,-460.937,692.871,22.35,-28.80,-43.95,16.82
9762,-3.15,-4.37,-42.37,-64.453,-589.844,1457.031,22.35,-28.35,-43.50,16.77
9772,-6.05,0.72,-40.53,-5.371,-567.871,625.000,22.35,-28.35,-43.50,16.77
9784,-3.77,-1.76,-35.28,-49.805,-616.699,1014.648,21.90,-28.65,-43.35,16.91
9794,1.61,4.52,-34.40,-29.785,-472.656,924.805,22.20,-28.65,-43.35,16.72
9804,5.45,1.81,-38.83,-242.187,-389.648,597.168,22.20,-28.65,-43.35,16.77
9814,6.40,4.24,-41.40,-301.758,-414.551,787.598,22.05,-30.45,-43.95,16.58
9824,4.56,-0.40,-34.54,-262.695,-771.484,1133.789,22.95,-29.40,-42.60,16.96
9834,-0.72,3.18,-42.17,-355.957,-328.613,1114.258,22.05,-30.75,-41.55,16.91
9844,8.89,-2.49,-34.07,-156.250,-163.086,1592.285,22.20,-30.15,-43.35,16.82
9856,5.29,-4.47,-42.55,-41.992,-603.516,1442.871,22.20,-30.15,-43.35,16.96
9866,8.78,-0.07,-37.41,-92.285,-959.961,733.887,22.35,-31.20,-42.45,16.96
9876,-6.96,3.48,-36.29,-276.855,-490.234,1103.516,21.30,-31.65,-42.75,16.77
9886,-13.89,-2.79,-56.56,-100.098,-299.316,476.074,21.30,-31.65,-42.75,16.77
9896,-8.27,5.95,-44.17,-244.629,25.391,996.094,21.30,-30.45,-41.55,16.38
9906,-3.47,3.51,-14.11,-218.262,-213.867,1198.242,21.60,-31.95,-41.55,16.77
9916,-6.60,-0.70,-31.97,61.035,-13.672,1272.949,21.30,-31.65,-43.50,16.77
9928,9.42,5.59,-31.75,-191.895,-728.027,917.480,21.00,-31.35,-42.90,16.72
9938,10.37,-2.16,-30.43,-182.129,-441.406,1581.055,19.50,-31.35,-42.15,16.58
9948,6.61,0.66,-43.69,-115.234,-250.000,1143.555,20.55,-30.45,-43.20,16.82
9958,-0.16,-3.43,-43.18,-148.437,-663.574,1117.676,19.65,-32.40,-42.75,16.77
9968,-1.98,-2.64,-30.51,139.160,-648.926,639.648,19.95,-31.35,-42.15,16.48
9978,-6.52,-4.87,-33.92,-83.496,-195.801,458.008,19.95,-31.35,-42.15,16.38
9990,-4.56,-3.05,-36.68,-263.184,-243.164,1041.992,20.10,-30.75,-42.45,16.82
10000,3.44,-2.42,-33.34,-58.105,-294.434,1017.090,19.95,-32.25,-42.90,16.48
10010,6.27,-1.58,-35.70,-123.535,-579.590,1328.125,19.95,-32.25,-42.90,16.62
10020,2.37,-2.68,-36.57,-107.422,-576.172,1318.359,19.95,-32.25,-42.15,16.91
10030,9.57,1.60,-33.70,-42.969,-363.281,773.437,20.55,-32.85,-42.00,16.82
10040,3.16,3.51,-33.39,-527.344,-378.906,1226.563,18.60,-32.85,-42.45,16.77
10050,0.82,2.91,-36.92,133.301,-348.145,786.133,19.20,-33.00,-42.90,16.77
10062,-6.65,1.24,-40.93,-10.742,-437.012,744.141,19.20,-33.00,-42.90,16.91
10072,1.22,-2.04,-30.72,257.812,-413.086,778.809,19.50,-33.75,-41.85,16.58
10082,-6.26,-3.08,-37.46,-201.172,-542.969,1767.090,19.20,-33.45,-41.85,16.58
10092,-8.22,-2.89,-33.63,-155.762,-340.820,676.270,19.20,-33.45,-41.85,16.96
10107,3.76,-3.32,-32.92,56.641,-728.027,540.527,19.20,-34.20,-42.15,16.72
10116,6.15,-4.63,-35.11,-147.461,-332.031,1404.785,18.90,-33.15,-43.20,16.77
10128,3.05,-3.24,-39.20,-311.523,-395.508,989.258,18.90,-34.35,-43.20,16.96
10138,4.46,-5.88,-23.44,70.801,-411.133,1268.066,18.90,-34.35,-43.20,16.91
10148,6.80,-6.44,-33.35,-166.504,-351.562,1312.012,18.60,-34.05,-41.25,16.48
10158,0.18,-1.25,-28.52,-381.836,-418.945,634.766,19.65,-33.15,-40.50,17.01
10168,5.56,-3.66,-36.37,-133.301,-612.793,1075.195,19.65,-33.15,-40.50,16.82
10178,-0.25,-5.15,-24.07,-171.387,-578.613,1058.594,19.20,-33.75,-41.10,16.77
10188,-4.24,1.73,-36.18,-145.020,-265.137,814.453,17.85,-32.85,-40.80,16.77
10200,-0.74,2.16,-32.16,80.566,-478.027,1319.824,17.55,-34.95,-40.35,16.77
10210,3.18,-2.56,-27.34,65.430,-334.961,949.219,17.10,-33.15,-42.45,16.58
10220,1.66,-5.74,-30.20,-103.516,-306.641,859.863,17.10,-33.15,-42.45,16.62
10230,3.42,-2.44,-24.34,-96.680,-589.355,1144.531,18.00,-34.20,-41.85,16.38
10240,-8.23,-0.34,-44.39,-33.203,-675.781,858.887,16.65,-33.15,-41.25,16.58
10250,-9.93,4.70,-22.27,-183.594,-274.902,230.957,16.05,-34.95,-40.35,16.62
10262,3.62,-1.92,-32.62,-155.762,-526.367,754.395,18.45,-34.20,-41.40,16.82
10272,-1.13,6.11,-25.27,-186.035,-529.297,917.480,18.00,-34.20,-41.10,16.77
10282,-0.33,-2.77,-30.90,-97.656,-346.191,950.195,17.55,-34.20,-41.85,16.82
10292,6.37,-3.04,-25.59,-53.711,-452.148,1649.902,16.80,-33.75,-39.90,16.91
10302,1.57,-2.60,-27.50,-230.957,-448.730,1600.098,16.80,-33.75,-39.90,16.77
10312,-0.23,-4.21,-42.43,20.020,-260.254,1079.102,18.00,-33.45,-41.40,16.48
10322,5.15,-4.82,-31.34,209.473,-213.379,1101.074,16.20,-34.35,-40.05,16.77
10334,-0.18,-5.77,-33.85,-95.703,-194.824,1168.457,17.10,-34.80,-40.80,16.58
10344,1.14,-4.06,-41.51,-256.348,-206.055,715.332,16.50,-34.20,-40.65,17.01
10354,2.87,-7.33,-32.12,175.293,-556.152,1470.703,16.50,-34.20,-40.65,16.77
10364,-1.03,0.81,-28.34,-74.707,-201.660,1017.090,16.50,-34.95,-41.40,16.72
10374,3.05,-5.70,-28.94,-117.188,-316.406,1490.723,16.20,-34.80,-40.50,16.77
10384,-0.71,-2.02,-31.55,-136.230,-295.898,1309.570,16.20,-34.80,-40.50,16.72
10394,1.76,-0.05,-32.10,-0.977,-332.031,366.211,16.05,-34.20,-40.65,16.48
10407,12.25,6.29,-61.42,-384.766,-392.090,746.582,15.30,-34.95,-39.90,16.72
10417,2.79,3.83,-23.41,-336.914,-338.379,691.406,14.40,-35.55,-41.55,16.72
10427,-3.96,-1.75,-52.82,64.453,-629.395,403.320,16.65,-34.80,-40.05,16.38
10437,-11.17,1.75,-31.69,-125.488,-441.406,781.738,16.65,-34.80,-40.05,16.96
10447,-10.77,-2.50,-28.76,127.441,-161.133,1399.414,16.20,-35.25,-40.80,16.72
10457,-0.19,0.31,-32.64,131.836,-239.746,905.273,16.20,-34.80,-39.75,16.82
10469,10.33,-4.21,-24.82,-188.965,-527.832,1384.277,17.25,-34.95,-40.65,16.77
10479,5.76,-5.97,-36.92,33.691,-469.727,1241.211,15.75,-34.65,-40.65,16.91
10489,1.94,0.82,-29.00,20.996,-571.289,1023.437,15.30,-34.95,-39.15,16.77
10498,-9.26,2.70,-33.13,-160.156,-582.520,560.059,15.30,-34.95,-39.15,16.62
10508,-2.47,4.52,-25.57,66.895,-269.043,456.543,13.95,-34.35,-39.75,16.91
10518,-1.97,2.15,-36.89,40.527,-174.316,1319.824,13.95,-34.35,-39.75,16.96
10528,3.36,-0.24,-26.89,109.863,-416.016,1740.723,14.85,-37.20,-41.25,16.77
10540,5.28,3.89,-35.55,-49.316,-402.344,1125.977,14.10,-34.65,-42.15,16.91
10550,4.34,2.06,-37.98,-69.824,-676.758,1183.105,13.95,-36.45,-39.30,16.91
10560,2.20,4.24,-34.55,-257.812,-104.980,830.566,13.95,-35.25,-40.80,16.77
10570,7.17,5.79,-29.16,-239.746,-247.070,1068.848,15.15,-35.25,-40.05,16.77
10580,7.15,-0.02,-27.73,-12.207,-37.598,1016.113,15.15,-36.45,-40.50,16.43
10590,2.87,-0.71,-32.69,-25.879,-561.035,1350.098,15.15,-36.45,-40.50,16.77
10600,0.56,-1.31,-34.20,222.168,-384.766,693.848,15.30,-37.05,-39.15,16.77
10612,-3.58,2.86,-34.14,-9.766,-524.414,1105.957,14.10,-36.60,-39.60,16.77
10634,4.44,-2.66,-25.53,81.543,-226.562,591.309,12.60,-36.15,-40.35,16.77
10643,7.02,-0.85,-17.86,-216.797,-571.289,1720.703,12.60,-36.15,-40.35,16.48
10653,-4.08,-2.40,-45.34,-71.289,-422.363,886.719,14.10,-36.15,-38.40,17.01
10663,4.63,-2.04,-29.60,-187.988,-518.066,803.223,14.40,-36.00,-39.30,16.91
10673,3.69,2.76,-30.36,21.973,-420.410,231.445,14.40,-36.00,-39.30,16.58
10682,8.22,4.42,-31.47,-221.680,-395.996,694.824,13.05,-35.40,-38.85,16.91
10694,0.99,0.32,-34.52,-184.082,-417.480,977.539,13.50,-35.25,-39.00,16.91
10704,4.63,0.86,-30.28,-191.406,-419.922,1270.020,13.80,-37.35,-38.85,16.72
10714,1.47,-1.84,-29.35,130.859,-480.469,1408.203,13.95,-36.45,-39.30,16.72
10724,5.48,-0.92,-23.95,212.891,-422.363,637.695,13.95,-36.45,-39.30,16.77
10734,4.14,-0.50,-40.17,-3.906,-356.445,1156.738,13.50,-36.75,-38.55,16.72
10744,7.32,-5.27,-26.56,89.844,-498.047,975.098,13.35,-35.40,-39.60,16.72
10756,3.17,-0.88,-35.84,-22.461,-318.359,1460.449,13.35,-35.40,-39.60,16.58
10766,0.53,-5.51,-32.57,-2.930,-77.148,1084.473,13.05,-35.40,-39.90,16.77
10776,2.89,-6.84,-30.78,83.984,-91.309,974.609,13.50,-36.45,-38.55,16.91
10786,11.05,-6.31,-31.46,91.797,-449.707,1748.047,12.75,-37.20,-39.75,16.82
10796,12.25,-2.05,-28.66,-219.727,-717.285,1225.098,12.30,-35.40,-41.10,16.96
10806,1.18,1.37,-26.55,129.395,-407.715,721.191,12.30,-35.40,-41.10,16.82
10815,-1.88,-3.78,-60.24,-181.641,-579.590,546.875,11.25,-35.55,-39.75,16.48
10827,-6.36,0.34,-39.27,-67.871,-453.125,832.520,13.05,-36.60,-38.85,16.48
10837,1.98,-0.82,-25.70,-225.586,350.586,1291.504,12.00,-37.65,-38.55,16.77
10847,5.69,-0.98,-33.88,-162.598,-217.773,665.527,12.30,-36.15,-38.40,16.77
10857,4.86,3.06,-10.80,224.121,-310.547,616.211,12.30,-37.35,-36.90,16.96
10866,6.79,-0.31,-23.67,110.840,-387.207,789.062,11.70,-36.45,-39.00,16.72
10876,1.66,2.10,-28.78,117.188,-534.180,958.984,11.70,-36.45,-38.25,16.58
10885,7.64,-4.82,-36.12,95.215,-604.004,1034.180,11.70,-36.45,-38.25,16.91
10897,4.55,7.33,-35.60,106.445,-106.445,1160.645,11.85,-37.05,-38.85,16.62
10907,-3.97,2.11,-35.14,-159.668,67.383,1959.473,12.30,-37.05,-36.90,16.96
10917,-2.41,1.37,-28.78,-250.977,-280.273,1709.961,11.10,-36.15,-39.15,16.77
10927,-3.29,9.71,-40.04,-150.879,-273.437,760.742,12.30,-35.85,-37.65,16.77
10937,3.84,8.03,-28.56,393.555,-168.457,531.738,12.30,-35.85,-37.65,16.77
10947,4.73,1.72,-30.02,17.578,-312.988,1040.527,11.40,-36.60,-38.85,16.62
10958,5.83,5.65,-33.15,-63.965,-554.199,140.137,11.70,-37.65,-37.50,16.58
10968,3.48,-1.34,-31.20,-76.172,-257.324,940.430,11.70,-37.65,-37.50,16.91
10978,11.32,2.15,-39.39,-206.055,-681.152,1999.939,12.75,-36.45,-37.80,16.91
10988,-0.77,4.96,-32.69,-191.406,-641.602,1250.000,10.65,-37.35,-38.85,16.77
10998,-0.38,0.96,-31.75,-151.855,-125.488,1313.477,12.00,-36.75,-38.55,16.96
11008,0.64,-0.15,-35.95,174.316,-518.555,750.488,11.70,-37.20,-37.05,16.77
11018,2.96,-2.15,-33.54,259.277,-390.625,848.145,11.70,-37.20,-37.05,16.58
11030,0.43,1.53,-47.91,-22.949,-467.773,102.539,10.65,-37.80,-37.65,16.77
11040,5.21,5.27,-45.08,-24.902,-445.312,1097.656,10.65,-37.80,-37.65,16.58
11050,1.65,1.83,-35.73,-19.531,-217.285,1334.961,9.75,-37.65,-37.80,16.91
11060,-4.11,3.11,-32.64,-187.500,-287.598,1217.773,10.05,-37.65,-37.80,16.77
11070,-5.67,-1.98,-40.15,69.336,-640.137,623.535,11.70,-36.75,-37.05,16.91
11080,-5.05,1.57,-44.73,-1.953,-171.875,1088.867,9.90,-38.55,-37.65,16.77
11090,0.11,-0.92,-29.68,167.969,-474.121,1777.344,9.90,-38.55,-37.65,16.77
11102,-2.54,-1.47,-32.74,122.559,-260.254,1054.199,11.70,-38.70,-37.50,16.91
11112,-5.65,-1.72,-42.64,-432.617,-306.152,1511.230,10.50,-37.65,-38.55,16.77
11122,-6.43,-1.64,-37.29,-227.051,-433.594,1221.191,11.25,-36.75,-38.25,16.48
11132,2.42,2.90,-56.89,224.121,-491.699,463.867,11.70,-38.40,-37.50,16.82
11148,17.56,1.33,-26.98,-5.859,-520.996,1604.004,10.05,-37.20,-37.05,16.72
11157,6.51,-2.51,-46.15,-189.941,-327.148,1625.977,10.95,-39.15,-37.80,16.72
11169,3.04,1.22,-37.63,157.715,-743.652,1175.781,10.65,-38.25,-38.10,16.91
11179,-2.06,2.92,-28.92,3.906,-362.793,1067.871,10.65,-38.25,-38.10,16.91
11189,-0.85,-5.08,-38.49,-137.207,-312.012,389.648,10.35,-39.30,-38.10,16.82
11199,2.06,-2.30,-47.16,101.074,-711.426,735.352,9.15,-38.25,-38.40,16.62
11209,6.76,1.09,-31.75,-180.176,-439.453,1373.535,10.65,-39.30,-37.35,16.82
11219,2.60,-2.84,-43.22,-365.234,-186.523,1520.508,8.70,-38.55,-38.10,16.77
11229,-1.18,-3.44,-53.56,18.066,-573.242,638.672,8.70,-38.55,-38.10,16.91
11241,-5.02,-5.82,-42.27,-391.113,-437.012,1521.973,8.25,-37.65,-38.55,16.96
11251,-1.20,-5.10,-40.89,126.465,-767.090,830.078,8.25,-37.65,-38.55,16.62
11261,-3.47,-2.92,-12.47,-230.469,-208.496,615.723,8.40,-38.25,-37.35,16.77
11271,-4.42,2.00,-46.73,-313.477,-414.551,367.187,9.30,-37.65,-37.80,16.96
11281,-8.40,-3.74,-41.76,-98.145,-210.937,631.348,8.55,-40.35,-37.50,16.48
11291,2.73,-5.79,-45.40,158.203,-459.961,422.363,7.95,-38.25,-36.15,16.96
11301,3.76,0.87,-20.60,-70.801,-378.418,849.121,7.95,-38.25,-36.15,16.77
11313,-2.64,3.60,-45.38,-29.785,-474.609,753.418,7.80,-38.70,-37.80,16.72
11323,-2.21,9.97,-40.18,-127.441,-987.305,1999.939,9.60,-37.35,-36.60,16.91
11333,-12.80,6.72,-41.70,-440.430,-887.695,1132.324,9.60,-37.35,-36.60,16.96
11343,-6.51,5.28,-47.42,-167.480,-293.945,935.547,7.35,-36.75,-37.80,16.82
11353,-4.05,0.07,-42.82,-96.191,-103.027,1999.939,9.30,-38.70,-36.30,16.82
11363,1.85,-5.83,-35.50,88.379,-441.895,1589.355,7.95,-38.55,-37.65,16.72
11375,16.35,-1.60,-42.19,47.852,-943.359,818.848,7.35,-37.20,-36.00,16.82
11385,3.44,1.21,-41.16,-178.223,-654.785,1203.125,7.35,-37.20,-36.00,16.72
11395,3.69,0.73,-39.47,-310.547,-672.852,1922.363,6.15,-38.55,-37.65,16.77
11405,6.21,-0.27,-49.78,358.887,-895.996,183.594,7.05,-38.40,-35.25,16.91
11415,1.40,2.70,-43.58,149.902,-571.289,1588.867,6.90,-40.50,-37.35,16.91
11425,-0.10,-0.97,-45.60,-202.637,-666.016,1102.539,8.70,-39.30,-36.60,16.91
11435,-9.82,0.14,-50.99,-369.629,-569.336,1106.934,6.90,-40.50,-35.40,16.82
11447,-1.26,0.13,-28.25,-416.504,-114.746,1152.344,7.20,-39.00,-36.60,16.82
11457,-10.32,1.12,-48.07,16.602,-167.480,357.422,7.05,-38.70,-35.25,16.82
11467,0.97,4.10,-44.60,257.812,-574.219,1370.117,7.05,-38.70,-35.25,16.62
11477,-0.34,-3.07,-53.15,-174.805,-432.617,1057.129,6.15,-39.00,-38.10,16.96
11487,-12.57,-5.73,-44.63,156.250,-265.137,-38.086,6.30,-40.35,-35.25,16.96
11497,4.17,-6.49,-43.40,-13.184,-337.402,1047.852,5.55,-40.35,-36.30,16.72
11507,2.64,-5.93,-45.38,-133.301,-409.668,1272.949,5.85,-39.60,-35.25,16.72
11519,3.18,-1.69,-9.12,273.926,-677.246,509.277,5.85,-39.60,-35.25,16.72
11529,-12.35,4.43,-67.74,-468.750,-404.785,1317.383,3.90,-38.70,-36.30,16.91
11539,-9.02,-2.58,-41.93,-140.137,-983.398,466.797,6.30,-39.60,-34.80,16.91
11549,-14.50,3.97,-49.89,-225.586,-291.504,1005.859,6.30,-39.60,-34.80,16.43
11559,-4.53,0.00,-43.63,73.242,24.902,1121.582,4.80,-40.35,-36.30,16.91
11569,15.34,6.89,-36.80,118.164,-160.645,1462.402,3.90,-39.90,-36.30,16.77
11578,23.87,2.78,-40.86,382.324,-532.715,964.844,4.95,-40.95,-35.40,16.96
11589,2.73,-0.94,-34.37,41.016,-45.410,1316.895,4.35,-41.10,-35.25,16.77
11599,12.03,-1.10,-39.91,152.344,-699.219,-46.387,4.35,-41.10,-35.25,16.91
11609,13.24,0.24,-35.75,109.863,-941.895,861.816,4.50,-40.95,-36.15,16.72
11619,3.82,-2.05,-45.71,-108.887,-1212.891,1999.939,3.90,-40.80,-34.80,16.77
11629,-3.43,0.49,-48.03,95.703,-750.977,647.949,3.90,-40.80,-34.80,16.96
11639,3.18,-0.34,-46.19,458.008,-727.051,677.734,3.45,-40.50,-34.65,17.01
11651,-4.22,-6.42,-38.81,193.848,-288.086,1086.914,3.90,-42.30,-36.75,16.91
11666,7.06,-1.44,-50.15,10.742,-461.914,710.937,3.60,-41.55,-35.55,16.48
11675,-2.56,-12.63,-51.12,20.020,-571.777,1382.324,3.60,-41.55,-35.55,16.62
11685,-14.24,-4.24,-49.39,12.207,-755.371,575.684,1.80,-40.95,-35.40,16.96
11695,-11.27,2.25,-56.60,-70.313,-296.387,949.707,3.00,-40.20,-34.95,16.96
11705,-22.47,-9.41,-33.33,-92.773,-274.414,1999.939,3.15,-41.10,-35.25,16.82
11715,-11.85,-5.73,-50.34,317.383,-508.301,1024.414,1.50,-39.75,-35.70,16.82
11725,-3.91,2.14,-58.80,-334.473,-138.672,1178.711,1.65,-41.10,-34.50,16.91
11737,-0.84,3.40,-58.97,-680.176,-977.539,883.789,0.15,-42.75,-35.55,16.77
11747,3.66,3.98,-27.81,-318.359,-1081.543,1999.939,2.10,-40.80,-34.50,16.58
11757,2.04,-1.53,-44.53,300.293,-586.426,907.715,2.10,-40.80,-34.50,16.62
11767,8.50,1.40,-58.06,312.012,-793.457,1380.859,0.30,-40.95,-36.60,16.82
11777,-3.85,-0.81,-25.69,-368.652,-312.988,1054.688,0.30,-40.20,-34.95,16.62
11787,10.42,2.68,-38.98,541.992,-915.527,394.531,0.75,-42.90,-34.20,16.62
11796,-6.38,4.47,-33.59,230.469,-541.992,-297.363,-1.05,-41.40,-36.60,16.77
11809,-7.09,-9.02,-59.89,161.621,-649.902,-173.340,-1.05,-41.40,-36.60,16.91
11818,1.15,-0.15,-40.17,122.070,-949.707,1560.059,0.15,-42.75,-36.30,16.62
11828,-8.83,-3.58,-40.34,-261.719,-394.043,1517.578,-1.05,-40.95,-36.60,16.91
11838,-1.15,-4.80,-52.74,64.453,-828.125,102.539,-1.05,-40.95,-36.60,16.96
11848,7.69,8.37,-56.05,-244.141,-295.410,1150.391,-0.15,-41.55,-36.30,16.48
11858,3.76,-7.80,-45.68,32.715,-619.141,1999.939,-1.20,-39.90,-35.25,16.96
11868,-3.84,-3.35,-50.53,522.461,-516.113,131.836,-1.20,-42.75,-34.80,16.91
11880,9.30,-7.05,-46.35,171.387,-723.633,902.832,-1.05,-42.15,-36.60,16.91
11890,13.71,6.72,-56.90,-248.047,-988.770,1209.961,-1.05,-42.15,-36.60,16.91
11900,9.54,2.95,-57.54,-94.727,-1041.504,1999.939,-3.45,-41.70,-34.95,16.91
11910,-14.70,1.19,-44.13,312.012,-1301.270,360.352,-1.20,-39.90,-35.55,16.62
11920,-18.31,7.22,-38.98,-363.281,-728.027,561.035,-1.20,-39.90,-35.55,16.82
11930,-8.77,-2.10,-41.79,-112.793,-1058.594,1980.957,-3.45,-41.70,-34.20,16.96
11942,-6.23,-2.81,-53.45,-548.828,614.258,1548.828,-1.65,-42.30,-34.50,16.82
11952,16.40,-0.51,-58.79,-133.301,-794.922,475.586,-2.10,-39.90,-36.30,16.91
11962,11.05,13.24,-69.88,-414.551,-794.922,1095.215,-2.10,-39.90,-36.30,16.91
11972,-5.17,-4.08,-23.40,-341.309,-586.426,1477.051,-2.40,-42.00,-35.55,16.77
11982,6.15,6.34,-51.25,342.773,-706.055,306.152,-2.55,-41.70,-35.40,16.48
11992,4.12,11.95,-17.48,-410.645,-568.848,924.316,-3.15,-41.10,-33.75,16.96
12002,-2.54,7.33,-35.25,-244.141,-246.094,862.793,-3.15,-42.00,-35.25,16.91
12014,-7.00,-2.02,-64.28,-456.055,0.977,1475.586,-3.45,-40.95,-34.95,16.91
12024,6.51,-7.11,-52.44,-10.742,-799.316,1001.953,-4.35,-42.00,-34.05,16.82
12034,1.54,1.11,-16.84,372.070,-623.047,627.441,-5.25,-40.20,-34.95,16.82
12044,-11.03,-1.52,-58.73,-568.848,-16.113,1944.336,-5.25,-40.20,-34.95,16.82
12054,-2.17,1.21,-47.97,223.145,-546.875,572.266,-4.50,-41.70,-34.65,16.82
12064,1.16,3.24,-53.56,271.973,-678.223,1436.523,-5.85,-39.15,-36.30,16.77
12076,0.36,-0.92,-49.66,-151.367,-804.199,833.008,-6.30,-40.35,-34.05,16.91
12086,-4.21,2.91,-46.00,-631.836,104.004,1578.125,-7.65,-40.20,-35.40,16.48
12096,6.41,-0.24,-52.69,278.809,-446.777,119.141,-7.65,-40.20,-35.40,16.77
12106,14.63,6.01,-39.56,-170.410,-542.969,997.070,-5.85,-40.35,-33.75,16.72
12116,6.65,9.80,-55.19,-692.871,-781.738,1404.297,-5.85,-40.35,-35.25,16.82
12126,1.13,12.56,-56.22,-145.508,-311.523,634.277,-5.85,-40.35,-35.25,17.01
12136,3.79,12.28,-45.56,-75.684,-299.316,600.098,-6.45,-41.70,-34.95,16.82
12148,18.45,5.33,-46.82,375.488,-552.246,621.582,-7.80,-39.15,-35.25,17.10
12158,-2.44,6.16,-24.89,-639.160,-687.012,766.113,-7.65,-40.20,-33.90,16.91
12168,-4.51,1.88,-50.40,604.980,-1105.469,-1021.484,-6.90,-40.20,-33.90,16.77
12183,-11.73,17.45,-58.60,-28.320,-1017.090,315.430,-6.45,-39.30,-32.40,16.82
12192,-14.21,4.22,-56.69,350.586,11.230,1999.939,-7.05,-39.90,-33.75,16.62
12202,4.33,12.89,-31.15,-110.840,-520.508,1162.598,-7.05,-39.90,-33.75,16.91
12212,3.28,0.86,-62.39,-547.852,296.875,1619.629,-7.20,-39.75,-33.45,16.62
12224,8.57,5.37,-51.80,-310.547,-901.855,1267.090,-7.65,-39.00,-34.65,16.77
12234,8.61,4.63,-60.79,128.906,-793.945,1367.676,-8.40,-38.25,-32.70,16.48
12244,-1.39,-2.65,-53.76,-341.797,-820.312,592.773,-8.70,-40.50,-33.15,16.48
12254,10.88,4.88,-50.51,1.953,-686.523,1999.939,-8.70,-40.50,-33.15,16.77
12264,0.18,-3.14,-61.62,290.039,-761.230,305.176,-9.30,-37.95,-32.25,16.77
12274,-3.16,11.30,-66.55,-131.348,-577.637,785.156,-9.60,-39.30,-32.40,16.96
12286,2.42,3.37,-59.73,98.145,-901.855,810.059,-9.60,-39.30,-32.40,16.82
12296,-0.89,1.27,-48.82,-1134.766,-126.953,1369.141,-9.90,-39.00,-33.15,16.91
12306,13.56,-2.69,-51.08,1145.996,-987.305,-759.277,-10.50,-39.60,-34.05,16.91
12316,-15.25,-7.42,-68.93,-734.375,-245.605,799.316,-9.75,-37.95,-33.00,16.62
12326,-7.43,-10.37,-60.31,878.906,-872.070,113.281,-7.80,-37.65,-31.80,16.77
12336,-2.38,0.08,-35.63,-913.086,-278.320,753.418,-7.80,-37.65,-31.80,16.77
12346,-5.85,-6.27,-51.38,644.531,-943.359,456.055,-11.40,-37.05,-33.45,16.91
12358,2.34,-3.94,-49.40,798.828,-932.129,-322.754,-8.55,-38.40,-31.50,16.91
12368,-1.50,-8.13,-71.47,-1031.738,-259.766,1375.488,-10.95,-39.15,-32.55,16.77
12378,-0.29,-10.37,-65.40,513.672,-423.828,1690.430,-11.10,-37.05,-33.45,16.77
12388,7.05,4.33,-50.52,-154.297,-692.871,869.141,-11.85,-38.55,-33.15,16.96
12398,7.86,-10.79,-52.95,-125.000,-596.680,1999.939,-12.45,-37.20,-33.00,16.48
12408,1.23,3.85,-44.27,459.961,-723.633,-115.723,-11.85,-37.80,-33.45,16.77
12418,-1.92,12.15,-57.83,-487.793,-422.363,228.516,-11.85,-37.80,-33.45,16.77
12430,9.67,11.40,-58.56,-340.820,-714.844,1432.617,-14.10,-38.25,-33.45,16.91
12440,-4.68,1.99,-54.47,104.004,-913.086,1832.031,-12.75,-36.45,-32.55,16.82
12450,-1.19,4.24,-50.31,-244.629,-808.594,29.785,-12.00,-37.95,-32.55,16.91
12460,-7.27,-2.65,-55.63,-483.398,-240.723,741.699,-13.35,-36.15,-33.45,16.77
12470,0.76,-0.47,-50.47,606.934,-534.668,318.848,-13.35,-36.15,-33.45,16.77
12480,3.84,5.51,-55.20,-483.887,157.227,1335.938,-13.50,-37.95,-33.00,16.91
12492,13.75,8.37,-45.01,-606.445,-956.055,1373.047,-13.50,-36.00,-33.75,16.77
12502,14.31,-2.65,-54.75,71.289,-536.621,1999.939,-13.05,-37.35,-33.90,16.43
12512,9.05,0.97,-48.98,513.672,-1149.414,861.816,-13.20,-35.25,-32.55,16.77
12522,-12.69,0.24,-33.25,-739.746,-129.395,1114.258,-13.20,-35.25,-32.55,16.96
12532,-3.79,-5.15,-50.10,256.348,-650.879,124.512,-13.80,-35.40,-33.45,16.72
12542,1.85,7.29,-50.42,-884.766,-268.555,831.055,-13.80,-35.40,-33.45,16.77
12552,12.24,-1.75,-36.92,37.598,-689.941,422.852,-13.80,-35.40,-33.45,16.77
12564,3.93,4.31,-49.11,-63.477,-875.488,1741.699,-13.95,-35.25,-34.05,16.91
12574,-3.79,4.38,-65.01,189.941,-395.996,38.574,-13.95,-35.25,-34.05,16.82
12584,10.15,4.46,-49.08,-534.180,-170.898,517.578,-13.50,-34.35,-33.30,16.72
12594,16.38,2.26,-53.34,349.609,-805.664,457.520,-13.95,-33.60,-36.00,17.15
12604,-1.19,8.65,-66.52,-413.574,-854.492,714.355,-14.85,-33.75,-34.20,16.82
12614,-5.12,-6.78,-49.80,-262.207,-662.109,1999.939,-14.10,-33.45,-33.15,16.91
12626,2.59,-7.93,-56.56,-511.230,-769.531,1999.939,-14.10,-33.45,-33.15,16.91
12636,1.47,5.43,-54.44,301.270,-643.066,334.473,-14.85,-32.25,-34.20,16.77
12646,2.05,4.72,-52.50,65.430,-272.949,713.379,-13.95,-33.60,-33.75,16.62
12656,1.40,-6.63,-45.99,-226.074,-816.406,829.590,-15.15,-32.85,-34.05,16.91
12666,11.02,-0.87,-64.44,-284.180,-414.062,758.301,-14.70,-32.85,-32.25,16.72
12676,13.49,3.72,-49.07,-131.836,-1214.355,1764.648,-14.55,-32.55,-33.90,16.77
12686,5.36,10.49,-51.14,-164.551,-406.250,241.699,-14.55,-30.60,-33.15,16.72
12703,-5.86,8.21,-46.65,-125.977,-742.676,33.691,-13.05,-31.35,-31.20,16.91
12712,-1.62,-1.48,-48.43,125.977,-985.352,909.668,-13.05,-31.35,-31.20,16.91
12722,-7.57,7.66,-43.66,74.707,-655.273,1516.602,-14.40,-30.75,-33.00,16.62
12732,-6.11,13.92,-50.27,-129.395,40.527,477.539,-14.40,-30.45,-34.05,16.62
12742,-2.07,5.72,-54.23,-153.809,-360.352,202.148,-15.15,-30.00,-33.30,16.72
12754,2.84,13.71,-47.73,-444.824,-450.684,1083.008,-14.85,-29.85,-33.15,16.62
12764,16.94,4.43,-40.83,-31.738,-680.176,503.906,-15.15,-31.20,-32.25,16.72
12774,10.77,7.93,-40.40,-84.473,-776.855,1872.559,-15.30,-30.60,-31.65,16.91
12784,-0.07,14.63,-32.69,-531.250,-119.629,617.676,-15.30,-30.60,-31.65,16.77
12794,16.66,13.73,-60.51,138.672,-708.008,-112.793,-15.15,-30.75,-31.80,16.91
12804,6.50,5.39,-46.24,-413.574,-172.852,1415.527,-14.85,-29.40,-32.70,16.91
12814,8.02,2.66,-48.10,401.367,-93.750,1919.434,-14.40,-29.55,-32.25,16.48
12826,19.21,-5.77,-40.87,-315.430,-739.746,1587.891,-15.45,-28.05,-32.25,16.82
12836,20.57,-12.01,-47.43,-88.867,-409.180,1999.939,-15.45,-28.05,-32.25,16.62
12846,24.11,-8.59,-50.44,-98.633,-1110.840,1881.836,-15.45,-29.25,-31.80,16.77
12856,19.00,-16.02,-52.36,-451.172,-366.699,1999.939,-14.85,-28.65,-31.20,16.77
12866,24.02,-22.44,-46.91,-125.000,-1097.168,1054.688,-14.85,-28.65,-31.20,16.82
12876,11.63,-22.39,-56.95,-253.418,-960.449,875.000,-15.75,-29.85,-29.40,16.77
12888,12.62,-19.00,-59.27,-438.965,-1002.441,1718.750,-15.75,-27.75,-29.40,16.96
12898,4.52,-22.40,-41.04,80.566,-1361.816,1034.668,-16.20,-28.05,-29.10,16.96
12908,-17.73,-22.35,-51.11,-35.645,-627.441,1565.918,-17.25,-27.00,-29.40,16.62
12918,-34.49,-36.63,-55.79,137.207,-856.934,1068.848,-17.25,-27.00,-29.40,16.58
12928,-32.85,-26.31,-74.41,-487.793,213.867,96.191,-18.60,-25.65,-29.55,16.77
12938,-15.41,-25.40,-45.50,-541.992,-283.203,1364.746,-18.45,-27.45,-28.95,17.01
12948,-8.35,-15.41,-58.35,-416.016,213.379,827.148,-18.45,-27.45,-28.95,16.96
12960,-7.01,-10.66,-60.71,26.367,-970.703,741.699,-18.90,-28.05,-29.55,16.91
12970,-18.55,-16.55,-49.34,-398.926,-1078.613,1116.699,-19.95,-27.00,-29.70,16.96
12980,-8.40,-8.38,-54.34,-246.094,-435.059,687.012,-17.55,-27.45,-29.40,16.72
12990,-6.69,-16.11,-55.10,-26.367,-581.543,744.629,-19.65,-26.85,-29.55,16.58
13000,-0.27,-17.67,-60.98,-653.809,-336.426,555.664,-19.65,-26.85,-29.55,16.62
13010,15.10,-7.14,-62.05,-740.723,398.437,1325.195,-19.35,-28.05,-29.85,16.82
13022,38.51,-3.83,-58.37,-410.156,-596.680,1005.859,-20.10,-26.85,-29.85,16.38
13032,28.37,-8.31,-54.16,-308.594,-892.090,1999.939,-18.90,-25.65,-30.30,16.82
13042,3.76,9.18,-43.08,-580.566,-954.590,90.820,-20.70,-27.00,-30.90,16.72
13052,13.99,10.48,-53.68,-563.965,-698.242,804.199,-20.85,-26.40,-32.25,16.82
13062,8.50,8.47,-45.90,-5.371,-832.520,1999.939,-22.05,-25.95,-31.50,16.82
13072,-4.54,27.31,-54.10,-89.355,-173.828,667.480,-21.90,-25.80,-30.90,16.96
13082,12.22,11.91,-19.51,-80.078,-1183.105,916.504,-21.90,-25.80,-30.90,16.77
13094,-1.83,15.88,-45.24,101.563,-305.664,923.340,-21.30,-25.65,-30.75,16.62
13104,-3.32,2.72,-40.47,-123.535,-808.594,1319.824,-20.55,-23.25,-31.50,16.77
13114,-8.32,-1.66,-56.03,108.398,-722.656,398.437,-21.30,-24.45,-31.80,16.77
13124,-3.95,-4.34,-56.92,-219.238,-104.980,1236.816,-21.30,-24.45,-31.80,16.82
13134,-3.12,-6.27,-44.35,-599.609,196.289,1999.939,-21.60,-24.45,-30.30,16.82
13144,5.79,-9.02,-57.79,-279.297,-392.578,1686.035,-21.30,-24.45,-31.50,16.91
13156,13.74,-7.82,-60.69,-268.066,-781.250,1999.939,-21.30,-24.45,-31.50,16.82
13166,14.21,-8.18,-50.44,-227.539,-632.324,910.645,-20.25,-24.60,-31.95,16.77
13176,2.27,-1.91,-55.72,-134.766,-770.020,924.805,-22.20,-23.40,-30.90,16.62
13186,-7.02,-6.24,-43.98,42.480,-793.945,1650.391,-20.55,-24.45,-30.75,16.43
13196,-6.70,-9.58,-45.47,-47.363,-420.410,989.258,-22.80,-24.45,-30.30,16.77
13206,-14.72,-8.98,-65.50,-25.879,-533.691,1435.059,-22.80,-24.45,-30.30,16.96
13223,-4.82,-5.36,-48.66,-146.484,-528.809,1482.910,-22.05,-23.70,-30.30,16.96
13232,-0.89,-4.21,-31.11,-288.574,-298.340,749.023,-22.05,-24.45,-30.75,17.10
13242,-5.11,-2.31,-43.47,128.418,-396.484,171.875,-22.05,-24.45,-30.75,16.91
13252,-0.36,-0.05,-48.70,-268.555,-563.965,997.559,-21.90,-25.05,-32.40,16.77
13262,0.32,-4.97,-51.19,-278.320,-514.160,1360.840,-22.65,-23.85,-30.45,16.72
13272,-3.95,-2.28,-35.82,-258.301,-494.629,760.742,-20.55,-23.25,-30.75,16.72
13282,-7.50,1.03,-46.67,-88.867,-334.961,1090.820,-23.25,-23.70,-31.05,16.82
13294,4.24,-3.86,-40.53,121.094,-397.461,728.516,-22.20,-22.65,-30.90,16.91
13304,3.04,9.82,-54.55,-203.613,39.551,31.738,-22.35,-23.70,-30.75,16.91
13314,21.21,18.55,-33.97,-237.793,-534.180,503.906,-22.35,-23.70,-30.75,16.96
13324,18.05,9.57,-43.27,-167.480,-276.367,409.180,-22.65,-22.20,-29.70,16.77
13334,18.60,11.95,-42.28,18.555,-795.410,1248.535,-22.35,-22.05,-29.55,16.72
13344,15.38,6.90,-42.82,127.930,-365.234,1434.082,-22.20,-23.40,-29.70,16.91
13354,7.29,0.05,-43.27,106.445,-420.898,699.707,-22.35,-21.60,-28.80,16.96
13366,9.02,-1.54,-48.86,35.156,-603.516,1152.832,-22.35,-21.60,-28.80,16.77
13376,9.16,-8.60,-41.10,29.297,-423.340,1502.930,-24.15,-21.00,-29.70,16.91
13386,10.48,-8.46,-41.67,-148.926,-539.551,1310.059,-23.70,-20.70,-29.40,16.82
13396,9.01,-8.54,-42.87,-89.355,-607.422,978.027,-23.40,-22.20,-30.45,16.77
13406,0.40,-12.89,-43.63,-76.660,-366.211,1145.020,-24.60,-20.70,-31.20,16.77
13416,-1.03,-15.25,-25.76,-35.645,-56.152,1458.008,-24.60,-21.90,-31.20,16.48
13428,-1.32,-15.16,-40.31,94.727,-338.867,1211.914,-24.90,-19.80,-30.90,16.77
13438,-6.80,-6.92,-29.37,-214.355,199.707,656.738,-23.70,-21.45,-30.90,16.72
13448,-7.04,-4.05,-33.58,-75.684,-41.016,170.898,-23.70,-21.45,-30.90,16.91
13458,-8.18,-3.04,-35.65,24.902,-398.437,93.262,-24.15,-20.25,-30.45,16.91
13468,-11.32,-1.82,-19.67,-142.578,-155.762,1648.926,-24.30,-20.10,-29.85,16.91
13478,-16.18,5.59,-31.58,-388.184,128.418,997.070,-24.90,-19.05,-30.45,16.91
13488,-12.98,7.69,-26.99,21.973,-41.016,1248.535,-23.70,-19.50,-30.45,17.01
13500,-6.02,8.60,-30.50,-4.395,-239.746,1224.121,-23.70,-19.50,-30.45,16.72
13510,11.27,10.59,-30.56,2.930,-291.992,808.594,-23.40,-19.05,-30.90,16.91
13520,7.86,7.31,-24.44,-24.414,-180.664,137.695,-24.00,-21.30,-31.05,16.62
13530,18.26,-6.89,-33.78,192.871,-500.977,681.641,-24.00,-21.30,-31.05,16.82
13540,13.79,-2.18,-25.76,188.477,-697.266,1062.988,-24.00,-20.85,-30.75,16.96
13550,3.20,-11.05,-28.29,-171.387,-615.723,1783.691,-23.70,-21.00,-31.95,17.01
13562,4.42,-7.74,-39.93,38.574,-636.719,1052.734,-24.15,-18.60,-31.20,16.72
13572,-1.74,-8.65,-37.77,-103.516,-457.031,1080.566,-23.40,-19.50,-29.70,16.91
13582,-3.36,-1.65,-29.47,-210.937,-149.414,417.480,-23.40,-19.50,-29.70,16.82
13592,7.44,0.72,-36.03,-237.793,-196.289,485.352,-24.15,-18.60,-30.15,16.96
13602,15.11,-0.11,-45.31,89.355,-249.023,742.187,-23.55,-20.40,-30.75,16.77
13612,10.01,4.50,-14.35,-216.797,-227.539,1319.336,-23.55,-20.40,-30.75,16.82
13622,3.30,5.73,-41.27,-90.332,-459.473,869.141,-24.00,-18.45,-29.55,16.82
13634,-11.71,1.42,-31.89,184.082,-679.687,1289.551,-23.70,-17.10,-30.90,16.91
13644,-19.79,3.40,-33.82,97.656,-690.918,1105.469,-22.95,-19.05,-30.45,16.82
13654,-19.66,2.15,-29.18,-207.520,-265.137,834.961,-22.95,-19.05,-30.45,16.77
13664,-14.95,2.85,-36.57,38.086,-105.469,1126.953,-22.95,-19.05,-30.45,16.96
13674,-11.59,-9.31,-28.96,-102.539,268.555,1012.207,-24.90,-18.60,-31.65,16.96
13684,2.07,-6.10,-28.13,-271.973,-365.723,1532.715,-24.90,-18.60,-31.65,16.72
13697,-0.34,-7.59,-32.69,-4.395,-249.512,1096.680,-25.05,-19.20,-31.50,16.43
13706,-2.96,-7.32,-45.73,159.668,-611.328,1364.258,-23.25,-18.45,-30.75,16.48
13716,-12.25,-1.80,-53.07,-20.020,-103.027,1059.570,-24.60,-19.80,-31.20,16.96
13726,-7.55,-3.66,-31.44,-107.910,-402.344,1055.664,-25.35,-17.85,-31.95,16.91
13741,-5.68,-0.89,-30.16,-10.742,-390.625,811.523,-25.35,-17.85,-31.95,16.48
13750,-2.13,0.79,-36.58,-143.066,-373.535,1125.000,-24.75,-18.90,-31.50,16.72
13760,-5.89,2.89,-29.46,204.102,-412.109,1341.309,-23.40,-17.85,-32.40,16.91
13770,-2.27,0.79,-33.22,-20.996,59.570,1037.109,-24.30,-20.10,-31.05,16.77
13782,5.29,1.63,-32.05,-88.867,-185.059,1010.254,-24.30,-18.45,-32.25,16.91
13792,2.92,6.01,-33.17,65.430,-410.156,926.758,-22.95,-17.85,-31.20,16.96
13802,3.27,7.00,-34.63,-179.687,-365.723,665.039,-24.15,-18.60,-31.65,17.01
13812,6.60,-0.96,-36.48,197.266,-530.762,722.656,-23.40,-17.40,-31.20,16.72
13822,5.65,0.97,-29.52,-45.410,-408.203,1169.922,-23.40,-17.40,-31.20,16.82
13832,6.08,-4.07,-26.77,60.547,-405.273,1339.844,-23.40,-18.30,-31.65,16.58
13844,8.41,-1.31,-25.80,69.824,-507.324,1300.781,-23.40,-17.10,-29.40,16.91
13854,10.07,-4.53,-33.30,-45.410,-354.980,1791.504,-23.25,-18.00,-31.05,16.62
13864,-2.94,-10.95,-30.57,-164.062,117.676,1351.074,-24.15,-16.65,-30.15,16.91
13874,-1.02,-3.47,-32.31,-28.809,-281.738,252.930,-24.15,-16.65,-30.15,16.77
13884,3.15,-3.76,-25.58,258.301,-49.316,933.105,-24.15,-15.90,-31.20,16.91
13894,-2.97,0.38,-14.67,94.238,-141.113,1158.691,-24.00,-17.70,-29.55,16.77
13904,-8.55,0.42,-28.23,24.414,-396.484,839.844,-24.00,-17.70,-29.55,16.96
13917,-1.89,-1.47,-27.04,-235.352,-549.316,1999.939,-23.70,-17.10,-30.90,16.77
13926,-8.63,4.23,-32.51,-55.664,-178.711,1265.625,-23.55,-16.05,-30.75,16.62
13936,-5.06,5.11,-26.02,-200.684,-277.832,836.914,-24.30,-16.50,-29.85,16.62
13946,-2.92,4.99,-32.02,-89.844,-219.238,739.258,-24.30,-16.50,-29.85,16.96
13956,-0.94,6.34,-34.74,313.965,-582.520,886.230,-24.15,-14.25,-30.90,16.91
13966,-3.70,4.79,-39.57,27.344,-413.574,1019.043,-23.70,-16.65,-30.45,16.91
13976,-4.91,6.58,-32.56,-192.383,-344.238,865.234,-23.70,-16.65,-30.45,16.82
13988,-7.38,3.13,-30.65,-115.234,-194.824,1417.480,-22.80,-16.05,-29.85,17.15
13998,-6.98,-2.48,-23.15,-6.836,-92.773,922.852,-24.15,-16.20,-30.90,16.77
14008,6.75,-4.37,-32.18,92.773,-63.965,824.219,-23.70,-13.05,-31.20,16.91
14018,16.52,-7.84,-35.91,341.797,-88.867,1139.648,-23.25,-16.50,-30.75,16.48
14028,14.64,-12.73,-25.36,-170.410,-509.277,1288.086,-23.25,-16.50,-30.75,16.48
14038,6.53,-9.40,-39.90,-225.586,-625.000,795.898,-23.40,-14.25,-30.45,16.96
14050,3.87,-6.05,-27.44,-327.148,-166.992,1528.809,-23.70,-15.45,-31.20,16.96
14060,-3.93,-1.08,-25.88,10.742,-498.535,592.285,-23.55,-13.65,-30.30,16.72
14070,-7.73,4.79,-31.26,391.113,-617.187,823.242,-23.40,-12.75,-30.45,16.96
14080,-12.02,1.16,-26.40,124.512,-428.223,296.875,-24.00,-13.65,-30.30,16.82
14090,-12.63,-0.34,-25.04,-42.969,-219.238,1311.035,-23.55,-13.65,-28.80,16.82
14100,-4.31,-5.35,-34.73,86.914,-261.719,480.957,-24.75,-15.30,-29.55,16.77
14110,7.69,-4.76,-37.02,324.219,-596.680,1055.664,-24.75,-15.30,-29.55,16.91
14122,0.44,-1.08,-41.85,59.570,-163.086,700.195,-23.40,-13.80,-28.95,16.77
14132,-0.49,-2.12,-34.29,148.926,-239.258,1210.938,-24.75,-14.40,-31.50,16.96
14142,3.01,-7.46,-26.76,-374.512,-280.762,1999.939,-23.55,-13.65,-31.50,17.10
14152,-4.52,1.50,-38.17,62.012,-300.293,154.785,-24.00,-13.65,-29.55,16.77
14162,-0.79,2.49,-37.53,187.988,-670.410,850.586,-24.00,-13.65,-29.55,16.72
14172,-17.98,4.53,-144.24,-173.828,-274.902,1046.387,-23.40,-14.25,-30.45,16.58
14184,-0.06,0.70,-53.37,139.160,-277.344,924.316,-24.90,-13.80,-31.65,16.82
14194,-10.69,-0.24,-33.95,-418.945,-320.312,1485.352,-24.90,-13.80,-31.65,16.77
14204,0.22,-4.05,-32.66,-129.395,-235.840,782.715,-22.65,-13.05,-31.65,16.58
14214,3.70,-3.04,-33.34,365.723,-510.254,925.781,-23.25,-12.15,-32.25,16.96
14224,5.21,-3.28,-30.75,-313.477,-76.172,1594.727,-22.95,-11.85,-31.20,16.91
14234,-1.57,-1.41,-32.81,-262.207,48.340,1258.301,-22.65,-13.80,-31.20,16.96
14244,4.44,-1.25,-31.17,299.805,-84.473,583.008,-22.65,-13.80,-31.20,16.96
14261,17.99,-1.21,-30.17,-140.625,288.086,1854.004,-23.55,-11.70,-33.30,16.58
14270,10.21,5.47,-29.70,-74.707,-595.703,95.703,-23.55,-11.70,-33.30,16.72
14280,6.46,4.65,-21.84,330.078,-631.348,604.004,-22.80,-12.90,-31.50,16.77
14290,-10.92,-0.77,-31.38,-189.453,-499.512,1300.293,-21.90,-9.45,-32.70,16.91
14300,-11.15,4.95,-40.91,46.387,-305.664,-188.965,-21.45,-11.10,-32.40,16.77
14310,-5.63,3.25,-43.70,261.719,-722.656,885.742,-22.05,-11.25,-32.25,16.82
14320,-8.52,-1.89,-21.82,-2.441,-381.348,1662.598,-22.05,-11.25,-32.25,16.96
14332,-9.15,10.92,-24.48,-104.492,-254.395,849.121,-22.20,-12.75,-29.70,16.77
14342,-7.68,-6.15,-35.77,-0.977,89.844,1021.973,-23.40,-11.10,-32.70,16.96
14352,9.05,-0.02,-37.89,324.219,-522.949,80.078,-22.05,-10.95,-32.55,16.72
14362,5.99,-1.05,-37.08,-53.711,-454.102,883.789,-22.05,-12.45,-30.30,16.82
14372,3.52,-5.93,-38.80,-269.043,-562.500,1562.500,-21.60,-11.70,-33.00,16.96
14382,2.18,-4.85,-45.47,318.848,-745.117,797.852,-20.55,-12.90,-31.05,16.77
14392,2.75,1.01,-33.82,-56.152,-573.730,946.289,-21.30,-10.50,-32.25,16.77
14404,2.19,-0.37,-45.21,-101.074,-456.543,542.480,-21.30,-10.50,-32.25,16.77
14414,-4.47,2.66,-55.61,43.457,-769.531,538.086,-21.00,-11.85,-30.45,16.91
14424,2.34,7.24,-30.74,-386.230,-238.770,1146.973,-21.60,-11.25,-32.25,16.91
14434,-5.77,10.47,-35.05,0.000,-137.207,309.570,-19.65,-11.70,-30.30,16.72
14444,5.66,9.99,-45.53,183.105,-514.648,-5.859,-23.25,-11.25,-30.30,16.82
14454,5.95,7.56,-47.74,-446.289,-63.965,1514.160,-23.25,-11.25,-30.30,16.77
14466,9.26,3.56,-53.08,-122.070,-402.344,1005.371,-20.70,-9.45,-31.65,16.91
14476,-6.96,-7.10,-52.04,-36.621,-494.629,1197.266,-20.70,-9.45,-31.65,16.91
14486,-2.25,-4.14,-35.53,532.227,-1016.602,339.844,-20.85,-10.95,-31.50,16.91
14496,-16.24,0.26,-47.74,-51.270,-121.582,1719.727,-20.10,-7.35,-31.50,16.77
14506,-8.77,-18.55,-46.40,432.617,-358.887,1572.754,-20.85,-8.85,-29.85,16.96
14516,4.73,-3.66,-38.11,75.195,-371.094,967.773,-20.55,-9.75,-30.30,16.62
14526,10.84,-4.59,-35.64,-389.648,-746.582,1996.094,-20.55,-9.75,-30.30,16.91
14538,5.15,6.37,-33.00,-349.121,31.250,1535.156,-18.90,-8.10,-29.55,16.58
14548,5.24,-3.34,-38.94,108.887,50.781,1729.980,-21.00,-7.50,-31.95,16.96
14558,12.63,8.88,-35.47,-23.437,-480.957,280.273,-21.00,-7.50,-31.95,16.96
14568,4.98,6.81,-36.53,-729.492,-235.840,1449.707,-18.90,-8.55,-29.85,16.82
14578,7.54,8.61,6.82,218.750,-741.211,1673.828,-19.35,-7.35,-31.80,16.91
14588,5.15,9.54,-54.00,201.660,-798.340,1093.750,-19.35,-6.45,-30.75,16.72
14598,-0.11,3.40,-41.73,82.520,-394.531,1566.895,-19.95,-7.95,-30.15,16.77
14610,-8.79,4.27,-43.86,-114.258,-282.227,1074.219,-19.95,-7.95,-30.15,16.72
14620,-2.89,-6.17,-27.94,101.563,-219.727,1885.742,-19.50,-9.15,-29.70,16.77
14630,5.19,-8.63,-40.37,875.977,-426.758,805.176,-19.50,-9.15,-30.15,17.10
14640,-2.10,-6.63,-25.15,-355.469,-419.922,431.641,-19.50,-9.15,-30.15,17.01
14650,7.34,-10.12,-36.20,351.074,-512.695,433.105,-20.55,-9.30,-29.85,16.77
14660,-2.52,0.37,-37.90,-33.203,-457.031,710.449,-19.65,-10.05,-31.05,16.72
14672,-2.07,4.21,-42.53,363.770,-126.953,719.238,-20.10,-6.45,-30.75,17.01
14682,-8.51,0.18,-43.69,-283.203,-604.004,1999.939,-19.35,-10.50,-30.75,16.77
14692,-7.05,0.98,-30.21,286.133,-734.863,601.074,-19.35,-10.50,-30.75,16.72
14702,-2.37,11.26,-37.31,-426.758,-371.094,1191.895,-19.95,-7.05,-31.65,16.72
14712,-3.30,-4.82,-40.95,37.598,-131.348,1999.939,-18.00,-7.50,-31.20,16.96
14722,-2.03,-1.24,-33.54,180.664,-267.578,953.125,-19.20,-5.10,-30.90,16.62
14732,3.33,1.87,-38.92,-449.707,38.574,699.707,-18.75,-5.85,-30.90,16.96
14744,17.08,3.18,-38.63,-217.285,-838.867,1055.664,-18.15,-7.35,-31.05,16.96
14754,8.84,-3.14,-30.27,-83.984,-728.516,1999.939,-19.35,-4.95,-31.80,16.77
14764,3.00,3.19,-29.67,99.121,-835.449,671.387,-18.15,-5.70,-30.75,17.10
14779,-4.47,2.13,-39.76,-794.434,-106.934,1536.133,-17.55,-4.65,-30.15,16.82
14788,-1.01,-3.76,-40.13,177.734,-632.324,1084.961,-18.45,-7.95,-29.40,17.01
14798,2.11,7.26,-49.60,111.816,-359.375,1299.316,-18.45,-5.55,-30.90,16.96
14808,8.56,2.15,-40.73,-175.293,-70.801,1999.939,-18.75,-5.55,-30.15,16.96
14821,9.36,3.79,-49.79,52.246,-412.109,1999.939,-18.75,-5.55,-30.15,16.77
14831,4.11,1.64,-42.10,439.453,-944.824,256.836,-17.55,-4.35,-29.70,17.10
14841,-14.81,-2.18,-43.16,-173.828,-681.152,772.461,-17.25,-5.85,-30.45,16.77
14851,-15.02,-7.75,-54.19,385.254,-188.965,747.070,-17.25,-5.85,-30.45,16.96
14861,-5.22,-1.99,-44.83,-557.129,33.203,840.820,-15.15,-4.95,-29.85,16.48
14871,6.66,-19.86,-46.89,1472.656,-546.875,1563.477,-17.40,-5.70,-28.80,16.77
14883,7.60,-18.76,-55.48,821.289,-666.992,94.727,-17.55,-5.55,-29.70,16.58
14893,-6.03,-1.57,-49.82,-619.629,-335.449,870.117,-17.40,-4.50,-29.55,16.77
14903,1.89,-6.21,-27.56,614.746,-878.906,22.461,-17.40,-4.50,-29.55,16.96
14913,0.11,5.02,-66.27,-466.309,-509.277,954.590,-17.25,-6.30,-29.40,16.96
14923,2.65,-8.79,-34.79,186.523,-676.758,1488.281,-17.25,-3.90,-30.45,16.82
14933,0.13,0.15,-28.15,-21.484,-919.922,416.016,-17.25,-3.90,-30.45,16.77
14943,2.48,5.52,-40.74,-739.258,-160.645,625.488,-18.00,-5.10,-30.90,16.62
14955,-7.78,0.48,-44.64,-591.797,-224.121,1575.684,-17.25,-2.70,-30.15,16.72
14965,2.72,0.81,-29.44,509.766,-591.797,434.082,-16.80,-4.65,-29.70,16.48
14975,15.37,6.60,-48.97,-107.910,-432.129,1099.609,-17.25,-4.35,-29.40,16.96
14985,8.50,-7.85,-25.97,97.656,-456.055,1999.939,-17.25,-4.35,-29.40,16.82
14995,-1.03,0.27,-36.73,-86.914,-1018.555,1164.063,-15.75,-3.90,-30.45,16.91
15005,-14.73,3.97,-30.46,-737.305,116.211,966.309,-16.20,-2.85,-30.30,16.96
15015,-6.77,-8.91,-35.87,86.426,-679.687,-53.223,-16.20,-2.85,-30.30,16.96
15027,-15.79,-2.02,-51.66,509.766,-164.551,130.371,-16.20,-2.55,-30.75,16.82
15037,-4.14,-4.32,-40.15,-448.730,-312.500,595.703,-14.70,-2.55,-29.10,16.77
15047,4.52,-6.92,-31.18,529.785,-476.074,509.277,-15.15,-4.50,-28.80,16.77
15057,3.27,4.72,-42.98,-733.887,-512.207,1112.793,-15.15,-4.50,-28.80,16.77
15067,7.85,2.66,-39.58,416.504,-392.578,1999.939,-14.85,-1.95,-28.95,16.91
15077,0.61,7.40,-32.77,-424.316,-622.559,839.844,-17.25,-3.90,-31.65,16.96
15087,-1.82,-0.05,-36.35,-51.270,-787.109,884.766,-16.80,-2.25,-31.20,16.77
15100,-5.72,-7.82,-20.43,-166.504,-646.973,1999.939,-13.95,-2.55,-29.85,16.91
15109,-4.29,-1.76,-42.34,-144.531,-516.113,679.687,-15.30,-3.90,-32.40,16.82
15119,0.35,-8.19,-29.00,-258.301,-669.434,1999.939,-16.05,-2.25,-31.65,16.91
15129,-2.77,3.60,-41.40,-67.871,-478.516,301.270,-13.35,-3.15,-31.20,16.58
15139,-5.98,-3.05,-40.26,93.262,429.687,1146.484,-13.35,-3.15,-31.20,16.91
15149,4.48,1.68,-40.13,-30.762,-478.516,-509.766,-13.50,-1.35,-31.80,17.01
15161,6.76,6.75,-26.78,-200.195,-466.309,1.465,-15.45,-0.90,-30.75,16.77
15171,-4.39,6.11,-45.75,-111.816,337.402,863.770,-14.10,-3.90,-31.20,16.91
15181,-5.79,-2.21,-37.15,785.645,-716.797,-441.406,-12.75,-1.35,-31.50,16.77
15191,-31.45,5.81,-47.79,-503.906,180.176,492.676,-12.75,-1.35,-31.50,17.01
15201,-13.91,-7.76,-34.49,1185.059,-327.637,-205.078,-13.80,-3.45,-29.40,16.58
15211,-21.50,-0.47,-49.66,-718.262,419.922,844.727,-12.30,-1.50,-29.70,16.77
15221,-13.08,1.06,-33.28,821.777,143.555,1075.684,-12.30,-1.50,-29.70,16.96
15233,3.63,3.15,-40.47,461.426,-772.461,369.141,-13.50,-2.85,-31.05,16.82
15243,7.72,6.06,-42.35,-1267.578,-354.980,1094.727,-13.50,-2.10,-31.05,16.72
15253,26.56,-8.34,-37.08,1190.430,-1160.645,730.957,-13.95,-2.85,-30.30,17.10
15263,7.10,-0.93,-42.94,-837.402,-1174.316,895.996,-13.80,-3.45,-31.20,16.91
15273,-1.50,-2.20,-43.76,81.055,-1134.766,-245.605,-13.80,-3.45,-31.20,16.82
15283,-21.10,-0.55,-45.13,-398.926,-280.762,550.293,-12.30,-0.30,-30.90,16.58
15307,-10.63,-3.04,-36.34,-910.156,-283.691,1599.609,-12.00,-1.65,-31.80,16.82
15316,9.87,-8.90,-25.96,904.785,-583.984,1999.939,-11.85,-0.75,-31.95,16.58
15326,8.85,7.53,-34.18,-726.562,-714.355,1611.816,-11.40,-1.95,-30.15,16.96
15336,12.69,-9.72,-35.32,480.957,-576.660,1828.613,-11.25,-0.90,-30.75,17.01
15346,11.29,3.15,-34.40,-969.727,-461.426,1730.469,-11.10,0.00,-30.15,16.91
15358,7.51,5.22,-44.98,-604.980,-796.875,954.590,-12.00,-1.65,-32.55,16.82
15368,11.90,-7.00,-24.42,1104.492,-1281.250,27.344,-12.30,-0.75,-31.20,16.91
15378,-7.65,9.45,-40.95,-1069.824,-151.367,597.168,-12.00,-2.55,-31.50,16.82
15388,7.96,-4.93,-49.70,1221.680,-1137.695,928.711,-10.95,0.45,-31.05,16.77
15398,-23.37,7.01,-35.01,-254.883,-187.500,-54.688,-9.90,-0.30,-31.95,16.62
15408,-0.17,-13.21,-43.02,749.512,-782.715,-541.504,-9.90,-1.05,-30.90,16.91
15418,1.36,3.27,-28.08,-358.398,-91.797,-367.187,-11.40,-1.05,-31.65,17.01
15430,1.55,5.05,-31.41,228.516,-393.066,-548.828,-11.40,-1.05,-31.65,16.91
15440,9.21,-4.98,-50.49,229.980,-376.465,-933.105,-10.65,-1.95,-31.20,16.91
15450,8.90,-4.22,-56.76,171.387,-870.605,1815.430,-11.40,0.75,-32.40,16.82
15460,8.67,1.50,-64.96,-197.266,-463.379,682.617,-9.15,0.30,-32.40,16.96
15470,5.61,-1.10,-23.77,-150.879,-776.367,1186.523,-10.35,0.30,-31.95,16.62
15480,8.32,0.13,-39.64,-17.578,-624.023,-433.105,-9.90,0.30,-33.15,16.58
15490,12.54,-7.09,-15.47,617.187,-1119.629,1822.266,-9.60,0.75,-30.90,16.82
15502,9.52,-2.09,-38.95,87.402,-1207.031,1515.625,-8.70,-0.75,-32.40,16.58
15512,-3.24,9.40,-47.97,-558.105,-350.586,1292.480,-8.70,-0.75,-32.40,16.96
15522,9.22,0.82,-56.27,372.559,-288.574,1999.939,-9.30,2.10,-32.55,16.77
15532,6.02,6.89,-22.27,-601.562,-420.410,1661.621,-7.80,-1.35,-31.80,17.01
15542,10.77,4.23,-40.84,1203.125,-543.457,605.957,-7.65,0.00,-32.40,16.77
15552,-6.68,12.18,-27.03,-523.926,-606.934,1095.215,-8.25,0.90,-31.50,16.82
15562,-3.18,-11.73,-38.11,794.434,-586.914,1437.012,-8.25,0.90,-31.50,16.77
15574,-0.08,-0.08,-47.67,657.227,-490.234,748.535,-8.25,-0.15,-31.80,16.82
15584,-9.40,2.93,-40.88,-497.070,299.805,823.730,-8.25,0.45,-31.50,16.43
15594,3.82,-6.60,-27.05,392.578,-260.254,281.250,-8.25,0.45,-31.50,16.96
15604,-8.32,-7.92,-49.21,120.605,-724.121,1686.035,-8.40,-0.30,-31.20,17.10
15614,3.19,-0.31,-53.78,-483.887,-77.148,522.461,-7.95,1.50,-32.40,16.82
15624,7.19,-5.64,-46.83,258.301,-829.102,1999.939,-7.20,0.30,-33.15,16.91
15636,-24.20,-13.93,-14.84,189.453,-1446.289,1999.939,-6.90,1.05,-33.15,16.96
15646,-13.36,18.23,-65.38,-887.695,-351.074,1424.316,-6.90,1.05,-33.15,16.91
15656,-12.59,-3.80,-35.70,642.578,-607.422,1999.939,-5.55,0.90,-33.30,16.91
15666,-4.63,10.41,-33.01,-445.801,-93.262,533.203,-6.15,0.30,-33.90,16.58
15676,6.50,-1.47,-48.90,529.785,-691.895,575.684,-6.15,0.30,-33.90,16.82
15686,7.31,-3.48,-41.71,347.168,-632.324,852.051,-6.45,1.50,-33.90,16.82
15696,-5.97,-4.92,-53.03,-24.414,-284.668,1666.016,-4.95,0.30,-34.95,16.77
15708,-7.78,-10.63,-32.14,-266.113,-658.691,805.664,-4.95,1.05,-34.65,16.77
15718,-6.34,-6.82,-53.41,225.098,-152.832,1237.793,-4.95,1.05,-34.65,16.82
15728,-5.15,-13.84,-32.95,60.547,-175.781,1083.496,-4.35,1.65,-36.00,16.72
15738,-0.79,0.54,-53.05,-369.141,-418.457,533.691,-4.20,2.70,-35.70,16.82
15748,-17.67,25.19,-206.76,-117.188,-339.355,1378.906,-3.15,2.10,-35.70,16.58
15758,3.79,3.70,26.99,-256.348,-347.168,643.555,-3.45,0.30,-33.90,16.91
15767,4.93,4.79,-32.33,-193.359,-448.730,310.547,-3.45,0.30,-33.90,17.01
15779,8.51,2.89,-21.96,-123.535,-1154.297,1999.939,-3.45,0.75,-33.15,16.77
15789,8.11,-2.68,-37.49,-305.664,-508.301,734.375,-2.85,2.10,-33.00,16.72
15799,3.98,1.08,-41.92,-238.770,-1182.129,1252.441,-2.85,2.10,-33.00,16.91
15809,3.51,-4.53,-42.39,-235.840,-888.672,1104.980,-2.55,1.95,-32.70,16.82
15825,-1.05,-4.58,-32.66,128.906,-508.789,1472.656,-3.45,1.05,-31.95,16.91
15834,-4.90,8.25,-44.56,-303.711,-7.812,1149.414,-2.55,1.50,-32.40,16.72
15844,8.02,-0.29,-49.02,-287.598,-427.246,420.898,-2.55,2.25,-32.70,17.10
15854,17.79,12.15,-35.00,-148.926,-529.297,805.176,-2.55,2.25,-32.70,16.82
15866,0.26,3.67,-52.19,-219.238,-415.039,1778.320,-2.25,1.50,-32.70,17.01
15876,-13.88,-1.04,-41.61,-119.629,-787.598,838.379,-1.20,2.85,-32.55,16.77
15886,-29.73,4.33,-23.47,-262.695,-625.488,1438.965,-1.20,2.85,-32.55,16.77
15896,-26.64,13.92,-73.72,126.465,-810.547,919.922,-1.50,1.95,-34.20,16.62
15906,-19.01,1.96,-0.73,-166.016,199.219,961.426,-2.10,0.45,-33.30,16.91
15916,-10.34,0.27,-53.37,-154.297,-306.641,1220.703,-0.75,0.30,-33.90,16.82
15926,-10.21,-6.15,-44.52,-72.754,-481.445,1468.262,-1.05,1.50,-33.90,16.72
15938,-101.85,11.85,-250.14,52.246,-514.648,982.910,-1.05,1.50,-33.90,16.77
15948,-0.62,11.42,-59.50,-133.301,261.230,1551.270,0.00,2.25,-33.90,16.82
15957,-10.69,-4.59,-50.87,243.164,-683.105,1999.939,0.00,2.25,-33.90,16.91
15967,-29.03,-3.56,-57.40,325.684,-648.437,928.223,0.00,2.25,-33.90,16.77
15977,-32.33,-6.85,-31.03,109.375,484.863,824.219,0.15,1.65,-34.50,17.10
15987,-10.50,-2.33,-58.40,90.820,-72.754,585.449,0.15,1.65,-33.30,16.91
15999,16.31,-6.49,-43.13,-304.687,-84.961,1999.939,0.90,2.55,-34.50,16.91
16009,24.43,-10.99,-38.66,-172.852,-946.289,1785.156,0.90,2.55,-34.50,16.96
16019,9.69,-9.67,-40.82,-111.816,-829.590,689.453,0.30,1.50,-33.15,16.96
16029,-4.24,-8.11,-48.24,-422.363,-809.082,917.969,0.30,2.70,-34.20,16.77
16039,-11.72,-23.67,-39.44,135.742,-41.992,830.078,0.30,2.70,-34.20,16.77
16049,-17.59,-24.63,-51.15,-206.055,107.422,1173.828,0.75,2.25,-34.20,16.62
16059,-0.24,-31.79,-85.63,44.434,-205.566,981.934,0.90,0.90,-33.75,16.91
16071,4.79,-37.82,-47.91,-313.965,-312.988,1999.939,0.00,0.00,-33.90,16.43
16081,17.35,-31.61,-44.40,-325.684,-625.000,780.762,0.75,1.05,-33.15,16.72
16091,0.73,-24.73,-33.98,141.113,-1428.711,-83.984,0.75,1.05,-33.15,16.91
16101,-5.18,-25.02,-31.82,-219.727,-124.023,345.215,1.20,2.10,-34.50,16.91
16111,-12.53,-25.53,-34.93,-211.914,-882.324,1980.957,-0.75,1.50,-34.20,16.91
16121,-10.75,-18.69,-32.37,212.891,-1189.941,316.895,0.90,0.90,-33.75,16.82
16131,-17.16,-23.47,5.82,182.617,-900.391,1128.906,1.50,0.30,-34.20,16.48
16143,-19.61,-17.95,-55.47,-183.594,-573.730,106.934,0.15,0.45,-33.75,16.72
16153,-14.34,0.34,-39.47,-973.145,-347.168,958.008,-0.90,0.45,-34.80,16.77
16163,-3.32,9.05,-47.10,-249.512,-434.570,1955.566,0.75,1.05,-34.20,16.91
16173,8.40,14.27,-28.51,-470.215,-249.023,958.008,0.75,1.05,-34.20,16.77
16182,23.47,24.44,-41.57,-494.141,-845.215,226.562,0.30,1.50,-33.45,16.77
16192,18.05,15.15,-38.42,213.379,-562.012,783.203,1.50,1.05,-33.90,16.72
16201,1.57,25.10,-32.05,271.484,-776.367,1974.609,1.05,1.05,-34.20,16.91
16213,-9.95,13.88,-40.84,-242.676,-797.363,788.574,1.50,2.25,-34.95,17.01
16223,-10.89,14.34,-44.31,-512.695,-526.855,1322.266,1.50,1.50,-35.70,16.82
16233,0.08,10.84,-39.09,-341.309,437.988,1658.203,1.80,1.05,-34.20,17.15
16243,19.75,9.88,-43.18,-13.184,-617.676,1155.762,2.40,1.65,-34.80,16.82
16252,13.17,2.99,-42.75,336.426,-838.379,1396.973,2.40,1.65,-34.80,16.58
16262,-5.43,12.37,-46.02,-236.328,-580.566,214.844,3.60,1.65,-35.25,16.82
16272,-5.40,6.73,-41.83,202.637,-447.266,1319.336,3.15,2.10,-34.80,16.96
16284,2.83,1.91,-54.05,-103.516,114.258,1453.613,3.75,1.50,-34.20,16.77
16294,4.66,-3.82,-45.09,275.391,-69.336,162.598,3.15,-0.15,-35.25,16.82
16304,5.20,8.53,-34.36,-34.180,-863.770,1117.188,3.15,-0.15,-35.25,16.96
16314,-1.61,-0.85,-56.05,-171.875,-820.801,869.141,3.75,2.25,-35.70,16.82
16324,-14.08,3.06,-60.83,-411.133,-871.094,582.520,3.75,0.75,-33.90,16.91
16341,-6.92,3.39,-41.27,-291.016,-423.340,-6.836,3.75,2.25,-34.65,16.58
16350,6.92,-2.54,-40.12,22.461,-738.281,1149.902,5.70,1.05,-34.65,16.48
16360,-1.63,-1.35,-51.52,-301.758,-584.961,915.039,5.55,1.65,-36.00,16.91
16370,9.45,-1.44,-44.02,-253.418,-603.027,1095.703,4.50,2.70,-34.65,17.01
16380,3.09,4.34,-49.72,-114.258,-873.535,1022.461,4.50,2.70,-34.65,16.96
16389,0.37,-0.44,-35.76,-36.621,-871.582,1012.207,5.55,1.35,-36.00,16.58
16399,-3.15,4.10,-51.46,-90.332,-684.570,514.648,5.85,0.90,-35.25,16.72
16411,-2.40,5.23,-47.55,143.066,-675.781,1250.977,5.85,0.90,-35.25,16.58
16421,-1.50,4.05,-52.27,-187.500,-425.293,858.398,5.85,2.10,-36.00,16.58
16431,2.34,-0.34,-46.08,-161.621,-540.039,1061.035,6.45,1.50,-34.65,16.96
16441,-5.29,6.15,-46.04,-123.047,-379.395,857.422,6.90,1.95,-34.65,16.96
16451,3.76,0.99,-45.44,-183.594,-331.055,1283.691,7.05,0.90,-35.55,16.82
16460,2.95,3.01,-41.75,-218.262,-400.879,678.711,7.05,0.90,-35.55,16.77
16470,-0.55,0.71,-61.08,-460.937,-1104.980,1251.465,7.80,0.90,-36.30,16.91
16482,-6.98,-1.63,-34.77,-216.309,-500.000,1619.141,7.35,1.35,-35.25,16.58
16492,-4.15,0.66,-41.28,-176.758,-395.996,729.492,7.35,1.35,-35.25,16.82
16502,2.08,3.73,-46.59,-35.645,-642.090,732.422,8.40,1.50,-35.40,16.77
16511,-0.51,3.23,-37.02,-59.570,-675.293,1444.336,8.55,1.65,-34.50,16.72
16521,-2.66,-2.98,-52.62,-134.766,-733.887,838.867,7.95,1.05,-36.15,16.72
16531,1.46,2.12,-44.08,-390.625,-721.680,627.441,7.65,1.05,-35.70,16.82
16540,4.62,3.52,-50.49,-295.898,-777.344,757.324,7.65,1.05,-35.70,16.96
16551,2.06,5.84,-54.76,57.617,-547.363,774.414,9.15,0.75,-35.40,16.72
16560,4.38,-6.26,-47.28,-143.066,-843.750,1393.555,10.50,0.90,-36.00,16.72
16570,1.33,0.25,-43.82,-13.184,-898.437,1047.852,9.75,0.45,-36.30,16.82
16579,-1.74,3.50,-50.52,-122.070,-232.910,1013.672,9.75,0.45,-36.30,16.96
16589,8.11,0.18,-47.08,118.652,-395.996,1187.500,10.95,0.90,-37.05,17.15
16599,2.29,1.11,-40.28,-201.660,-671.387,585.449,10.95,0.90,-37.05,16.91
16608,3.72,-4.49,-52.88,-155.762,-871.094,997.070,10.35,0.00,-34.65,16.72
16620,-10.04,-0.98,-54.53,-351.562,-689.941,1189.941,10.50,0.15,-35.25,16.96
16630,-5.25,-3.36,-50.07,-173.340,-506.348,1250.000,10.95,0.45,-36.30,16.96
16640,5.15,-3.56,-52.83,-225.098,-1604.492,1589.355,11.70,-0.45,-37.50,16.77
16650,-12.21,-7.88,-51.41,-124.512,-478.027,1329.102,10.65,-0.75,-36.60,16.77
16660,-4.89,-6.76,-66.12,170.410,-223.145,1682.129,12.30,1.95,-35.70,16.82
16670,3.79,-8.79,-54.96,-223.633,-517.090,1316.406,12.30,1.95,-35.70,16.96
16680,12.25,-10.19,-49.67,-267.578,-530.762,578.125,11.25,-0.45,-37.05,16.82
16692,7.91,-5.60,-39.00,-80.566,-362.793,115.234,11.40,-1.05,-35.70,16.72
16702,6.05,1.31,-42.56,79.102,-667.969,1044.434,11.40,-1.05,-35.70,16.96
16711,2.31,-1.40,-48.26,-431.152,-729.004,980.469,11.70,0.15,-37.50,16.58
16721,-10.43,1.86,-51.66,-136.230,-813.965,1191.406,12.60,-0.75,-34.65,16.82
16731,0.47,-3.64,-54.91,3.906,-797.363,449.219,13.20,-0.90,-35.55,16.72
16741,-15.14,1.50,-47.27,-256.836,-534.668,899.414,12.00,-0.15,-36.75,17.10
16751,3.67,4.99,-47.40,-43.945,-191.406,816.895,12.00,-0.15,-36.75,16.96
16763,8.63,-1.46,-48.32,-330.566,-893.555,1796.875,13.50,-2.10,-35.25,16.82
16773,0.29,-1.42,-49.37,-115.723,-944.824,1058.105,13.95,-0.45,-34.80,16.91
16783,5.31,1.21,-54.83,-266.113,-490.723,772.461,13.95,-0.45,-34.80,16.62
16793,12.34,5.18,-53.58,0.000,-540.527,719.238,13.80,-1.05,-36.15,16.96
16802,-1.63,3.98,-52.56,-28.809,-599.609,490.723,14.55,-2.25,-35.70,16.96
16812,0.51,2.10,-55.24,-344.727,-713.867,1010.254,13.95,-0.45,-36.00,16.96
16824,3.79,-0.05,-58.89,106.934,-833.984,499.023,14.55,-1.95,-34.95,16.96
16834,-1.26,2.11,-49.63,-109.863,-913.574,1353.027,14.55,-1.95,-34.95,16.91
16849,1.09,-2.83,-54.08,-129.883,-443.848,1438.477,14.70,-1.35,-34.80,16.62
16858,15.84,-5.40,-64.21,-638.184,-520.508,1863.770,14.55,-1.50,-36.60,16.91
16868,14.37,4.36,-62.03,-361.816,-768.066,1385.742,14.55,-1.50,-36.60,16.72
16878,-2.89,5.01,-48.03,171.387,-745.605,578.613,15.75,-3.15,-38.10,16.77
16888,-12.64,-3.94,-65.93,-84.473,-1026.367,875.488,14.70,-2.85,-36.30,17.01
16900,-0.58,7.16,-59.92,-209.473,-494.629,581.055,16.05,-2.70,-36.90,16.91
16910,6.25,1.05,-56.97,142.090,-795.410,690.430,16.05,-2.70,-36.90,16.82
16920,5.27,2.38,-55.77,-5.371,-608.398,222.168,16.65,-3.75,-37.05,16.58
16930,5.66,2.98,-54.58,-291.016,-780.762,249.512,15.90,-3.30,-36.75,16.77
16940,-5.52,1.23,-65.24,-336.914,-853.516,945.312,15.90,-3.30,-36.75,16.91
16950,-4.87,-4.41,-47.84,92.285,-330.078,1510.742,17.10,-3.75,-37.50,16.96
16960,-4.82,-9.02,-47.28,-22.461,-559.082,1068.848,17.25,-4.35,-36.60,16.82
16972,4.15,-2.27,-54.12,-211.426,-79.102,531.250,16.20,-4.50,-37.50,16.82
16982,0.54,-6.07,-55.50,-375.000,-633.301,1605.469,17.25,-3.15,-36.90,16.96
16992,2.34,-1.20,-58.73,-99.121,-834.473,885.254,17.25,-3.15,-36.90,16.91
17002,-2.73,0.73,-45.56,-13.184,-424.805,959.473,16.50,-4.65,-36.60,16.62
17012,4.22,2.02,-58.71,-96.680,-711.914,435.547,17.10,-4.95,-36.30,16.77
17022,12.05,10.34,-51.63,-179.199,-766.602,627.930,17.85,-5.25,-36.30,16.91
17032,7.31,10.17,-56.53,-60.059,-649.414,1017.090,17.25,-5.10,-38.10,16.77
17044,-3.43,4.24,-56.84,-302.246,-459.961,1208.984,17.25,-5.10,-38.10,16.91
17054,-3.94,0.13,-40.27,-237.305,-697.266,797.363,18.45,-4.35,-37.35,16.96
17064,-3.96,4.31,-52.55,-72.754,-767.090,826.660,19.20,-4.35,-37.65,16.91
17074,-2.81,7.63,-28.95,-327.148,-324.707,1098.145,19.20,-4.35,-37.65,16.82
17084,3.53,4.96,-56.24,-490.723,-210.937,1999.939,18.45,-5.10,-38.10,16.77
17094,4.79,4.25,-29.50,-190.918,-389.648,1629.395,18.15,-6.45,-37.80,16.62
17104,6.89,1.44,-43.43,33.691,-918.457,1191.406,18.60,-6.45,-37.80,17.01
17116,3.11,-2.50,-54.40,1.465,-343.262,1354.492,19.95,-5.85,-38.85,16.82
17126,0.13,-7.21,-52.53,-192.383,-586.914,1517.578,19.95,-5.85,-38.85,16.82
17136,3.33,-7.93,-53.52,61.523,-269.043,1326.660,19.65,-6.45,-37.50,16.91
17146,7.94,-2.02,-28.31,73.242,-612.305,1528.320,19.35,-6.15,-39.00,16.96
17156,2.84,-2.79,-47.40,-35.156,-969.727,681.641,19.35,-6.15,-39.00,16.77
17166,-2.23,-3.00,-44.88,145.020,-813.477,569.824,20.70,-6.30,-37.35,16.77
17176,1.85,-8.09,-46.79,6.348,-221.191,1149.414,20.55,-6.90,-37.50,16.96
17188,3.47,-8.50,-44.54,4.883,-430.664,797.363,19.65,-9.75,-37.50,16.77
17198,-1.40,-3.88,-63.79,-112.305,-571.289,854.004,21.30,-6.45,-38.25,16.82
17208,1.43,-9.28,-47.52,12.695,-295.410,1108.398,21.30,-6.45,-38.25,16.96
17218,-2.85,-0.13,-43.44,-268.066,-112.793,820.312,21.30,-8.10,-38.55,17.01
17228,-0.42,3.53,-51.08,144.531,32.715,745.117,20.10,-7.65,-37.05,16.96
17238,-3.12,0.61,-43.27,-138.184,-332.520,742.187,20.55,-7.65,-37.05,16.77
17250,-3.91,-6.00,-43.51,-66.406,-413.086,703.613,21.30,-7.35,-36.75,16.77
17260,11.19,2.02,-46.50,-102.539,-715.820,707.520,21.30,-7.35,-36.75,16.82
17270,7.61,2.26,-55.53,-146.973,-721.680,998.535,19.95,-7.50,-37.35,16.96
17280,14.84,2.68,-45.34,-145.020,-1245.605,802.734,21.00,-8.25,-38.40,16.82
17290,4.12,-1.37,-45.79,-94.727,-652.832,744.141,21.00,-8.25,-38.40,17.01
17300,2.00,-4.24,-67.20,-63.965,-154.785,950.195,20.25,-9.15,-36.90,17.01
17310,2.32,-8.40,-50.95,-219.238,-135.742,1836.914,21.45,-9.45,-38.10,16.77
17323,5.67,-3.37,-50.74,-201.660,-537.109,1029.785,22.35,-10.50,-37.05,17.10
17333,2.48,-1.02,-52.76,-222.656,-241.211,620.605,22.35,-10.50,-37.05,17.10
17343,7.79,-0.98,-58.93,-240.234,-295.898,1251.953,20.70,-9.90,-37.35,16.91
17353,7.29,0.05,-34.47,-309.570,-187.012,1078.125,21.30,-8.10,-37.80,16.77
17368,-10.34,7.42,-54.53,-134.766,-135.742,942.383,21.30,-8.10,-37.80,16.91
17377,-5.53,4.31,-33.32,13.672,-110.352,471.191,21.45,-9.90,-37.35,16.82
17389,-7.34,7.31,-42.18,-209.961,-500.000,1166.016,21.90,-9.90,-38.10,16.96
17399,-2.26,0.60,-48.40,-260.742,-438.965,1475.098,24.15,-12.75,-37.65,16.96
17409,-1.71,-2.31,-47.04,-113.281,-362.305,1173.340,22.05,-10.05,-37.05,16.82
17419,-5.31,1.64,-48.47,-114.258,-250.000,1089.844,22.05,-10.05,-37.05,16.96
17429,0.62,-1.69,-45.47,19.531,-452.637,899.414,22.20,-9.45,-39.60,16.77
17439,-3.57,2.50,-40.97,-176.270,-473.145,1208.496,22.20,-9.90,-37.65,16.82
17449,1.56,1.27,-47.40,-97.656,-516.113,802.734,22.20,-9.90,-37.65,17.10
17461,2.32,-1.82,-63.66,-213.379,-136.719,1999.939,22.05,-12.15,-38.25,16.96
17471,5.21,1.79,-47.03,-265.625,-488.770,984.375,22.95,-10.65,-38.25,17.01
17481,3.02,6.05,-48.54,-191.406,-181.152,773.926,22.80,-12.15,-37.50,16.91
17491,1.08,2.50,-34.73,32.715,-369.141,212.402,22.80,-12.15,-37.50,16.96
17500,2.21,5.18,-49.06,-157.227,-203.125,1709.473,22.80,-12.15,-37.50,16.77
17510,9.96,5.53,-36.69,-3.906,142.578,1111.328,22.95,-13.50,-38.85,16.77
17519,16.02,11.27,-27.39,-38.086,-458.496,1493.164,23.40,-13.50,-39.90,17.01
17531,2.20,11.22,-37.21,188.477,-651.367,807.129,23.55,-13.20,-37.80,16.82
17541,2.75,8.95,-37.89,-89.844,-451.660,986.816,24.60,-12.75,-38.40,16.91
17551,-3.04,1.76,-57.22,-68.359,-919.434,1468.262,24.60,-12.75,-38.40,17.01
17561,-8.97,-5.05,-28.50,-22.949,-599.609,1214.355,24.00,-14.10,-37.80,16.96
17571,-8.88,-3.79,-37.02,35.645,-307.129,1451.172,24.00,-14.10,-37.80,16.72
17581,-7.32,2.50,-40.57,145.508,-237.305,193.848,23.40,-14.10,-37.80,16.77
17593,-2.70,-3.08,-40.20,-315.918,-115.723,706.055,23.55,-13.65,-39.00,16.82
17603,4.72,-1.87,-40.73,-293.457,-286.621,657.227,23.55,-14.10,-40.50,16.96
17613,2.27,-3.85,-38.84,-115.234,-502.441,1651.367,24.60,-13.05,-38.85,16.62
17623,7.79,-4.03,-37.44,153.809,-707.520,1275.879,23.40,-15.00,-39.60,16.91
17633,-3.85,5.07,-41.91,-201.660,-422.363,700.684,22.65,-13.80,-40.65,16.77
17643,-3.99,-2.95,-33.21,-77.148,-395.020,1169.434,24.15,-15.00,-38.85,16.77
17653,4.03,-0.27,-45.67,-429.199,-514.160,1111.328,24.15,-15.00,-38.85,16.58
17665,7.02,3.98,-46.39,47.363,-779.297,1051.758,24.90,-13.05,-39.60,16.72
17675,-0.87,2.37,-39.60,219.727,-305.664,1142.578,24.30,-14.40,-40.05,16.62
17685,-3.25,9.60,-39.89,-127.441,-729.004,1207.520,24.15,-14.25,-39.60,16.91
17695,-4.85,5.38,-40.73,-43.457,-609.863,703.125,24.15,-15.90,-38.85,16.62
17705,-5.18,3.88,-38.74,-339.844,-320.801,1300.293,24.15,-15.90,-38.85,16.91
17715,-1.27,-0.56,-43.17,-133.301,-150.391,1113.281,24.75,-15.60,-39.30,16.96
17725,-3.91,-1.79,-50.60,274.414,-431.152,1087.891,24.30,-14.10,-40.05,16.91
17737,-4.47,1.34,-35.80,84.473,-411.621,1171.387,24.30,-14.10,-40.05,17.01
