Time_ms,GyroX_degps,GyroY_degps,GyroZ_degps,AccelX_g,AccelY_g,AccelZ_g,MagX_uT,MagY_uT,MagZ_uT,Temp_C
1350,-0.03,1.84,-4.67,169.434,-62.988,1084.961,-22.65,-9.90,-31.65,17.82
1366,0.46,-0.57,-2.15,160.156,23.926,1215.820,-20.55,-10.50,-27.30,18.06
1376,0.66,-2.40,-0.55,205.566,-72.754,928.223,-17.25,-10.65,-25.95,17.97
1386,-0.20,1.71,-0.96,228.516,-74.219,1105.957,-18.45,-9.90,-27.15,17.87
1396,-1.73,1.08,-3.63,20.020,115.234,923.340,-18.45,-9.90,-27.15,18.16
1406,-0.15,0.02,-1.02,237.793,72.754,1063.965,-22.65,-9.15,-30.90,17.97
1416,-0.20,-0.73,-2.62,123.047,-66.406,932.617,-24.15,-9.90,-30.45,18.01
1426,-2.47,-1.50,-3.56,162.598,13.184,1166.992,-24.15,-9.90,-30.45,17.87
1438,-0.16,-1.09,-6.18,184.082,-159.180,1084.473,-18.75,-10.65,-25.65,17.82
1448,-1.11,-0.58,-0.85,121.094,3.906,1012.207,-18.45,-10.35,-25.65,17.63
1458,-3.71,1.32,-2.66,126.953,37.598,1029.785,-18.00,-9.45,-27.45,17.97
1468,0.11,2.50,-3.51,137.207,144.043,1018.066,-21.00,-9.15,-31.65,17.97
1477,1.72,0.53,0.16,240.723,-117.188,925.781,-21.00,-9.15,-31.65,18.01
1487,-1.37,-0.50,-4.73,162.109,-30.273,982.422,-23.25,-10.05,-29.85,18.01
1497,-2.42,-1.34,-2.70,96.191,15.625,1020.996,-19.65,-10.50,-26.55,17.68
1509,0.22,1.95,-5.95,175.293,30.762,1009.277,-18.00,-10.65,-25.65,17.97
1519,-1.73,0.00,-3.24,268.555,-4.395,945.801,-18.45,-9.45,-25.95,17.82
1529,-0.18,1.05,-6.42,89.844,-7.812,959.961,-20.85,-8.85,-29.85,18.06
1539,-0.86,-0.35,-3.73,248.535,-16.113,1081.055,-23.25,-8.55,-31.50,17.97
1549,-1.66,2.23,-4.68,131.348,97.168,1036.133,-23.55,-10.50,-30.30,18.16
1559,0.07,2.65,-5.94,256.836,-108.398,914.551,-23.55,-10.50,-30.30,17.97
1569,1.06,1.47,-4.33,46.387,22.461,981.445,-17.55,-11.10,-26.40,18.06
1581,-1.45,1.34,-4.00,196.777,-178.223,1057.129,-18.60,-8.55,-26.55,18.01
1591,-0.80,0.42,-8.41,89.844,-74.219,1243.652,-21.60,-8.85,-30.30,18.21
1601,0.10,1.71,-4.92,119.629,105.957,1009.277,-22.35,-8.55,-33.00,17.77
1611,-0.24,0.42,-9.23,222.656,-105.957,1050.781,-22.35,-8.55,-33.00,17.97
1621,-0.09,-0.56,-6.40,244.141,-37.598,1060.059,-19.35,-11.70,-26.55,18.01
1631,2.63,1.46,-7.63,182.129,-148.926,1004.883,-15.90,-9.30,-25.80,18.16
1641,2.44,-3.24,-10.44,113.770,-57.617,985.352,-15.90,-9.30,-25.80,18.06
1653,-0.35,-3.11,-10.56,223.145,-90.332,933.594,-23.55,-10.05,-29.10,17.97
1663,0.45,-5.68,-8.98,171.387,1.465,1102.051,-23.55,-10.05,-29.10,18.16
1673,0.85,-2.24,-10.26,286.621,5.371,1244.141,-17.85,-10.05,-26.10,18.01
1683,0.76,-1.18,-9.89,8.301,-42.969,1028.809,-17.85,-10.05,-25.80,17.82
1693,1.04,-4.71,-10.31,104.492,-42.480,951.172,-17.85,-10.05,-25.80,18.16
1703,-4.22,-3.49,-9.89,167.480,35.156,938.965,-23.70,-10.65,-29.40,17.87
1713,-0.02,-2.22,-9.37,149.902,-45.410,1199.219,-23.70,-10.65,-29.40,17.87
1725,-3.56,-0.17,-12.79,253.906,-12.207,1049.805,-16.65,-10.95,-25.80,18.06
1735,-0.69,-0.75,-9.87,129.395,75.195,898.926,-16.65,-10.95,-25.80,18.21
1745,0.29,-2.98,-14.11,172.852,108.887,780.273,-22.35,-8.55,-31.80,18.16
1755,6.63,-3.76,-9.71,294.922,13.184,751.465,-23.70,-10.65,-29.40,18.06
1765,7.21,-3.62,-4.38,274.902,-90.820,1074.219,-23.70,-10.65,-29.40,17.97
1775,0.22,1.64,-8.73,117.676,-118.652,882.812,-18.00,-9.90,-25.65,18.21
1787,2.06,-0.86,-7.49,8.301,-156.250,1014.160,-20.55,-8.55,-26.55,18.06
1797,0.92,-0.37,-6.08,212.402,-264.648,905.273,-22.65,-11.10,-31.20,18.40
1807,-6.73,1.90,-6.85,182.617,-197.266,686.035,-23.70,-11.55,-27.90,18.30
1817,-5.54,1.43,-9.12,97.656,-172.852,1175.781,-23.70,-11.55,-27.90,18.06
1827,-7.67,0.50,-10.71,209.961,111.816,1098.145,-17.40,-10.05,-26.10,18.06
1837,-7.38,4.49,-9.60,139.648,42.480,740.234,-21.60,-11.25,-30.75,18.21
1847,0.36,2.89,-7.98,110.352,-62.012,938.477,-23.25,-12.90,-31.05,18.21
1859,0.47,3.55,-9.84,275.391,-28.809,1139.160,-19.50,-13.05,-25.95,18.01
1881,0.92,0.66,-13.40,307.129,-223.145,1238.770,-20.10,-11.25,-28.80,18.21
1890,-4.20,-2.26,-14.13,224.121,-150.391,1027.344,-22.80,-9.75,-31.05,17.97
1900,-2.64,-1.14,-15.19,209.961,-251.953,1367.676,-22.80,-9.75,-31.05,18.21
1910,-1.93,-3.01,-12.14,233.398,-66.895,943.848,-18.45,-12.30,-25.20,18.35
1920,-2.93,-3.37,-15.96,356.934,-60.059,1081.543,-19.35,-10.95,-27.60,18.21
1930,-2.25,-2.12,-16.24,355.469,-34.668,720.215,-22.65,-9.45,-31.20,18.06
1942,-2.63,-4.64,-16.97,264.160,71.777,1111.816,-22.35,-12.90,-29.55,18.21
1952,3.14,-5.12,-15.18,184.082,-78.125,1105.469,-22.35,-12.90,-29.55,17.97
1962,3.54,0.55,-18.53,73.730,-171.387,1569.824,-18.60,-9.30,-28.80,18.01
1972,3.13,-0.53,-17.46,111.328,83.984,689.453,-24.15,-10.35,-31.20,18.35
1982,-1.38,-0.73,-18.42,-63.477,-71.289,1191.406,-23.70,-11.55,-30.15,18.16
1992,-2.07,2.84,-12.73,232.910,1.953,538.574,-19.20,-12.30,-26.70,18.06
2004,-0.56,-1.29,-15.48,52.734,-227.539,794.434,-22.80,-10.05,-26.70,18.21
2014,-0.40,-0.14,-15.43,176.758,-134.766,519.043,-21.60,-9.30,-28.80,18.16
2024,-0.21,-1.63,-14.12,104.980,-30.762,1179.688,-21.60,-9.30,-28.80,18.16
2034,3.49,-2.10,-12.98,138.672,119.629,943.359,-20.10,-8.10,-28.80,17.87
2044,-1.81,-3.47,-16.91,150.879,32.715,1100.098,-23.25,-9.75,-31.80,18.16
2054,-3.08,-0.66,-17.14,218.262,168.457,1042.480,-23.25,-9.75,-31.80,18.30
2064,-0.71,-0.15,-14.44,198.730,-133.301,858.398,-15.90,-8.55,-25.80,18.21
2076,-2.03,3.98,-18.14,46.875,-110.840,873.047,-15.90,-8.55,-25.80,18.21
2086,-1.18,-0.40,-20.58,-7.324,50.781,1084.961,-24.00,-11.25,-31.50,18.21
2096,2.06,4.45,-13.64,80.078,-83.984,1033.203,-18.45,-12.75,-25.95,18.16
2106,1.20,-0.70,-19.69,30.273,-199.219,710.937,-17.85,-8.10,-26.85,18.01
2116,-4.02,3.39,-15.27,131.836,-188.477,1671.875,-22.05,-8.85,-31.80,17.77
2126,-3.12,0.85,-19.70,249.023,56.152,867.676,-22.05,-8.85,-31.80,18.16
2136,-1.82,0.46,-18.07,442.871,-160.156,1105.957,-16.80,-9.45,-25.95,18.01
2149,0.80,1.31,-17.57,364.258,-73.730,708.008,-19.35,-7.65,-29.55,18.16
2159,1.85,-6.15,-14.19,135.254,-59.570,1023.926,-19.35,-7.65,-29.55,18.06
2169,3.82,-1.37,-19.43,70.801,20.508,1574.219,-18.15,-11.25,-26.10,18.21
2179,4.27,-1.90,-18.76,154.297,210.449,933.105,-16.65,-8.10,-26.85,18.30
2189,-0.37,-2.11,-17.46,493.164,-278.809,1075.195,-22.65,-6.75,-32.40,18.30
2199,3.33,-1.36,-17.71,233.887,-232.422,578.125,-20.10,-9.30,-27.30,17.87
2209,0.08,-3.57,-20.49,-77.148,20.996,1549.316,-20.10,-9.30,-27.30,18.21
2221,1.76,3.41,-12.73,188.477,-256.348,1089.844,-20.55,-6.45,-30.30,18.16
2231,-2.36,7.15,-15.64,-117.188,15.625,964.355,-20.85,-8.85,-30.75,17.87
2241,-7.10,9.91,-20.96,41.504,20.996,903.320,-17.55,-7.95,-25.20,18.21
2251,1.00,6.96,-18.01,331.055,56.152,687.012,-18.00,-7.05,-29.40,18.40
2260,-3.42,-4.11,-17.66,373.535,-537.598,894.043,-18.00,-7.05,-29.40,18.30
2270,1.63,-5.22,-19.47,377.930,-496.094,812.500,-18.60,-9.30,-26.10,18.30
2280,-4.09,-9.59,-22.40,402.832,35.156,787.598,-20.25,-5.10,-28.20,17.87
2292,6.26,-11.16,-21.33,166.504,-303.711,926.758,-20.25,-5.10,-28.20,18.21
2302,5.44,-17.73,-35.89,127.930,-228.516,909.668,-15.15,-7.35,-25.35,17.82
2312,2.44,-12.85,-21.17,320.801,-235.840,1407.715,-18.45,-5.55,-30.15,18.30
2322,-2.53,-6.15,-17.69,301.270,-203.125,1230.469,-21.90,-8.25,-29.40,18.30
2332,-4.91,-1.15,-20.75,120.605,-143.555,1092.773,-17.55,-8.70,-25.65,18.49
2342,-4.11,3.50,-16.18,-24.902,-56.152,1486.816,-17.55,-8.70,-25.65,18.21
2354,-2.58,9.37,-14.22,149.414,57.617,1175.293,-22.20,-6.75,-30.90,18.40
2364,-4.56,8.39,-13.72,201.172,-188.477,1026.855,-17.25,-8.25,-25.20,18.21
2374,-1.24,10.60,-17.97,-14.648,-73.730,1628.906,-17.85,-4.95,-28.05,18.30
2384,-1.05,7.27,-16.14,458.984,-23.437,1263.672,-22.05,-8.55,-29.85,18.01
2400,-0.98,8.76,-16.29,187.988,-189.941,1510.254,-18.00,-4.35,-27.45,18.16
2409,1.70,2.03,-21.50,186.035,-49.805,658.203,-22.05,-7.65,-29.55,18.06
2421,-2.10,-0.31,-20.66,67.383,-188.965,985.352,-22.05,-7.65,-29.55,18.21
2431,-0.90,-5.25,-21.76,316.895,-160.645,656.250,-19.95,-5.55,-29.40,18.30
2441,-7.05,-7.76,-27.47,-139.160,69.336,480.957,-21.90,-7.50,-30.90,18.40
2451,0.11,-3.55,-19.96,209.473,-239.746,750.977,-17.40,-7.35,-25.35,18.16
2461,0.74,-4.05,-26.20,-6.348,-301.270,1227.051,-18.90,-5.70,-29.55,17.97
2471,-1.11,-0.73,-26.46,-113.281,0.000,1068.359,-18.90,-5.70,-29.55,18.16
2481,5.48,-4.60,-24.30,316.895,-247.070,955.566,-16.65,-8.10,-26.10,18.16
2493,-1.02,0.57,-27.37,-61.523,-18.066,967.285,-18.90,-5.25,-30.75,18.35
2503,3.52,-0.91,-23.30,413.574,-237.305,967.285,-19.20,-8.70,-28.95,18.40
2513,-1.39,-1.58,-26.02,-52.734,-259.766,1050.293,-16.05,-6.75,-25.95,18.21
2523,1.26,1.81,-25.48,231.934,-126.953,1301.270,-16.05,-6.75,-25.95,18.40
2533,1.96,-0.55,-24.82,470.215,-4.395,1516.602,-18.45,-9.45,-27.90,18.30
2543,5.54,-3.77,-25.88,83.496,-75.195,701.660,-15.45,-5.25,-27.60,17.97
2553,6.71,-6.50,-26.52,-46.387,-59.570,1188.965,-15.45,-5.25,-27.60,18.06
2565,-0.65,-5.18,-22.50,87.402,-181.641,953.125,-18.00,-4.65,-30.45,18.01
2575,-0.96,-6.15,-18.30,29.297,-23.926,1199.707,-18.00,-4.65,-30.45,18.06
2585,0.41,-8.16,-19.88,364.746,-353.516,908.203,-19.95,-7.95,-30.90,18.21
2595,-3.05,-4.55,-18.92,620.117,-518.555,1284.668,-15.75,-9.45,-26.70,18.30
2605,-7.60,-3.00,-23.93,2.441,-20.996,1178.223,-15.75,-9.45,-26.70,18.16
2615,0.57,-1.75,-18.31,-310.547,-15.625,1201.172,-14.55,-8.25,-28.65,18.21
2625,11.06,3.64,-21.19,108.887,-220.215,1014.160,-14.55,-6.30,-27.15,18.16
2637,5.06,7.39,-31.13,-27.344,-156.250,718.262,-14.85,-8.70,-27.90,18.30
2647,4.28,8.50,-27.22,168.945,-622.559,1353.027,-14.85,-8.70,-27.90,18.06
2657,0.53,5.79,-27.01,209.961,-621.582,804.687,-18.75,-6.30,-30.45,18.16
2667,-10.12,6.30,-29.49,-104.004,-527.344,1394.043,-14.70,-5.70,-26.55,18.35
2677,-9.74,0.24,-26.37,-78.613,-274.414,818.359,-14.70,-5.70,-26.55,18.01
2687,-5.97,-1.20,-32.05,218.262,-468.750,836.914,-16.05,-7.05,-27.45,18.40
2699,-6.60,-1.87,-33.65,104.980,-291.992,1588.867,-15.15,-4.50,-27.30,18.06
2709,-2.40,-7.25,-26.93,367.187,-350.586,1218.262,-18.00,-6.75,-30.45,18.16
2719,-1.73,-2.32,-34.06,213.867,-370.605,1142.090,-14.85,-6.75,-26.40,18.35
2729,3.90,-4.47,-35.35,198.730,-717.773,1090.820,-14.85,-6.75,-26.40,18.06
2739,0.33,-4.87,-36.59,-14.648,-376.465,1039.551,-17.25,-8.70,-27.90,18.30
2749,-5.20,-1.65,-40.73,66.895,-540.527,1453.613,-14.10,-2.70,-28.20,18.30
2759,-5.02,-1.42,-33.77,83.008,-362.305,790.527,-18.75,-5.10,-29.40,18.30
2771,5.34,-1.62,-37.80,-250.000,-191.406,993.164,-14.85,-6.30,-25.65,18.30
2781,2.00,-1.10,-35.98,-210.449,-149.902,1415.039,-14.85,-6.30,-25.65,18.30
2791,4.00,-4.99,-34.66,218.262,-26.367,1088.379,-16.65,-7.35,-29.10,18.01
2801,5.89,4.49,-33.09,-125.000,129.395,1465.820,-14.40,-3.75,-28.80,18.49
2811,5.05,0.89,-33.85,60.059,-202.148,1230.957,-14.40,-3.75,-28.80,18.01
2821,3.17,3.18,-32.89,132.324,-72.266,884.766,-14.10,-5.85,-27.90,18.35
2831,2.69,-0.46,-34.50,20.996,-299.805,1196.289,-17.25,-5.10,-30.45,18.21
2843,3.34,2.15,-35.11,240.234,17.090,872.070,-14.55,-7.05,-28.65,18.54
2853,2.95,-1.94,-47.74,130.859,-228.027,967.773,-15.15,-2.85,-29.10,18.21
2863,3.60,0.79,-28.48,475.586,-587.891,963.379,-15.15,-2.85,-29.10,18.35
2873,-10.62,-2.69,-32.34,104.492,-155.762,931.152,-13.20,-4.95,-27.60,18.49
2883,-11.65,-5.05,-33.63,451.660,-656.250,1241.211,-16.05,-5.55,-30.15,18.21
2893,-14.93,-4.67,-28.93,-146.484,-421.387,744.629,-13.20,-6.15,-26.85,18.01
2903,-8.02,-5.49,-35.99,285.645,-274.902,946.777,-15.15,-3.30,-30.30,18.49
2920,-2.07,-6.38,-30.82,-256.348,-73.242,1025.391,-15.45,-3.75,-30.75,18.21
2929,-0.29,1.59,-34.54,239.258,-198.242,961.914,-14.10,-7.05,-27.45,18.35
2939,6.95,0.76,-31.34,98.633,-207.031,1488.281,-14.10,-7.05,-27.45,18.35
2949,14.53,-2.36,-35.47,-117.676,-316.406,1257.324,-16.20,-6.45,-29.10,18.21
2959,5.43,-10.98,-38.03,86.914,-118.652,1142.578,-13.20,-4.95,-27.30,18.01
2969,7.77,-9.14,-31.88,343.750,-720.215,1682.617,-16.05,-4.35,-30.45,17.87
2979,-8.02,2.07,-32.31,-206.543,-154.785,848.145,-11.85,-5.10,-26.40,18.21
2991,-9.36,-7.82,-36.34,-322.754,-260.254,905.273,-11.85,-5.10,-26.40,18.30
3001,1.66,-2.88,-39.95,228.027,13.672,448.730,-11.70,-4.05,-28.05,18.30
3011,0.82,-1.35,-36.48,236.816,-360.352,1281.738,-14.55,-3.15,-30.45,18.49
3021,1.33,3.24,-38.95,-261.230,-23.437,998.535,-14.40,-4.95,-28.05,18.30
3031,1.49,4.11,-37.40,14.160,-26.855,814.453,-11.70,-3.30,-28.35,18.35
3041,-1.73,6.25,-36.29,100.098,-208.008,955.078,-11.70,-3.30,-28.35,18.06
3051,-0.94,6.50,-35.86,-30.762,-198.242,819.336,-12.30,-2.70,-25.20,18.16
3063,-12.76,4.07,-34.78,-162.598,-313.477,778.809,-15.45,-1.65,-29.55,18.01
3073,-7.69,2.82,-39.66,-214.355,-204.590,955.566,-10.65,-4.65,-25.65,18.21
3083,4.00,-4.76,-35.50,529.785,-468.750,853.027,-13.80,-2.25,-29.70,18.49
3093,-0.71,-8.81,-35.40,253.418,-265.137,1480.957,-12.30,-5.10,-25.95,18.30
3103,-3.15,-4.55,-30.03,131.836,-50.293,1130.859,-12.75,-1.35,-29.55,18.21
3113,-1.51,-0.06,-44.85,-166.016,-178.711,1027.344,-11.40,-5.55,-25.95,18.16
3123,14.34,-6.34,-35.15,559.082,-636.719,137.695,-11.40,-5.55,-25.95,18.21
3135,1.64,-5.07,-30.41,-66.895,-293.945,932.129,-13.05,-5.55,-28.95,18.30
3145,3.26,-1.47,-39.32,69.824,-5.859,699.219,-12.30,-2.70,-29.70,18.06
3155,2.56,-3.69,-30.95,524.902,-121.094,583.008,-13.05,-5.10,-30.45,18.16
3165,-5.06,3.74,-32.59,-13.184,-232.910,1095.703,-11.10,-1.95,-28.20,18.35
3175,-17.14,8.49,-36.10,113.770,-445.801,308.105,-11.10,-1.95,-28.20,18.16
3185,-6.69,1.60,-29.55,-64.453,-425.781,687.988,-10.50,-1.65,-28.35,18.16
3195,-4.79,2.34,-32.77,-40.527,-87.891,1358.887,-13.35,-3.45,-31.65,18.35
3207,-3.56,-0.10,-38.02,10.742,-425.293,1533.203,-12.00,-1.35,-30.75,18.49
3217,-4.84,8.66,-34.31,-501.465,-25.879,1633.789,-9.60,-2.70,-28.95,18.49
3227,0.13,5.60,-37.80,-34.180,-392.090,943.848,-10.95,-0.15,-31.80,18.16
3237,3.32,1.34,-37.30,58.594,-586.914,519.043,-9.15,-3.15,-28.95,18.16
3247,-5.34,-6.70,-43.08,-61.035,-454.102,840.820,-9.15,-3.15,-28.95,18.30
3257,-4.21,-5.53,-41.56,137.207,-54.688,1450.684,-8.25,-2.55,-28.35,18.40
3269,6.83,-11.73,-37.83,687.988,-808.105,418.945,-11.10,-1.05,-31.20,18.35
3279,4.31,-11.33,-35.73,236.328,-397.949,1000.000,-9.00,-3.30,-27.30,18.49
3289,4.77,-3.63,-38.43,-15.625,-357.422,1933.594,-10.50,0.15,-31.05,18.35
3299,6.64,-1.97,-39.15,-322.754,-392.090,913.086,-10.50,0.15,-31.05,18.30
3309,-1.94,0.32,-42.89,60.547,-323.242,331.543,-10.35,-0.30,-31.20,18.16
3319,-4.20,5.85,-41.81,-216.797,-375.488,402.344,-9.00,-3.30,-28.35,18.01
3329,-4.31,2.57,-35.77,-20.020,-342.285,887.695,-10.65,0.00,-31.65,18.54
3341,1.59,-1.34,-43.33,406.738,-489.258,1206.055,-8.70,-2.70,-28.65,18.21
3351,3.33,-2.23,-43.74,434.082,-391.602,774.414,-8.70,-2.70,-28.65,18.21
3361,6.47,-3.58,-34.53,42.969,-260.742,889.160,-7.80,-3.30,-28.80,18.49
3371,12.66,-0.64,-33.18,475.098,-418.945,968.750,-10.05,0.15,-31.05,18.40
3381,21.52,-3.50,-39.05,799.316,-499.023,1312.988,-10.05,0.15,-31.05,18.30
3391,19.89,2.53,-35.64,422.363,-545.898,1392.578,-8.40,1.05,-30.15,18.35
3400,0.67,6.34,-44.95,-299.805,-417.480,336.914,-7.95,-2.25,-28.20,18.35
3412,-4.24,0.36,-44.18,-99.609,-478.027,1197.754,-9.30,-0.45,-30.75,18.30
3422,-6.28,-4.78,-40.90,-186.523,-254.883,1443.359,-7.35,-2.55,-27.30,18.40
3437,-10.36,-5.54,-40.35,-291.992,130.859,1651.367,-7.35,-2.55,-27.30,18.35
3446,-5.51,-8.37,-37.48,67.871,-444.336,1984.863,-7.35,-2.85,-28.05,18.30
3456,-7.55,-4.82,-41.16,275.391,-38.086,1410.645,-9.30,0.15,-30.30,18.16
3466,-6.53,-1.98,-40.85,453.613,-132.812,1687.012,-7.95,-3.15,-27.90,18.35
3476,-6.44,1.15,-46.18,48.340,-227.539,1351.074,-9.90,-0.75,-31.20,18.30
3486,5.78,1.19,-36.57,226.562,-497.070,682.129,-9.90,-0.75,-31.20,18.40
3498,2.90,5.61,-39.80,111.816,-348.633,1299.316,-7.35,-2.10,-27.30,18.30
3508,-6.56,2.99,-44.27,-358.887,-162.109,1447.754,-7.35,-2.10,-27.30,18.40
3518,1.35,5.02,-46.91,53.223,-369.629,1532.715,-6.15,-0.30,-29.70,18.21
3528,-9.55,7.18,-40.52,187.988,-543.457,1812.988,-7.35,0.15,-33.00,18.30
3538,-5.69,7.54,-38.95,214.355,-597.656,1650.391,-5.70,-0.30,-30.15,18.21
3548,2.05,8.47,-45.05,120.605,-452.637,895.020,-8.25,-0.45,-34.50,18.49
3558,8.35,0.37,-38.09,156.250,-335.937,1034.180,-8.25,-0.45,-34.50,18.40
3570,8.63,-2.11,-37.30,113.770,-153.809,1252.930,-7.05,-2.55,-31.80,18.35
3580,12.48,-2.05,-46.19,775.391,-424.805,910.156,-6.15,1.50,-32.40,18.21
3590,0.03,-5.08,-35.98,50.293,-559.570,893.066,-4.50,-3.15,-29.70,18.35
3600,-2.95,-9.48,-40.08,77.637,-220.703,1241.699,-5.55,2.10,-31.80,18.30
3610,-2.92,-5.31,-37.01,119.141,-118.164,693.848,-5.55,2.10,-31.80,18.35
3620,-12.71,-8.26,-33.85,-207.031,-314.453,1177.246,-4.95,1.50,-30.90,18.30
3632,-2.00,-6.67,-36.42,-100.098,93.262,1027.832,-4.50,-2.25,-30.90,18.16
3642,0.53,-4.29,-37.27,-154.297,-80.078,1049.805,-4.50,-2.25,-30.90,18.21
3652,1.60,-2.95,-32.56,199.707,-423.340,1471.191,-3.45,-1.05,-30.15,18.35
3662,-2.95,1.93,-26.63,316.406,-357.422,651.367,-6.60,-0.15,-32.55,18.40
3672,-2.53,-3.08,-33.54,46.875,-371.582,1399.414,-3.60,0.45,-31.05,18.40
3682,-11.38,3.79,-31.29,156.250,-287.598,817.383,-5.70,0.00,-34.20,18.59
3692,-5.36,-3.71,-29.40,-86.426,-600.586,1056.641,-5.70,0.00,-34.20,18.21
3704,-7.52,-5.59,-29.41,80.078,-246.582,806.152,-3.15,-1.35,-34.50,18.49
3714,3.12,-9.33,-32.73,25.391,-247.070,600.098,-3.00,1.95,-34.65,18.16
3724,-6.07,-7.48,-34.25,227.051,0.488,1233.887,-1.05,-1.50,-31.95,18.35
3734,8.55,-4.18,-30.52,783.203,-220.703,978.516,-1.80,0.75,-32.40,18.35
3744,2.38,-4.72,-28.73,-16.602,-29.785,981.445,-1.80,0.75,-32.40,18.49
3754,9.11,-0.66,-33.40,421.875,-247.559,1062.988,-2.40,-0.45,-30.75,18.35
3764,5.77,-2.08,-24.36,-131.836,18.555,548.828,-1.65,0.45,-28.80,18.40
3776,8.41,2.95,-28.73,-134.766,-375.977,451.660,-1.65,0.45,-28.80,18.30
3786,7.02,3.07,-30.45,183.594,-680.664,841.309,-2.10,1.65,-30.30,18.49
3796,-17.46,9.07,-33.27,93.262,-217.773,651.855,-0.90,-0.90,-30.30,18.16
3806,-10.37,4.63,-27.29,-70.801,-311.035,1297.363,-1.50,1.05,-30.90,18.40
3816,-7.45,7.99,-28.73,123.535,-517.578,834.473,-0.90,-0.45,-28.80,18.54
3826,2.10,6.50,-27.22,295.898,-561.523,1014.160,-0.90,-0.45,-28.80,18.49
3836,-3.67,2.67,-33.37,107.422,-458.008,1341.797,-1.20,0.15,-28.80,18.49
3848,3.65,4.43,-36.51,290.527,-210.449,630.859,-1.80,-0.75,-31.65,18.59
3858,13.94,4.60,-27.69,398.437,-213.379,1281.250,-0.75,-0.30,-30.15,18.21
3868,1.11,5.55,-49.69,-170.898,-75.684,624.512,-1.50,-0.75,-30.45,18.40
3878,1.75,6.73,-17.88,306.152,-745.117,248.535,-1.50,-0.75,-30.45,18.21
3888,-11.40,6.20,-31.49,-114.258,-727.539,1570.313,-0.45,-2.10,-31.05,18.35
3898,-26.73,-0.66,-37.15,-73.730,-74.707,898.437,-2.25,1.05,-31.95,18.30
3908,-24.47,-0.53,-34.47,306.641,-103.516,609.375,-2.25,1.05,-31.95,18.40
3920,-12.93,-2.06,-35.54,-209.961,-328.125,1372.559,0.15,1.35,-30.30,18.35
3930,-0.70,-2.12,-31.31,-74.707,-432.617,1541.504,-0.15,-0.45,-31.05,18.35
3940,-9.31,-0.71,-34.08,-337.891,-192.383,1561.523,0.45,0.45,-31.05,18.40
3954,5.01,9.22,-35.02,-474.609,-345.703,294.434,0.45,0.45,-31.05,18.54
3964,9.11,3.43,-35.59,-69.336,-187.500,861.328,0.75,1.50,-31.65,18.40
3974,1.55,8.37,-33.29,-444.336,-576.172,1108.887,1.05,2.70,-31.95,18.35
3983,-20.13,5.24,-33.46,-136.230,-712.891,912.598,0.90,0.90,-31.05,18.40
3995,-32.27,-1.32,-35.19,356.934,-132.812,1944.824,1.80,1.50,-31.20,18.35
4005,-27.92,-5.33,-19.81,-381.348,-236.328,323.242,1.80,1.50,-31.20,18.40
4015,-15.94,-5.36,-37.27,-260.742,87.402,1506.836,1.50,1.50,-31.95,18.16
4025,22.50,-13.82,-44.70,103.027,-358.887,1312.500,1.80,0.00,-31.65,18.35
4034,23.62,-9.50,-39.09,116.699,-988.770,1455.566,1.80,0.00,-31.65,18.49
4044,25.47,-24.40,-27.59,192.871,-168.457,1527.344,1.20,0.45,-32.25,18.40
4053,5.53,-19.74,-34.56,-801.270,-149.414,1999.939,2.25,1.05,-32.40,18.21
4065,16.69,-22.21,-34.48,118.164,-747.559,813.965,1.65,2.10,-32.25,18.35
4075,-8.36,-20.08,-29.98,-436.523,-600.098,1018.066,1.20,1.65,-32.25,18.16
4085,-7.95,-17.34,-34.27,-238.770,-648.926,109.375,1.20,1.65,-32.25,18.49
4095,-2.48,-20.44,-28.71,38.086,-363.770,666.992,1.20,0.45,-31.50,18.35
4105,-1.07,-22.48,-33.48,377.930,-500.000,630.859,2.25,0.75,-31.20,18.35
4115,12.43,-29.46,-41.48,-157.715,92.773,1089.355,1.05,0.75,-31.95,18.49
4124,-7.14,-13.38,-39.53,-129.395,-709.961,-160.645,0.00,0.30,-32.70,18.21
4136,-14.63,-20.16,-33.50,32.227,-324.219,1379.395,0.00,0.30,-32.70,18.21
4146,-6.68,-20.25,-39.82,-6.348,-804.199,1086.426,0.90,-0.15,-31.80,18.16
4156,-6.49,-15.35,-32.61,113.281,-545.410,535.645,0.45,0.15,-33.00,18.35
4166,-5.88,-18.86,-43.41,-115.234,-579.102,768.555,0.45,0.15,-33.00,18.54
4176,-9.31,-14.50,-38.54,-17.090,-568.359,778.320,1.50,0.30,-33.15,18.35
4186,-13.29,-12.08,-37.15,-18.066,-187.500,861.328,0.45,-0.15,-31.50,18.49
4196,-8.99,-4.66,-34.47,-481.934,-427.246,803.223,2.85,0.45,-32.55,18.40
4208,0.13,4.43,-43.56,-535.645,-227.539,1308.594,0.90,0.15,-32.55,18.30
4218,-6.80,15.94,-49.95,-473.633,-555.664,1760.254,0.90,0.15,-32.55,18.35
4228,-1.05,23.84,-39.51,-331.543,-502.441,1163.574,1.65,0.45,-34.05,18.21
4238,18.44,27.20,-38.05,-482.422,71.289,343.262,0.45,0.15,-33.30,18.49
4247,17.74,21.24,-33.15,248.047,-448.242,672.363,2.40,0.90,-33.00,18.40
4257,12.24,23.67,-29.97,-112.793,-705.078,1895.508,2.25,1.05,-32.70,18.40
4266,-6.66,12.52,-52.40,21.973,-796.387,1089.844,2.25,1.05,-32.70,18.21
4277,-15.05,12.56,-44.77,-384.277,-536.133,1390.137,2.85,-0.15,-34.05,18.30
4287,-9.84,3.02,-39.39,-286.621,-794.922,944.336,3.60,1.35,-34.50,18.40
4297,3.45,3.92,-43.39,-309.082,-333.008,971.191,2.85,-0.15,-33.75,18.35
4307,10.11,-1.01,-41.08,101.074,-179.687,988.770,2.55,0.75,-33.45,18.54
4316,15.16,-9.74,-40.72,21.973,-561.523,1179.688,3.60,1.65,-33.75,18.35
4326,-7.81,-1.53,-44.23,-14.648,-269.043,740.234,3.45,1.05,-33.15,18.21
4338,6.93,-2.28,-37.16,162.109,-299.805,659.180,4.35,0.15,-34.05,18.21
4348,-5.35,3.27,-28.85,12.695,-265.137,1097.656,4.35,0.15,-34.05,18.21
4358,3.47,7.66,-36.02,-505.371,-90.820,811.035,4.35,0.90,-33.75,18.49
4367,6.00,-0.74,-32.89,242.676,-631.836,382.324,5.25,0.30,-33.90,18.49
4377,-8.56,5.99,-35.80,-223.145,-467.285,727.539,4.35,0.15,-33.75,18.35
4387,-5.23,2.82,-39.77,-220.215,-428.711,1088.867,5.25,1.50,-33.90,18.16
4397,-10.08,11.87,-31.60,-87.891,-6.348,719.727,5.25,1.50,-33.90,18.49
4407,-1.40,8.42,-37.22,-411.621,-436.035,858.398,5.70,0.75,-33.45,18.40
4419,3.20,1.37,-38.62,-86.914,-445.801,1051.270,4.35,0.15,-33.00,18.40
4429,4.47,-2.21,-31.92,-194.824,-339.355,844.727,4.95,1.05,-34.20,18.40
4439,7.60,2.31,-33.76,-9.277,-656.250,689.941,5.10,0.45,-35.25,18.54
4449,8.63,-1.63,-41.93,102.539,-870.605,825.684,6.60,1.65,-34.50,18.30
4463,4.93,-0.82,-38.51,-200.684,-372.070,728.516,7.05,0.90,-34.05,18.35
4473,-0.22,-2.52,-39.66,-73.730,-183.594,805.664,7.05,0.90,-34.05,18.54
4485,-0.69,1.43,-34.75,-29.297,-799.805,920.410,7.20,-0.30,-34.95,18.16
4495,-0.21,0.29,-40.66,-244.141,-707.031,501.465,7.80,0.90,-34.50,18.35
4505,-5.97,-2.27,-38.20,-203.613,-452.637,1162.598,5.70,0.30,-33.45,18.30
4515,-8.61,2.46,-41.33,-237.793,-48.828,1023.926,6.15,-0.30,-34.20,18.49
4525,-1.68,1.75,-42.40,-125.977,-308.594,798.828,6.15,-0.30,-34.20,18.49
4535,3.22,2.63,-42.01,-82.520,-306.641,797.363,7.95,0.75,-34.95,18.35
4544,6.75,1.25,-35.21,-41.504,-523.926,1141.113,7.65,-0.30,-34.65,18.54
4556,-7.82,5.12,-42.56,-425.293,-189.941,872.559,8.40,0.75,-33.90,18.40
4566,1.38,0.92,-77.84,-301.270,-157.715,811.523,7.20,0.00,-33.90,18.40
4576,3.07,2.40,-28.88,-67.871,-540.039,831.055,7.20,0.00,-33.90,18.49
4585,-1.12,0.66,-44.41,-271.484,-238.281,1033.203,7.65,0.30,-34.20,18.49
4595,-5.85,-0.85,-41.43,-126.465,-80.078,779.785,9.15,0.75,-34.20,17.87
4605,8.34,1.44,-47.48,-126.465,-206.055,1042.480,9.15,0.75,-34.20,18.16
4615,6.06,0.01,-38.76,-333.008,-335.937,1099.609,8.25,0.45,-34.50,18.49
4627,0.65,0.75,-42.08,-4.395,-437.500,1081.543,9.00,-0.15,-34.05,18.49
4637,2.66,1.46,-38.34,0.000,-582.031,691.895,10.05,-0.90,-34.50,18.49
4647,1.71,-2.53,-41.94,200.195,-612.305,915.039,9.90,0.00,-34.65,18.49
4656,-7.36,2.49,-45.76,-125.000,-279.297,1102.539,9.90,0.00,-34.65,18.54
4666,-8.74,1.12,-32.65,-453.125,-6.836,1368.164,10.95,0.45,-34.80,18.06
4676,3.79,-0.30,-34.82,-55.176,-323.730,1115.723,10.35,-1.05,-35.40,18.49
4686,-4.37,1.14,-35.03,-372.070,-278.320,797.852,10.35,0.00,-33.45,18.49
4698,1.43,-0.03,-34.39,96.191,-391.602,1283.203,9.75,-0.15,-33.75,18.35
4708,6.46,1.21,-33.99,-228.027,-479.980,1131.348,9.75,-0.15,-33.75,18.54
4718,4.47,-0.41,-37.92,-580.078,-321.777,1079.102,10.05,-2.10,-34.80,18.40
4728,5.64,1.08,-35.71,-308.105,-182.617,1330.566,10.05,0.45,-34.50,18.30
4738,3.76,-3.60,-41.09,-259.277,-881.836,994.629,10.05,0.45,-34.50,18.35
4748,-4.89,-3.92,-42.47,-56.641,-605.957,1503.906,11.25,-0.15,-34.05,18.21
4758,-6.39,-2.01,-37.88,-117.676,-381.348,1391.113,10.65,0.30,-33.45,18.54
4770,-6.34,-3.82,-36.43,-239.258,147.949,1327.637,11.70,0.45,-33.75,18.21
4780,5.71,-6.79,-44.93,-332.031,55.176,1205.078,11.25,-0.90,-34.80,18.59
4790,2.48,-2.18,-39.25,-190.918,-199.219,977.539,11.25,-0.90,-34.80,18.49
4800,-3.76,-3.94,-51.24,101.563,-931.152,1287.109,12.00,-2.10,-33.30,18.59
4810,2.23,-7.77,-48.58,-191.406,-166.016,1996.582,12.45,-0.45,-35.25,18.35
4820,3.58,-1.66,-36.97,98.145,-594.727,1077.148,13.20,-1.65,-34.50,18.35
4830,-3.33,-5.34,-43.75,-212.402,-140.137,334.473,12.45,-0.45,-34.50,18.49
4842,1.38,2.37,-47.56,-296.875,-545.410,807.129,11.70,-0.15,-34.80,18.49
4852,-0.27,-1.45,-39.52,-167.480,-516.602,922.852,13.20,-2.55,-34.50,18.16
4862,-0.95,-0.37,-45.69,86.426,-611.328,712.402,13.20,-2.55,-34.50,18.49
4872,-1.07,-2.44,-37.53,32.227,-603.027,582.031,13.80,-1.05,-34.20,18.40
4882,-6.71,-5.46,-47.89,-174.316,-887.207,790.039,12.45,-1.35,-33.75,18.35
4892,4.30,0.00,-42.12,-186.523,-491.699,735.352,14.10,-1.50,-34.20,18.54
4902,8.37,-0.66,-44.20,44.922,-603.027,1124.512,12.45,-2.10,-34.50,18.35
4914,-7.51,-0.46,-44.22,-93.262,-219.238,905.273,12.45,-2.10,-34.50,18.59
4924,-4.21,2.03,-51.59,20.508,-750.000,847.168,13.50,-1.65,-35.25,18.54
4934,-6.50,0.44,-38.64,156.738,-667.480,1202.637,13.50,-2.85,-36.00,18.40
4944,-0.62,-3.04,-41.73,-132.324,-377.441,1001.953,14.10,-2.25,-34.65,18.40
4954,6.67,-0.60,-39.34,134.766,-662.109,797.852,13.50,-1.65,-33.75,18.49
4964,10.19,5.53,-44.98,202.637,-783.691,509.766,13.50,-1.65,-33.75,18.54
4981,-1.03,2.02,-41.96,-459.473,-453.125,934.570,14.85,-3.45,-35.70,18.49
4990,-1.05,6.13,-46.17,-574.219,-443.359,1572.754,14.55,-1.95,-35.40,18.35
5000,6.46,5.56,-44.29,479.980,-691.895,653.809,14.70,-4.05,-33.30,18.30
5009,-8.50,3.39,-37.13,-484.863,-150.879,1360.840,14.70,-2.10,-34.80,18.59
5019,-7.96,0.80,-38.10,-273.926,-535.645,1310.547,15.45,-4.05,-33.00,18.49
5029,-5.18,0.27,-48.11,4.395,-575.195,522.461,14.70,-2.55,-35.55,18.35
5039,-11.24,7.61,-44.18,-514.160,-83.496,1529.297,16.65,-5.25,-34.80,18.49
5051,1.24,9.38,-44.58,-254.883,-8.301,1664.063,16.65,-5.25,-34.80,18.35
5061,3.86,5.79,-46.74,199.707,-277.832,758.789,16.05,-3.90,-34.65,18.54
5071,0.76,6.70,-52.56,-0.488,-553.223,270.508,16.05,-3.90,-34.65,18.21
5081,0.92,8.91,-48.88,-179.687,-538.574,1008.789,17.40,-4.05,-34.05,18.49
5091,4.74,-2.19,-64.91,-377.930,-325.684,1034.180,16.05,-5.10,-36.15,18.35
5101,3.10,-4.69,-59.67,215.820,-736.328,422.363,16.05,-5.10,-36.15,18.40
5111,4.28,-9.94,-57.80,192.383,-460.937,746.582,17.55,-6.30,-34.95,18.49
5123,0.43,-11.77,-63.50,208.496,-631.836,809.082,16.20,-6.90,-33.75,18.49
5133,-1.04,-16.78,-49.79,-229.980,-590.332,1004.883,16.65,-4.50,-36.30,18.49
5143,-0.80,-7.67,-48.94,-215.820,-567.383,453.125,16.65,-4.50,-36.30,18.40
5153,-8.06,-7.19,-46.40,-242.676,-611.816,1268.066,17.55,-5.10,-34.95,18.35
5163,3.30,-8.81,-57.95,-204.590,-386.230,977.539,18.15,-6.45,-34.80,18.54
5173,-1.79,3.64,-43.08,-186.035,-425.781,1422.363,18.15,-6.45,-34.80,18.54
5183,-0.69,6.65,-42.58,-240.234,-460.449,1286.621,20.10,-4.05,-34.50,18.54
5195,-2.31,7.57,-41.25,-62.988,-342.285,836.426,17.85,-5.25,-36.30,18.49
5205,-4.83,8.22,-36.13,-263.672,-386.719,1376.465,19.95,-5.55,-34.65,18.35
5215,3.54,13.32,-33.78,-228.027,-287.109,1376.465,18.00,-6.30,-36.60,18.59
5225,-0.38,11.44,-36.82,-1.465,-177.246,1103.027,18.00,-6.30,-36.60,18.54
5235,2.37,9.36,-41.59,-25.879,-225.098,830.078,18.75,-6.75,-36.15,18.35
5245,5.09,7.16,-42.08,-201.172,-515.625,931.641,20.25,-6.75,-35.40,18.49
5255,-3.15,4.03,-40.41,-56.152,-943.848,1348.633,18.75,-6.30,-36.15,18.40
5267,-6.09,-2.37,-42.21,-6.836,-281.250,1565.918,19.35,-7.65,-35.25,18.54
5277,-1.49,0.52,-46.52,-35.645,-395.020,866.211,19.35,-7.65,-35.25,18.54
5287,1.02,-5.61,-48.21,-174.805,-457.031,1119.629,19.35,-6.45,-34.80,18.35
5297,1.98,-6.50,-50.53,-421.875,-264.648,873.047,18.90,-7.65,-37.50,18.35
5307,0.89,-3.95,-47.98,-218.262,-207.031,807.129,18.90,-7.65,-37.50,18.54
5317,3.74,-1.86,-49.92,-258.789,-468.750,710.449,18.45,-7.95,-36.90,18.21
5327,-0.35,-5.01,-44.21,135.254,-645.996,1116.211,19.65,-6.90,-37.05,18.49
5339,5.60,-0.32,-44.89,-424.316,-510.254,851.074,18.15,-8.10,-36.75,18.30
5349,1.34,0.64,-40.67,158.203,-639.648,615.234,20.55,-8.85,-37.50,18.73
5358,-0.62,-1.19,-39.03,-168.945,-120.117,1326.172,20.55,-8.85,-37.50,18.49
5368,-8.92,-3.56,-43.96,-195.312,-7.812,925.781,20.55,-7.35,-36.75,18.35
5378,-13.94,-3.76,-35.13,-307.617,261.719,1266.602,19.20,-9.45,-36.90,18.59
5388,-3.69,-3.67,-42.50,-79.102,173.340,1015.137,21.00,-8.25,-35.70,18.21
5400,-1.56,-2.56,-44.53,27.832,-195.801,913.574,20.25,-9.45,-36.60,18.49
5410,1.96,-4.48,-44.67,-347.168,-392.090,687.012,20.25,-9.45,-36.60,18.49
5420,-0.87,-5.68,-46.61,-351.074,-563.965,1208.496,20.55,-10.50,-34.50,18.40
5430,1.14,-7.02,-39.70,8.789,-614.746,1233.887,20.70,-9.15,-36.90,18.35
5440,1.15,-5.15,-35.54,152.344,-645.020,1576.172,20.70,-9.15,-36.90,18.59
5450,0.15,-1.68,-38.38,167.480,-487.793,860.352,20.55,-8.10,-36.00,18.73
5460,-1.36,-5.71,-38.50,-216.309,-484.375,1040.527,20.85,-12.15,-35.55,18.68
5472,-4.09,-3.08,-37.57,69.824,-353.516,1083.008,22.20,-9.30,-36.75,18.54
5482,2.16,-1.95,-40.08,-361.816,-370.605,844.238,22.20,-11.10,-34.65,18.49
5497,-1.04,-2.28,-40.72,73.730,-436.035,1734.863,21.00,-10.65,-34.65,18.49
5506,2.52,-2.83,-35.85,-26.367,-486.816,1146.973,20.25,-10.35,-36.90,18.54
5516,2.77,0.78,-38.37,47.852,-267.578,949.707,21.90,-9.45,-35.70,18.54
5525,10.69,-2.50,-36.88,214.844,-462.402,1099.121,20.25,-11.85,-38.85,18.21
5535,8.05,2.99,-38.90,386.719,-548.828,858.887,20.25,-11.85,-38.85,18.30
5544,5.66,0.95,-35.17,249.512,-51.758,1574.219,21.60,-10.05,-37.05,18.68
5556,13.69,1.94,-37.92,125.000,-574.219,1040.527,22.35,-8.85,-36.00,18.54
5566,6.11,0.73,-42.24,81.055,-285.645,1197.266,22.35,-8.85,-36.00,18.49
5575,4.47,-1.90,-39.24,72.266,-239.258,1291.992,21.45,-10.65,-35.70,18.49
5585,6.32,0.84,-28.86,26.367,-585.937,695.801,20.85,-12.15,-34.80,18.30
5594,4.95,-4.76,-36.56,488.281,-728.516,963.867,21.60,-10.05,-36.75,18.21
5604,-3.71,5.05,-31.56,455.078,-362.793,605.957,22.20,-12.75,-36.60,18.40
5614,-6.80,1.47,-40.11,279.297,-522.461,1025.879,22.20,-12.75,-36.60,18.35
5626,-1.44,1.70,-35.23,-70.313,-219.727,1280.762,22.65,-12.75,-35.70,18.73
5636,-4.60,4.26,-33.21,105.469,-453.613,1045.410,20.55,-11.70,-37.05,18.49
5646,-1.07,0.92,-31.15,59.570,-172.363,1251.953,22.80,-12.90,-36.00,18.54
5656,-1.72,9.46,-36.21,-51.758,-402.832,1078.125,21.45,-12.30,-37.65,18.40
5666,0.09,6.31,-37.77,42.969,-390.137,1109.375,21.45,-12.30,-37.65,18.54
5676,-4.48,9.80,-32.00,-277.344,-280.762,1309.082,22.05,-13.20,-38.25,18.35
5688,-9.31,8.01,-39.12,6.348,-26.855,1026.367,22.20,-11.85,-36.15,18.54
5698,-1.86,11.18,-36.63,198.242,-208.008,1021.484,22.20,-11.85,-36.15,18.49
5708,-7.58,7.69,-39.26,17.578,198.242,909.180,22.20,-9.90,-37.35,18.59
5717,1.53,6.50,-29.81,-115.723,-798.340,1999.939,23.25,-14.10,-36.30,18.49
5727,1.25,6.34,-33.30,473.633,-267.578,1024.902,22.65,-11.85,-38.40,18.21
5737,-10.34,4.31,-44.91,-42.969,26.855,1994.141,24.00,-13.65,-36.00,18.59
5747,0.11,2.49,-28.63,280.762,238.281,875.488,24.00,-13.65,-36.00,18.68
5759,-1.10,0.27,-22.44,309.570,-103.516,1249.512,23.70,-13.80,-35.70,18.40
5769,-5.54,5.49,-40.51,-219.238,-213.867,1271.973,22.35,-16.05,-37.80,18.54
5779,6.62,6.43,-30.41,457.520,-504.883,552.246,24.60,-12.75,-37.65,18.68
5788,-1.13,3.60,-38.61,-34.668,-234.375,1311.035,22.95,-16.20,-38.40,18.54
5798,6.79,2.06,-30.73,568.359,-631.348,554.687,22.95,-16.20,-38.40,18.35
5808,-4.95,1.78,-27.00,116.211,-416.016,758.301,23.70,-16.65,-37.35,18.54
5818,-5.82,-2.82,-35.88,75.195,-528.809,1245.605,22.80,-14.10,-38.55,18.49
5830,-5.14,-2.81,-34.24,112.305,-490.234,499.512,22.80,-14.10,-38.55,18.49
5840,1.74,-6.53,-37.39,-156.250,-363.281,1963.867,24.00,-17.70,-36.75,18.40
5850,2.34,-5.38,-34.26,-120.605,-563.965,856.445,24.75,-14.40,-36.75,18.35
5860,2.51,-4.43,-30.67,-6.348,-378.906,1485.840,23.70,-17.10,-36.90,18.68
5870,-5.02,-1.88,-33.82,-253.418,-154.785,844.238,23.40,-13.80,-39.15,18.21
5880,6.45,-1.85,-34.05,488.281,-737.305,466.797,23.40,-13.80,-39.15,18.49
5890,-8.89,3.27,-31.51,7.812,-271.973,950.195,22.20,-17.10,-38.85,18.30
5904,-10.82,-3.66,-40.75,-78.125,-281.738,835.937,24.75,-15.60,-37.05,18.21
5913,-2.96,-2.41,-37.88,183.105,-399.414,887.207,22.80,-16.80,-38.25,18.30
5923,-6.53,4.35,-31.21,-281.738,-77.148,1333.984,25.05,-14.40,-36.75,18.35
5933,0.64,4.90,-35.39,-64.941,-244.629,997.070,25.05,-14.40,-36.75,18.54
5943,6.65,4.89,-32.67,100.586,47.363,945.801,22.95,-15.45,-37.35,18.49
5953,6.85,5.61,-32.98,-207.031,-505.859,991.211,24.90,-17.40,-35.40,18.59
5963,0.37,5.49,-37.25,128.906,-445.312,1377.930,24.90,-17.40,-35.40,18.06
5974,-4.93,3.47,-39.21,243.652,-719.238,840.332,22.95,-18.60,-36.90,18.21
5984,-9.76,1.44,-46.08,239.258,-467.285,1257.324,24.60,-15.45,-38.10,18.49
5994,-9.95,2.92,-28.33,261.230,-676.758,1212.891,24.15,-19.50,-38.10,18.49
6016,-10.72,-9.50,-32.23,128.418,-258.789,587.402,25.65,-18.30,-36.15,18.54
6025,0.82,-11.44,-38.78,-210.937,-297.852,1474.609,22.65,-17.85,-38.40,18.54
6037,9.28,-4.15,-40.61,-169.922,-386.230,1083.984,25.50,-17.70,-38.25,18.83
6047,18.53,-3.11,-30.93,347.656,-637.207,588.867,24.00,-18.90,-38.25,18.40
6057,6.95,-1.76,-35.83,94.238,-587.891,1424.805,24.00,-18.90,-38.25,18.35
6067,12.68,-4.21,-32.49,466.309,-769.043,1999.939,24.75,-18.90,-35.55,18.35
6077,2.59,3.73,-35.71,-101.074,-562.988,906.738,22.95,-18.60,-38.40,18.54
6087,-11.73,4.44,-32.92,-503.906,-95.703,1175.293,23.70,-17.85,-36.60,18.59
6097,1.41,6.40,-29.53,273.437,-529.785,297.852,23.55,-20.40,-38.25,18.54
6109,-0.69,2.31,-34.19,65.430,-636.230,1150.879,23.55,-20.40,-38.25,18.73
6119,1.94,2.58,-24.95,530.273,-293.457,447.754,24.60,-20.25,-36.90,18.54
6129,-13.53,0.91,-31.21,-189.453,-225.586,938.477,23.40,-18.30,-39.15,18.40
6139,5.41,-4.45,-35.11,-10.254,-235.840,1057.129,23.40,-18.30,-39.15,18.54
6149,4.84,-0.79,-37.67,-20.508,-407.227,983.887,24.00,-21.30,-37.50,18.06
6159,8.71,-4.51,-31.83,412.598,-695.312,793.457,23.40,-16.65,-38.85,18.54
6169,-6.15,-1.02,-31.10,-109.375,-473.633,889.160,22.80,-21.60,-36.75,18.73
6181,-1.50,-3.27,-34.81,-85.449,-294.922,825.684,24.00,-20.40,-39.30,18.59
6191,-2.08,1.22,-34.14,292.969,-519.043,1308.105,24.00,-20.40,-39.30,18.68
6201,-1.12,-0.95,-33.93,-339.844,-377.930,1716.797,24.15,-21.45,-36.90,18.49
6211,0.48,-1.49,-43.37,97.656,-520.508,223.145,22.95,-19.80,-38.10,18.59
6221,-4.50,0.48,-35.87,20.996,-671.387,669.434,23.40,-21.90,-38.10,18.54
6231,-1.67,0.93,-39.37,-51.758,-347.168,1159.668,23.40,-22.20,-37.35,18.21
6243,-8.58,10.03,-42.02,196.289,-382.812,859.375,23.40,-22.20,-37.35,18.30
6253,0.73,7.37,-35.60,36.133,-352.051,1274.414,24.60,-22.65,-37.65,18.30
6263,3.21,9.57,-37.20,-166.016,-767.090,1155.273,23.70,-19.50,-38.10,18.54
6273,0.69,5.06,-37.43,196.289,-381.348,676.270,23.70,-19.50,-38.10,18.35
6283,-0.02,8.85,-36.27,419.922,-381.836,774.414,24.00,-22.80,-38.25,18.59
6293,-9.50,5.27,-48.53,-771.484,-620.605,1999.939,24.30,-20.85,-37.80,18.49
6303,12.30,-1.47,-43.59,1062.012,-39.063,895.996,24.00,-23.70,-37.80,18.68
6315,-0.48,2.53,-44.97,506.836,-202.148,104.004,24.00,-22.80,-38.55,18.49
6325,-6.66,-6.48,-33.10,203.613,-773.926,1517.090,25.65,-23.85,-38.10,18.49
6335,16.64,-3.11,-34.70,688.965,-876.953,910.645,24.00,-23.70,-38.25,18.21
6345,-16.41,-3.35,-42.90,-737.305,-422.363,1999.939,23.40,-21.45,-37.35,18.16
6355,17.81,-5.74,-29.45,724.121,-795.410,211.426,25.35,-24.60,-39.15,18.40
6365,1.31,3.23,-47.90,-413.086,-403.320,899.414,25.35,-24.60,-39.15,18.49
6375,11.67,-4.79,-32.94,169.922,-608.398,919.434,26.10,-22.20,-37.65,18.54
6387,-13.24,8.84,-39.02,-103.516,-956.543,1999.939,24.60,-25.05,-38.40,18.73
6397,2.89,2.22,-37.06,680.664,-746.094,17.090,24.60,-25.05,-38.40,18.35
6407,-14.97,13.53,-31.98,27.344,-300.293,61.035,23.70,-24.30,-38.10,18.40
6417,-4.73,1.76,-35.63,-162.598,-762.207,1454.102,23.70,-25.50,-39.90,18.35
6427,2.60,10.15,-42.14,90.820,-676.270,734.863,23.25,-23.70,-39.30,18.54
6437,1.30,-0.47,-43.68,1130.371,-1123.535,1546.875,24.30,-25.20,-38.55,18.68
6447,-8.59,1.92,-50.84,-246.094,-294.922,820.312,24.30,-25.20,-38.55,18.49
6459,-10.53,0.63,-49.11,-393.066,-152.832,1022.949,24.30,-24.90,-39.00,18.49
6469,5.69,-0.51,-41.98,613.770,-765.137,479.492,24.90,-23.10,-38.85,18.68
6479,-8.08,-6.38,-46.34,-473.145,-822.266,1999.939,23.40,-26.55,-39.15,18.35
6489,11.24,-6.15,-51.08,762.695,-748.535,757.812,22.65,-24.30,-39.60,18.49
6499,-14.36,-3.10,-45.66,-507.812,-222.168,1425.293,22.65,-24.30,-39.60,18.49
6509,8.86,-9.95,-41.90,749.023,-729.492,-44.922,24.30,-27.60,-38.55,18.59
6521,12.43,-5.89,-43.40,543.457,-768.555,474.609,22.20,-25.80,-38.85,18.30
6537,-12.50,-1.08,-39.52,32.715,-556.641,1470.215,23.40,-27.45,-38.40,18.54
6546,3.15,2.26,-42.03,215.820,-196.289,1349.609,21.90,-26.25,-39.60,18.59
6556,-12.36,2.37,-58.67,-590.820,-846.680,1999.939,23.55,-25.20,-38.55,18.49
6566,2.44,-6.64,-115.67,-23.437,-728.516,761.230,24.75,-26.40,-39.30,18.40
6576,-16.56,3.55,-28.47,-654.297,-596.680,1044.922,24.75,-26.40,-39.30,18.30
6586,12.48,0.15,-45.24,960.449,-629.395,-9.277,24.15,-27.45,-39.60,18.21
6596,-8.46,-2.31,-35.07,-507.324,-876.953,1406.738,22.95,-28.20,-38.10,18.49
6608,-10.56,-4.85,-38.76,-560.059,-702.637,1765.625,21.90,-26.25,-40.35,18.54
6618,19.56,-2.33,-44.23,346.680,-584.473,444.336,24.15,-25.50,-38.85,18.49
6628,6.11,-0.91,-44.66,213.867,-1537.598,803.711,24.15,-25.50,-38.85,18.73
6638,-6.99,0.31,-43.73,-428.711,-260.742,773.926,24.15,-28.20,-40.35,18.59
6648,-0.72,-7.74,-47.69,805.176,-1030.762,991.699,23.25,-27.60,-40.05,18.54
6658,-10.01,3.76,-41.88,-400.391,-102.539,1695.313,23.25,-27.60,-40.05,18.35
6668,4.78,-4.37,-39.80,535.156,-1027.832,1725.098,22.65,-27.75,-40.35,18.49
6680,1.79,-4.42,-43.70,338.379,-971.680,1999.939,21.60,-27.15,-39.00,18.35
6690,2.05,4.77,-45.23,-176.270,-229.004,1660.645,24.00,-30.45,-39.00,18.54
6700,-6.73,2.63,-49.95,-640.625,-765.137,1450.195,22.65,-28.95,-39.60,18.73
6710,8.30,4.82,-52.09,222.168,-707.520,1185.547,22.65,-28.95,-39.60,18.68
6719,-16.69,3.09,-41.98,-649.902,-5.859,1125.977,22.80,-30.75,-38.25,18.21
6729,8.02,-0.68,-39.25,860.352,-987.305,320.312,22.05,-27.60,-40.05,18.21
6739,-12.10,7.03,-46.79,-828.125,18.555,325.684,22.95,-28.20,-38.40,18.40
6751,-15.85,-1.52,-45.93,-87.891,-43.945,232.422,22.20,-31.35,-38.85,18.40
6761,7.53,-7.45,-38.24,56.641,-347.656,93.750,22.20,-31.35,-38.85,18.30
6771,11.69,-0.23,-42.26,426.758,-265.625,526.855,21.30,-29.25,-39.75,18.54
6781,-2.60,-8.02,-46.39,-638.672,-86.426,1757.324,22.65,-31.80,-38.40,18.40
6791,10.87,-6.53,-43.24,750.488,-1295.410,-173.340,20.85,-31.95,-38.55,18.49
6801,-22.07,-4.02,-36.94,-509.766,34.180,1430.176,21.60,-29.55,-39.75,18.49
6813,-18.14,-1.15,-42.44,-530.762,-855.957,1999.939,23.25,-30.75,-38.25,18.49
6823,7.20,4.34,-48.70,87.402,-533.203,1051.270,20.70,-31.35,-39.15,18.59
6833,5.94,-5.34,-39.08,331.055,-1287.598,1590.332,21.00,-30.15,-39.90,18.30
6843,4.48,7.38,-49.53,-472.168,-375.000,863.281,21.00,-30.15,-39.90,18.49
6853,14.47,-3.14,-38.89,731.934,-1139.160,1206.543,21.00,-32.25,-40.35,18.59
6863,-9.02,7.31,-47.77,-424.805,-409.180,1134.277,21.60,-30.00,-40.05,18.54
6873,12.02,-2.34,-36.94,644.531,-1341.309,38.086,22.35,-31.20,-38.55,18.59
6885,14.40,-4.60,-47.70,923.828,-532.715,-35.645,21.60,-33.15,-39.00,18.54
6895,-16.83,-4.92,-44.69,-640.625,-209.961,1148.438,21.60,-33.15,-39.00,18.40
6905,10.82,-7.05,-46.92,26.367,-561.523,818.359,21.60,-31.65,-37.80,18.54
6915,-0.72,-3.95,-37.92,352.539,-1259.277,1999.939,19.95,-32.55,-38.85,18.49
6925,-4.51,2.33,-43.38,-479.492,85.449,670.410,19.20,-31.80,-39.90,18.54
6935,15.39,-10.57,-27.11,500.977,-519.531,623.535,20.25,-30.15,-38.40,18.40
6945,10.52,-0.95,-46.38,-557.617,-360.840,328.613,20.25,-30.15,-38.40,18.73
6957,2.40,9.08,-45.07,-242.676,-538.574,1378.418,18.75,-31.05,-39.90,18.54
6967,9.13,-1.88,-33.11,181.641,-1122.559,726.562,18.75,-31.05,-39.90,18.54
6977,-13.30,2.86,-47.98,723.633,-333.496,1251.953,19.35,-34.35,-39.30,18.54
6987,-12.99,4.45,-32.67,55.176,17.090,805.664,19.35,-30.45,-39.30,18.35
6996,-22.98,-0.63,-48.10,-699.219,-306.641,851.074,19.35,-30.45,-39.30,18.49
7006,13.11,-4.52,-33.05,159.180,-601.562,468.750,19.50,-36.15,-39.15,18.83
7018,6.33,4.03,-63.21,-397.949,-50.293,1344.727,19.50,-36.15,-39.15,18.40
7028,18.15,-7.95,-45.14,426.270,-530.762,607.422,19.65,-31.65,-38.55,18.73
7038,1.13,1.92,-39.16,-143.066,-673.340,1436.523,20.10,-33.60,-38.25,18.40
7053,7.92,-0.34,-39.54,-580.078,-561.035,707.520,19.50,-32.55,-37.65,18.49
7062,5.52,0.24,-48.53,568.359,-718.262,666.992,19.20,-32.25,-39.90,18.30
7072,-5.67,1.14,-48.09,-642.090,-156.250,1007.812,19.20,-32.25,-39.90,18.68
7082,9.05,1.42,-40.92,67.383,-529.785,117.676,17.40,-35.25,-40.50,18.73
7093,-3.17,0.45,-32.45,578.125,-382.812,1168.457,17.40,-33.15,-39.30,18.49
7103,1.36,-4.35,-56.86,-175.293,-312.012,1278.320,17.40,-33.15,-39.30,18.54
7113,5.15,1.56,-35.92,-540.527,-113.770,1103.027,17.25,-34.95,-38.40,18.54
7123,10.26,0.76,-46.17,1909.180,-1259.277,-21.484,18.00,-33.00,-41.10,18.49
7133,-13.44,-5.28,-32.34,-19.531,-542.969,608.887,19.35,-33.15,-38.55,18.35
7143,-6.21,-0.31,-46.24,-327.148,-145.996,449.707,17.10,-35.25,-38.25,18.49
7153,6.94,-2.81,-12.73,999.512,-1069.336,687.012,17.10,-35.25,-38.25,18.49
7165,7.76,-3.53,-44.92,399.414,-374.023,261.230,18.00,-33.45,-39.60,18.54
7175,-2.44,-0.50,-34.23,104.980,-322.754,1150.879,19.20,-34.20,-39.60,18.83
7185,-1.81,-6.98,-45.90,-785.645,50.781,1488.281,17.25,-35.40,-38.10,18.54
7195,7.63,6.70,-39.64,91.309,-413.086,250.488,16.80,-33.75,-40.35,18.54
7204,-0.36,-3.82,-31.31,-358.398,-658.203,542.969,16.80,-33.75,-40.35,18.49
7214,-2.75,1.60,-37.15,-54.199,-253.906,1794.434,18.00,-37.80,-38.40,18.40
7226,-4.07,8.91,-42.65,-678.711,-407.715,1086.426,16.80,-34.65,-38.40,18.54
7236,21.18,-0.26,-34.00,1097.656,-1081.543,-43.457,16.80,-34.65,-38.40,18.54
7246,-17.02,0.50,-45.87,-312.988,-364.746,884.766,17.10,-36.00,-38.25,18.59
7256,-3.45,0.51,-40.82,-456.543,-371.582,689.941,16.50,-37.35,-38.40,18.59
7266,8.84,-6.40,-33.21,1070.313,-512.207,1484.863,15.75,-33.75,-39.15,18.40
7276,-8.27,-1.18,-37.02,-191.895,-609.863,1304.199,16.80,-34.95,-38.40,18.16
7286,-11.82,-6.53,-37.69,-876.953,164.062,1732.910,16.80,-34.95,-38.40,18.54
7298,0.28,-7.91,-32.42,-654.297,-975.586,1867.676,17.25,-33.45,-38.85,18.30
7308,-0.89,5.56,-36.07,-521.973,26.855,1314.941,15.30,-35.85,-37.35,18.54
7318,8.94,-3.81,-37.10,1025.391,-627.441,437.012,16.65,-36.45,-37.05,18.49
7328,-6.15,-3.93,-40.14,-462.891,-782.715,1999.939,16.65,-36.45,-37.05,18.49
7338,-6.88,1.53,-37.94,-620.605,-449.219,1466.309,15.90,-35.25,-37.50,18.54
7348,14.35,-0.48,-42.46,1105.469,-675.781,50.293,16.65,-37.20,-37.50,18.59
7358,2.69,-3.76,-35.60,255.371,-989.258,1099.609,15.75,-35.40,-38.40,18.35
7370,13.72,-1.79,-32.51,441.406,-1231.445,673.828,15.75,-34.65,-39.60,18.54
7380,1.31,-5.68,-36.97,291.016,-892.578,1443.359,15.30,-37.05,-38.40,18.40
7390,-15.48,1.73,-39.13,-451.172,-329.102,1497.070,14.85,-37.05,-37.35,18.49
7400,5.69,-0.65,-39.00,270.996,-671.875,1268.066,15.45,-35.25,-39.75,18.68
7410,4.62,4.14,-41.54,21.484,-815.430,1890.137,15.45,-35.25,-39.75,18.40
7420,-10.01,7.09,-43.55,-1020.020,-118.164,407.227,14.70,-37.65,-38.55,18.54
7432,-7.97,-5.50,-39.99,-137.695,-843.262,1642.578,15.15,-36.45,-39.30,18.73
7442,2.82,9.01,-42.83,-504.395,-597.168,194.824,13.80,-34.95,-39.15,18.59
7452,-0.89,2.11,-38.80,372.559,-977.051,1332.031,14.85,-34.95,-38.85,18.54
7462,-12.21,-1.23,-38.56,-429.199,-261.719,596.680,14.85,-34.95,-38.85,18.59
7472,4.88,3.73,-37.31,158.691,-26.855,723.633,14.70,-35.55,-37.50,18.54
7482,-2.00,-2.38,-43.03,-254.395,280.273,1806.152,14.70,-36.00,-39.00,18.35
7492,12.47,-2.11,-51.48,531.250,-999.512,187.500,14.70,-36.00,-37.80,18.40
7504,14.13,1.35,-41.94,469.727,-359.375,1533.203,14.10,-37.05,-37.65,18.54
7514,6.48,-1.19,-26.27,854.004,-1562.988,308.594,14.10,-37.05,-37.65,18.59
7524,-19.19,0.24,-38.50,-905.273,-112.305,1356.445,14.40,-36.45,-37.80,18.54
7534,-0.72,6.27,-41.35,-511.230,105.957,1999.939,15.30,-36.15,-38.10,18.54
7544,0.95,5.92,-33.51,-484.863,-541.992,1390.137,15.30,-36.15,-38.10,18.49
7554,7.15,7.22,-42.92,64.453,-656.738,243.164,14.70,-34.80,-39.75,18.68
7570,1.49,5.15,-35.60,-220.703,-737.793,1317.383,14.85,-36.15,-38.85,18.73
7580,4.26,3.06,-33.56,50.781,-528.809,1268.066,13.80,-35.40,-39.15,18.73
7590,4.31,4.62,-41.70,193.848,-627.441,867.676,13.80,-35.40,-39.15,18.35
7599,-4.36,2.09,-38.71,265.137,-707.031,809.082,13.80,-35.85,-38.40,18.35
7609,-17.21,-8.50,-43.27,-704.590,227.539,1929.688,13.95,-36.45,-40.05,18.59
7619,2.21,-2.29,-37.36,216.797,-478.027,885.254,13.95,-36.75,-39.30,18.54
7629,2.66,-3.96,-45.54,-53.223,-545.898,559.082,13.35,-36.15,-38.40,18.49
7641,6.00,-7.22,-38.48,-354.004,-896.484,1377.441,13.35,-36.15,-38.40,18.54
7651,-0.87,2.01,-39.78,-209.473,-117.676,555.176,12.00,-36.75,-39.00,18.73
7661,12.21,-0.38,-40.39,84.961,-1169.922,293.945,13.80,-36.60,-38.85,18.49
7671,-0.36,3.53,-36.89,-349.609,-541.504,538.086,13.80,-36.60,-38.85,18.54
7681,5.69,-1.44,-39.47,44.922,-913.086,1133.301,13.35,-36.15,-38.40,18.35
7691,-5.16,-0.26,-36.73,-459.961,-588.379,849.121,13.95,-36.45,-39.00,18.49
7701,9.96,2.64,-35.40,-11.230,-934.570,1227.051,13.80,-35.85,-38.10,18.54
7713,-8.75,-2.38,-36.65,-183.105,-35.156,1352.051,13.35,-37.05,-38.10,18.68
7723,3.02,10.08,-34.69,-383.789,-377.930,720.215,13.35,-37.05,-38.10,18.73
7733,7.24,-1.30,-40.28,85.449,-591.797,1187.988,11.40,-37.35,-38.40,18.40
7743,10.11,-2.58,-40.19,-312.012,-500.977,1264.648,12.30,-37.35,-38.85,18.59
7753,14.31,-2.18,-46.98,-73.730,-673.828,830.566,13.05,-37.05,-38.10,18.68
7763,-4.55,-5.40,-34.92,-398.437,-519.531,884.277,11.85,-37.35,-39.15,18.40
7773,1.69,-4.32,-42.62,205.078,-747.559,1066.406,11.85,-37.35,-39.15,18.54
7785,5.82,-4.62,-46.56,-147.949,-501.953,794.434,12.30,-36.60,-38.10,18.35
7795,0.81,-2.22,-39.73,-294.922,-616.699,1702.637,11.40,-37.35,-37.35,18.54
7805,2.02,-7.83,-50.47,11.719,-857.910,1127.930,11.40,-37.35,-37.35,18.54
7815,1.47,-0.63,-49.08,-258.789,-497.070,437.012,11.10,-36.15,-38.40,18.68
7825,1.89,0.08,-35.00,-323.730,-91.797,672.852,11.40,-37.05,-38.40,18.54
7835,20.08,4.75,-37.73,256.348,-687.988,314.453,10.95,-37.20,-37.80,18.54
7844,2.90,1.14,-42.73,-571.777,-132.812,1363.281,12.00,-37.20,-38.25,18.49
7856,-0.99,-2.22,-43.83,-332.520,-395.996,1387.207,12.00,-37.20,-38.25,18.49
7866,6.71,0.35,-40.65,4.883,-561.523,972.656,11.40,-36.60,-38.10,18.54
7875,6.21,4.32,-43.73,18.555,-479.980,606.445,12.30,-36.60,-37.35,18.73
7885,-4.83,4.87,-37.49,-347.168,-218.262,1085.449,11.10,-37.80,-38.85,18.83
7895,14.08,2.17,-33.10,-232.422,-682.617,499.023,11.70,-37.95,-36.00,18.73
7905,6.11,-1.34,-37.80,49.805,-785.156,1121.094,11.70,-37.95,-36.00,18.21
7917,6.06,1.56,-37.86,-135.254,-831.055,688.965,11.25,-37.65,-37.80,18.59
7927,4.31,-1.58,-34.42,78.125,-655.762,1190.918,11.10,-38.55,-38.10,18.21
7937,1.32,1.55,-36.43,-12.207,-383.789,1455.566,11.10,-38.55,-38.10,18.54
7947,-5.44,1.57,-43.40,-342.285,18.555,1231.445,11.85,-38.55,-38.40,18.54
7957,9.65,4.08,-46.98,-99.609,-671.387,365.723,9.60,-37.80,-37.35,18.73
7967,4.31,2.30,-42.62,29.297,-492.187,1290.527,9.15,-37.80,-37.65,18.83
7976,-9.76,5.37,-41.48,-270.020,-669.922,1270.020,10.65,-37.35,-38.10,18.54
7988,-12.90,2.43,-44.23,-167.969,-471.191,392.578,10.65,-37.35,-38.10,18.49
7998,-1.76,2.18,-42.56,-198.242,-427.734,969.727,9.60,-39.00,-37.65,18.40
8008,-0.51,-5.17,-44.27,314.453,-618.164,675.781,10.05,-38.70,-37.05,18.73
8018,-14.88,2.56,-45.73,-603.027,-210.937,1117.676,10.35,-37.35,-37.65,18.83
8028,7.27,-4.25,-36.82,95.703,-642.578,1453.613,10.50,-38.40,-37.80,18.54
8038,-6.51,-3.87,-47.55,-264.160,-162.598,1497.070,10.50,-38.40,-37.80,18.54
8048,2.08,-1.37,-41.02,9.277,-489.258,1185.547,10.35,-38.55,-37.65,18.54
8060,17.25,3.43,-30.38,-210.937,-687.988,1106.445,9.15,-37.35,-37.35,18.68
8070,4.05,-0.73,-47.11,-461.426,-322.266,1617.676,10.50,-38.70,-37.50,18.49
8084,15.96,-2.27,-43.07,96.191,-1076.172,1119.629,10.50,-38.70,-37.05,18.54
8094,-9.76,1.27,-45.54,-481.934,-330.566,794.434,11.10,-39.30,-37.35,18.59
8104,10.01,-7.04,-41.63,146.484,-812.988,875.977,9.75,-38.70,-37.05,18.54
8114,-2.09,1.32,-38.98,-284.668,-572.754,1629.883,9.75,-38.70,-37.05,18.40
8124,-2.94,-4.11,-40.04,-44.922,-973.633,834.473,9.15,-39.00,-38.40,18.30
8134,-11.10,-0.23,-46.27,-139.648,-176.270,917.480,8.25,-37.95,-37.05,18.54
8146,-1.31,-2.10,-38.76,-286.133,-145.996,617.676,9.00,-38.70,-37.05,18.35
8156,10.02,-9.95,-40.50,376.465,-575.195,442.383,8.55,-39.15,-36.75,18.73
8166,-1.11,-6.02,-37.15,-250.488,-521.973,1134.277,8.55,-39.15,-36.75,18.54
8176,9.61,-6.07,-45.21,51.758,-851.562,1033.203,10.05,-41.10,-36.00,18.68
8186,-10.85,-1.60,-41.60,-574.707,-261.719,1317.383,9.15,-39.75,-36.60,18.83
8196,9.09,-2.66,-43.14,267.090,-997.070,668.945,8.25,-40.35,-36.00,18.49
8208,8.66,-4.28,-43.64,41.016,-906.250,49.805,8.55,-40.35,-36.75,18.68
8218,-12.29,3.69,-50.58,-343.262,-970.703,1159.180,8.55,-40.35,-36.75,18.54
8228,-3.47,1.66,-43.29,-262.207,-795.898,1162.109,7.80,-38.70,-36.30,18.21
8238,2.53,5.51,-44.76,-358.398,-365.234,884.766,7.65,-39.00,-36.60,18.59
8248,10.03,9.28,-40.42,-370.117,-84.473,1305.176,7.65,-39.00,-36.60,18.49
8258,18.37,11.90,-41.20,31.250,-1145.508,891.602,7.65,-40.95,-36.15,18.73
8267,5.37,13.11,-48.56,-114.746,-611.328,909.668,8.55,-39.60,-36.30,18.73
8279,3.43,10.75,-46.79,-81.055,-771.973,967.285,8.55,-39.90,-36.00,18.54
8289,-3.34,-1.65,-48.66,-175.781,86.914,1270.020,8.55,-39.90,-36.00,18.59
8299,3.90,-0.36,-52.81,184.082,-524.414,625.488,8.55,-39.90,-36.00,18.30
8309,-14.03,-2.92,-43.21,-295.898,-411.621,1353.027,6.90,-39.00,-36.15,18.59
8319,-0.48,-6.60,-52.06,-51.270,-559.570,429.199,6.90,-39.00,-36.15,18.59
8329,-6.49,-2.48,-50.31,42.480,-457.520,933.594,8.25,-40.35,-35.55,18.49
8339,-4.56,-6.10,-51.48,-107.910,-534.668,397.949,7.20,-39.30,-35.70,18.68
8351,-3.63,5.72,-48.82,-331.055,-62.500,1098.145,5.85,-41.55,-35.55,18.49
8361,13.22,-4.84,-47.82,-32.715,-602.539,857.910,6.90,-40.20,-35.40,18.49
8371,2.24,-3.64,-52.34,-311.035,-666.992,1266.113,6.90,-40.20,-35.40,18.83
8381,3.32,-2.02,-42.18,-184.082,-652.832,771.973,5.85,-41.10,-34.80,18.35
8391,-1.66,-1.02,-44.03,-86.426,-694.336,957.520,6.30,-40.35,-36.00,18.59
8401,-6.41,2.00,-43.84,-229.980,-601.562,757.812,6.90,-40.95,-36.15,18.73
8411,-5.93,-0.33,-41.11,-86.914,-500.977,180.176,6.60,-41.10,-35.55,18.68
8423,-12.20,6.80,-44.18,-245.117,-294.922,736.328,6.60,-41.10,-35.55,18.49
8433,0.58,7.92,-50.25,-494.141,-527.832,1169.434,5.10,-41.10,-37.05,18.83
8443,12.02,2.15,-45.95,28.320,-723.145,1164.063,4.80,-40.80,-36.75,18.73
8453,9.46,0.42,-48.34,42.969,-229.492,787.109,5.10,-39.90,-35.55,18.59
8462,14.19,-2.37,-43.76,-160.156,-565.430,1194.824,5.10,-41.55,-37.05,18.68
8472,6.00,-3.16,-48.73,107.422,-666.016,1062.012,5.10,-41.55,-37.05,18.83
8482,12.30,-1.47,-54.33,-63.965,-1303.223,271.973,4.95,-41.70,-34.95,18.73
8494,-7.68,-8.85,-50.74,-123.535,-510.742,1021.484,3.60,-42.30,-35.25,18.83
8504,-3.69,-12.60,-48.16,-23.437,-707.031,853.027,3.60,-42.30,-35.25,18.73
8514,-6.51,-8.74,-49.99,-283.203,-696.289,1283.691,3.45,-41.40,-35.40,18.68
8524,7.13,-8.67,-57.16,-173.828,-466.309,1170.898,3.75,-42.60,-35.40,18.83
8534,14.98,-2.97,-50.36,-541.504,-929.199,1056.152,3.90,-42.30,-34.50,18.35
8544,7.79,-1.98,-53.02,-174.805,-591.309,932.617,3.60,-42.30,-35.25,18.54
8556,-11.82,-4.43,-48.26,-160.645,-884.277,857.910,3.60,-42.30,-35.25,18.59
8566,-7.26,-4.04,-48.22,155.273,-688.477,137.695,4.50,-42.15,-34.95,18.59
8576,-14.88,-2.57,-48.58,-229.980,-820.801,1000.000,2.55,-42.15,-36.15,18.54
8586,-14.25,2.85,-46.57,117.676,-350.098,926.758,2.10,-42.00,-36.00,18.54
8601,-5.16,5.56,-57.99,-600.586,-539.551,1301.270,1.50,-42.60,-35.40,18.54
8610,3.10,4.90,-46.99,-48.828,-380.371,1224.609,1.80,-42.60,-35.40,18.73
8622,8.08,4.90,-54.02,-434.082,-281.738,1124.512,1.65,-42.75,-35.55,18.40
8632,20.47,8.93,-45.11,-95.215,-836.914,989.258,0.30,-41.40,-34.20,18.59
8642,5.66,8.93,-49.28,-422.363,-394.043,711.426,1.05,-42.60,-34.20,18.83
8652,2.15,-0.04,-54.63,-80.566,-995.605,944.336,2.10,-42.00,-35.25,18.54
8662,2.62,-0.28,-54.07,229.492,-813.965,678.711,0.45,-42.75,-33.75,18.40
8672,-7.20,1.78,-53.06,23.437,-475.586,719.727,-0.45,-41.55,-34.80,18.54
8682,-3.85,-1.65,-51.85,-110.352,-692.383,895.020,-0.45,-41.55,-34.80,18.49
8694,-7.93,-5.12,-49.42,-143.066,-179.199,1498.047,-0.30,-41.70,-34.95,18.54
8704,14.76,-10.05,-51.73,15.137,-546.875,662.109,-0.90,-42.75,-35.25,18.30
8714,10.97,-1.44,-50.64,-83.984,-604.004,958.984,0.00,-41.70,-34.65,18.59
8724,6.34,-4.02,-47.21,-346.680,-326.172,1659.668,-1.65,-42.75,-33.75,18.68
8734,21.45,4.92,-38.39,354.004,-389.648,363.281,-1.65,-42.75,-33.75,18.59
8744,-1.02,-4.05,-49.69,40.527,-613.770,1333.496,-1.20,-42.30,-34.05,18.49
8754,-2.06,-1.77,-39.40,115.234,-705.078,656.250,-2.25,-41.70,-34.65,18.73
8766,-24.95,-0.14,-49.63,-530.273,-560.547,1263.672,-2.25,-42.60,-36.15,18.40
8776,-16.25,-0.98,-37.72,-230.957,-148.437,1168.945,-0.75,-42.15,-34.20,18.73
8786,-1.07,4.53,-50.37,-228.516,-389.160,1199.219,-2.85,-42.75,-35.25,18.59
8796,15.63,1.88,-46.15,-230.469,-299.805,1248.047,-1.50,-41.40,-35.40,18.59
8806,20.01,5.19,-48.86,-347.168,-733.887,1681.641,-2.10,-42.00,-34.50,18.49
8816,19.54,6.60,-53.47,251.953,-856.445,355.469,-2.10,-42.00,-34.50,18.68
8828,2.14,2.73,-53.56,-188.477,-1122.559,967.285,-2.40,-42.30,-34.05,18.73
8838,-3.76,5.66,-56.34,-126.953,-93.750,880.371,-3.90,-42.30,-34.80,18.73
8848,-10.95,10.03,-54.45,-161.621,-159.180,1103.027,-3.90,-41.10,-34.05,18.73
8858,-2.01,1.01,-54.18,163.086,-776.855,889.160,-4.95,-42.15,-31.95,18.54
8868,-4.80,-1.62,-46.60,-122.070,-803.223,568.848,-4.95,-42.15,-31.95,18.54
8878,-3.57,-4.98,-52.45,-187.500,-858.398,1043.457,-3.90,-42.75,-33.75,18.73
8888,-3.52,-3.73,-49.03,-159.668,-164.551,1516.602,-3.75,-42.60,-33.90,18.54
8900,-1.11,2.57,-47.53,-417.480,-746.582,1257.813,-4.80,-40.35,-34.80,18.92
8910,-5.66,0.72,-56.07,-293.457,-574.707,916.992,-4.50,-40.95,-34.65,18.59
8920,2.96,-1.18,-46.44,-446.777,-529.297,1208.496,-4.50,-40.95,-34.65,18.68
8930,8.78,-2.60,-47.52,103.516,-563.965,519.531,-4.35,-42.00,-34.50,18.68
8940,-4.98,2.34,-52.85,-158.203,-437.988,902.832,-5.55,-42.00,-34.05,18.49
8950,-12.80,3.86,-47.32,-468.750,-444.824,1041.504,-5.55,-42.00,-34.05,18.16
8960,6.15,-0.80,-42.24,-16.602,-542.969,1009.277,-6.45,-41.70,-34.65,18.68
8972,-1.17,3.23,-47.83,-124.512,-564.453,666.016,-7.20,-41.40,-34.20,18.40
8982,-1.04,4.15,-54.83,-8.789,-283.203,-2.930,-6.30,-41.55,-34.05,18.83
8992,-2.18,2.59,-42.54,-321.289,103.027,542.480,-6.30,-41.55,-34.05,18.49
9002,4.10,7.85,-42.99,-175.781,-297.852,854.980,-6.30,-40.35,-32.55,18.49
9012,5.57,2.53,-43.80,141.602,-565.918,1131.836,-7.35,-41.10,-33.00,18.68
9022,6.92,5.93,-39.26,-106.445,-569.336,1625.977,-7.20,-40.50,-32.70,18.54
9032,-7.91,11.02,-48.23,98.145,-264.160,832.520,-6.45,-41.40,-33.45,18.54
9044,4.42,5.19,-47.59,-125.488,-465.332,426.758,-6.45,-41.40,-33.45,18.40
9054,-6.81,9.42,-46.82,-425.293,140.137,691.406,-6.45,-41.40,-32.40,18.30
9064,5.13,3.08,-46.24,-169.922,-436.035,1708.008,-8.25,-39.60,-33.30,18.83
9074,10.87,-5.82,-43.04,99.121,-625.488,1015.137,-8.25,-39.60,-33.30,18.59
9084,8.65,-0.26,-48.26,200.195,-719.238,1346.680,-7.20,-42.15,-33.90,18.54
9094,-1.05,2.24,-41.97,128.906,-705.078,958.496,-7.65,-40.95,-33.45,18.54
9106,-8.83,-0.93,-51.98,-111.328,-248.047,727.051,-7.80,-39.90,-33.00,18.54
9121,6.56,4.45,-40.69,-10.742,-609.863,1518.555,-9.15,-40.50,-34.20,18.40
9130,2.24,1.04,-54.76,17.090,-656.738,1443.359,-9.15,-40.50,-34.20,18.59
9140,-1.37,1.79,-54.30,-177.246,-823.730,204.102,-8.40,-39.75,-31.65,18.54
9150,-5.37,3.58,-45.57,-50.293,-611.816,486.816,-9.00,-38.70,-33.30,18.54
9160,-6.73,6.50,-43.31,-399.414,181.152,1550.781,-10.05,-39.90,-32.55,18.68
9170,7.48,-1.44,-43.19,166.016,-769.531,1483.887,-10.35,-39.00,-32.70,18.68
9182,-10.89,-8.56,-58.52,-517.578,-478.027,876.953,-9.15,-39.00,-32.70,18.54
9192,8.03,-12.11,-50.90,143.066,-829.102,660.156,-10.50,-40.35,-33.75,18.40
9202,11.05,-2.27,-55.22,-299.316,-543.945,1090.820,-10.05,-38.40,-33.30,18.40
9212,-1.44,-1.08,-53.50,-96.680,-747.070,588.379,-11.85,-39.30,-33.15,18.83
9222,-1.53,-5.63,-67.09,-278.320,-736.328,1261.230,-10.65,-39.75,-33.45,18.59
9232,-4.81,-5.44,-50.81,-197.754,-408.203,941.406,-10.35,-37.80,-30.90,18.73
9244,2.10,-7.82,-50.24,8.789,-532.715,1285.645,-10.65,-39.30,-33.45,18.83
9254,0.73,1.05,-47.72,-254.395,-49.805,388.184,-10.65,-39.30,-33.45,18.68
9264,5.93,7.21,-37.63,-492.187,-584.473,514.648,-9.60,-39.00,-32.70,18.73
9274,10.37,6.39,-52.67,-272.461,-748.047,1195.313,-12.45,-38.40,-32.55,18.54
9284,5.45,5.98,-42.54,17.090,-781.738,1130.859,-11.10,-38.25,-32.70,18.35
9294,-8.98,9.49,-46.44,-118.164,-743.164,867.187,-12.00,-37.95,-32.55,18.54
9304,-12.39,9.12,-46.24,-64.941,-469.238,749.512,-12.00,-37.95,-32.55,18.73
9316,-3.36,7.17,-46.59,-123.047,-111.328,1012.207,-12.00,-38.40,-33.00,18.73
9326,1.43,1.18,-44.65,-128.906,-709.961,1126.465,-11.10,-36.15,-33.90,18.68
9336,1.76,1.05,-42.58,-92.773,-790.527,611.328,-12.30,-36.60,-33.45,18.54
9346,-3.87,-2.34,-39.64,-267.090,-704.590,1163.086,-13.05,-36.60,-33.45,18.54
9356,-0.56,-1.82,-49.21,-189.453,-494.141,1462.402,-13.05,-36.60,-33.45,18.73
9366,-1.53,1.34,-41.64,-241.699,-549.805,1453.613,-12.00,-35.55,-32.55,18.54
9379,-1.65,-0.95,-49.34,-274.414,-652.344,1390.137,-12.45,-35.55,-33.75,18.54
9388,-3.42,-5.50,-48.55,-141.113,-818.359,601.074,-12.45,-35.55,-33.75,18.54
9398,-13.85,-4.15,-50.78,-328.613,-743.164,1380.371,-13.20,-35.55,-32.55,18.68
9408,-5.73,0.31,-48.09,-212.402,-326.660,1052.246,-14.40,-36.45,-32.55,18.73
9418,4.26,-1.22,-39.82,-285.156,-310.059,66.895,-14.40,-36.00,-32.55,18.83
9428,11.05,10.04,-46.26,-185.059,-214.355,328.125,-12.60,-35.85,-33.45,18.73
9438,-3.08,6.50,-44.26,56.641,-936.035,1114.258,-12.60,-35.85,-33.45,18.40
9450,-9.57,7.64,-36.88,14.648,-50.781,748.535,-13.35,-35.85,-33.90,18.54
9460,0.21,3.16,-49.22,-403.320,-517.578,1159.668,-13.20,-35.25,-33.00,18.68
9470,12.42,2.27,-47.21,154.297,-198.730,1184.570,-13.05,-34.20,-32.70,18.54
9480,9.92,3.63,-52.95,217.773,-891.602,409.668,-13.80,-34.65,-32.70,18.83
9490,-4.66,5.60,-40.10,-161.133,-420.898,857.910,-13.80,-34.65,-32.70,18.59
9500,-24.22,6.97,-47.02,-35.645,-686.035,411.621,-13.80,-34.65,-34.20,18.54
9510,-11.46,-0.24,-44.45,-138.184,-448.242,1263.184,-13.80,-34.20,-31.95,18.54
9522,0.05,0.66,-42.84,-230.957,-13.672,1032.227,-13.80,-34.20,-31.95,18.54
9532,5.82,-3.24,-44.74,-219.727,-238.770,1343.750,-13.50,-34.05,-33.30,18.59
9542,-3.73,1.53,-49.32,-266.602,-278.320,225.098,-13.50,-34.05,-33.30,18.54
9552,4.40,2.65,-47.02,-155.762,-599.121,1180.176,-13.95,-35.25,-32.25,18.54
9562,6.50,4.16,-48.09,-355.957,-1003.418,1081.055,-13.80,-32.55,-32.40,18.83
9572,4.89,4.28,-43.73,-200.195,-602.539,1078.613,-13.80,-32.55,-32.40,18.68
9584,-0.20,1.89,-48.83,-53.711,-833.008,1011.719,-13.05,-32.55,-31.95,18.49
9594,-2.27,7.96,-45.79,-452.148,-467.285,827.637,-13.50,-33.15,-33.00,18.49
9604,0.53,7.51,-45.94,61.523,-223.633,880.371,-13.50,-33.60,-32.25,18.49
9614,-2.33,6.91,-43.94,21.973,97.168,1085.449,-13.50,-33.60,-32.25,18.68
9624,0.10,11.79,-45.30,-31.250,-397.461,873.535,-14.70,-30.75,-32.25,18.83
9639,-1.22,5.02,-39.79,-218.750,-694.336,1147.949,-14.70,-32.40,-31.80,18.73
9648,2.97,3.58,-34.69,-236.328,-703.125,1462.402,-14.70,-32.40,-31.80,18.83
9660,5.98,6.27,-37.76,41.992,-516.602,1401.367,-13.50,-31.95,-31.05,18.83
9670,4.09,0.82,-41.34,-540.039,-821.777,1571.777,-13.50,-31.95,-31.50,18.73
9680,5.75,10.22,-38.88,-102.539,-175.293,107.422,-14.55,-31.80,-30.45,18.68
9690,8.00,6.37,-54.69,151.855,-1035.156,-38.574,-14.40,-30.45,-31.05,18.54
9700,14.78,2.25,-48.45,-186.523,-365.234,453.613,-14.40,-30.45,-31.05,18.30
9710,-3.42,6.27,-58.00,-402.344,-387.207,1026.855,-13.20,-31.20,-30.75,18.54
9720,-4.74,-0.89,-17.95,-262.695,-319.336,1999.939,-14.55,-30.60,-30.15,18.49
9732,17.63,-5.53,-44.96,-13.672,-133.301,1802.734,-14.70,-31.20,-29.55,18.59
9742,21.98,-6.44,-42.83,-363.770,-254.883,1386.719,-13.20,-31.20,-31.50,18.83
9752,27.50,-18.88,-54.53,-159.668,-602.539,1478.027,-13.20,-31.20,-31.50,18.83
9762,28.85,-20.37,-40.03,-128.906,-975.098,1622.559,-13.80,-30.60,-30.15,18.73
9772,17.27,-18.33,-39.03,-131.836,-1122.559,1958.984,-14.10,-30.60,-29.40,18.68
9782,12.58,-15.07,-37.94,-241.211,-1031.250,1058.594,-14.10,-30.60,-29.40,18.49
9794,-6.51,-22.43,-44.56,-74.707,-528.809,1643.555,-14.40,-30.45,-28.05,18.68
9804,-7.03,-19.05,-56.85,29.297,-744.629,1599.121,-14.85,-28.65,-28.20,18.40
9814,-18.94,-27.24,-48.21,-182.617,-209.473,960.937,-16.50,-28.95,-28.20,18.54
9824,-20.89,-21.99,-52.74,-132.324,-1084.961,583.008,-16.50,-28.95,-28.20,18.68
9834,-24.15,-29.28,-44.31,-232.910,148.437,913.086,-17.10,-29.55,-28.05,18.83
9844,-5.60,-23.21,-45.98,-510.742,485.840,1641.113,-17.55,-29.40,-29.40,18.73
9854,23.34,-17.93,-47.48,8.301,-9.766,1152.344,-18.00,-28.20,-28.20,18.49
9866,7.21,-17.92,-80.39,-266.602,-1105.957,968.750,-17.55,-28.95,-28.95,18.68
9876,-10.60,-14.23,-54.59,-162.598,-471.191,478.516,-17.55,-28.95,-28.95,18.68
9886,-7.82,-9.96,-55.88,136.719,-665.039,440.430,-17.40,-28.05,-29.10,18.40
9896,-13.63,-18.85,-57.95,61.035,-23.437,207.031,-18.60,-28.80,-28.80,18.73
9906,-46.22,4.27,60.66,178.223,-37.109,17.090,-18.60,-28.80,-28.80,18.59
9916,3.33,-17.74,40.12,97.656,-436.035,220.703,-18.45,-28.20,-29.70,18.54
9928,28.96,-11.21,-53.08,-210.937,-142.090,621.582,-19.65,-29.25,-30.30,18.83
9938,33.78,-9.98,-43.27,-12.695,-657.227,1436.035,-20.25,-27.45,-28.65,18.54
9948,17.01,-3.97,-45.38,-230.469,-474.121,1036.133,-19.65,-28.35,-28.80,18.68
9958,10.55,5.47,-47.77,-458.496,-506.348,536.133,-19.65,-28.35,-28.80,18.54
9968,20.92,9.25,-37.79,-433.594,-801.758,296.387,-19.95,-27.00,-29.40,18.49
9978,5.70,15.17,-41.62,-160.645,-448.730,1566.895,-20.85,-25.20,-30.75,18.73
9988,6.02,12.96,-43.49,-516.113,-397.461,1582.520,-20.70,-25.50,-29.70,18.92
10000,15.26,17.62,17.02,-146.973,-420.410,957.031,-19.50,-25.05,-30.45,18.68
10010,8.57,1.02,-41.82,-292.969,-242.187,1424.316,-19.50,-25.05,-30.45,18.73
10020,13.26,0.70,-42.03,176.270,-640.137,1844.727,-18.60,-25.65,-29.85,18.73
10030,9.49,6.68,-38.82,-63.965,-659.180,874.023,-18.60,-25.20,-30.30,18.49
10040,-0.89,-5.09,-40.70,302.734,-617.676,1536.621,-18.60,-25.20,-30.30,18.73
10050,-5.25,-4.74,-42.54,-958.984,439.453,1999.939,-20.10,-25.65,-29.55,18.49
10062,-1.31,0.35,-40.63,-73.730,-173.340,769.531,-21.00,-26.55,-29.40,18.49
10072,8.40,-5.27,-44.50,648.926,81.055,1022.461,-22.20,-27.75,-29.70,18.54
10082,4.09,-3.02,-35.57,-145.020,-469.727,1353.027,-21.00,-26.25,-28.20,18.68
10092,7.49,-6.79,-47.22,-320.801,-121.094,1670.410,-21.00,-26.25,-28.20,18.54
10102,-4.05,-6.60,-41.01,212.891,-679.687,770.508,-20.10,-24.90,-28.05,18.73
10112,-15.28,-4.40,-43.89,-271.973,-449.707,970.215,-20.10,-28.35,-27.30,18.68
10122,-9.88,-4.05,-41.94,324.219,-402.832,409.668,-21.60,-25.95,-29.85,18.73
10134,-4.79,-8.21,-45.34,-134.277,-331.055,1103.516,-20.70,-27.75,-28.20,18.83
10144,-5.34,-5.11,-46.83,87.402,-178.711,971.191,-19.65,-25.65,-28.05,18.54
10159,-6.60,-4.73,-39.44,-126.465,-416.016,1317.871,-21.60,-28.05,-28.35,18.68
10168,-6.81,-3.02,-43.85,74.219,-283.203,533.203,-21.60,-28.05,-28.35,18.83
10178,-3.18,-0.58,-43.81,137.695,1.953,889.648,-22.65,-26.25,-29.40,18.68
10188,1.36,-3.24,-42.11,221.191,-710.449,714.355,-21.45,-24.60,-30.15,18.35
10198,-8.10,-1.17,-47.68,-64.453,-631.836,461.426,-20.70,-25.50,-28.20,18.30
10210,2.08,2.33,-44.24,-400.391,-220.703,762.207,-21.45,-25.50,-30.15,18.59
10220,9.70,1.58,-39.24,-107.422,-146.973,979.492,-21.45,-25.50,-30.15,18.49
10230,16.21,11.09,-42.54,-105.957,-358.398,668.945,-23.25,-25.95,-30.30,18.73
10240,16.87,8.47,-36.22,203.613,-219.727,785.645,-22.20,-24.30,-30.15,18.54
10250,6.97,13.37,-45.09,-96.680,-323.730,1025.879,-20.55,-27.15,-28.80,18.59
10260,10.11,8.10,-45.29,-396.484,-347.656,1589.355,-21.60,-22.50,-29.85,18.73
10270,6.38,2.79,-42.76,48.828,-388.184,1487.793,-21.60,-22.50,-29.85,18.73
10282,8.73,0.31,-35.55,276.855,-583.984,920.410,-22.35,-23.25,-30.30,18.68
10292,6.32,-2.04,-37.32,120.605,-588.379,1307.617,-21.45,-23.40,-28.95,18.59
10302,0.92,-6.62,-33.34,67.871,-233.398,1188.477,-21.45,-23.40,-28.95,18.54
10312,2.85,-14.74,-39.13,-176.270,-471.191,1462.402,-22.05,-22.05,-29.10,18.83
10322,2.11,-13.33,-39.11,-137.695,-265.625,1786.133,-22.35,-24.45,-28.35,18.73
10332,9.07,-14.32,-36.08,184.082,-386.230,1582.520,-21.90,-23.85,-30.45,18.83
10342,-0.27,-10.98,-39.76,-166.016,-52.734,1641.113,-22.65,-24.30,-28.65,18.59
10355,2.73,-10.49,-31.68,512.207,-205.078,987.793,-22.65,-21.45,-28.95,18.49
10365,-2.08,-4.69,-32.76,305.664,-401.367,452.148,-24.00,-22.80,-29.85,18.68
10375,-14.04,-0.52,-38.21,-470.703,-298.828,743.652,-24.00,-20.40,-29.10,18.68
10385,-9.79,3.73,-29.92,-128.906,-168.945,310.547,-22.80,-22.05,-29.85,18.54
10395,-17.47,1.63,-42.13,-420.410,-344.238,958.984,-22.80,-22.05,-29.85,18.54
10405,-1.40,6.32,-30.56,215.332,-108.887,800.781,-22.20,-20.70,-28.95,18.73
10417,-0.56,2.73,-31.31,-279.297,-206.543,1202.637,-23.40,-22.65,-29.40,18.73
10427,6.95,0.14,-41.31,547.852,-513.672,1183.594,-23.40,-22.65,-29.40,18.21
10437,10.39,5.50,-33.20,479.980,-405.762,863.281,-22.05,-22.50,-28.35,18.83
10447,7.00,-10.31,-49.40,156.250,-837.891,1832.520,-22.80,-22.05,-31.50,18.54
10457,6.72,-4.51,-43.42,220.703,-464.844,221.191,-22.35,-20.85,-29.55,18.73
10467,0.38,-6.24,-30.51,-196.289,-395.996,1030.273,-23.40,-22.20,-29.70,18.54
10477,6.89,-5.68,-35.21,202.148,-496.094,1068.848,-23.40,-22.20,-29.70,18.35
10489,10.03,-7.98,-30.48,111.328,-353.516,1225.586,-22.35,-23.25,-30.30,18.54
10499,8.18,-3.47,-29.64,32.227,-744.629,1630.371,-22.35,-20.40,-30.30,18.49
10509,-1.98,2.86,-42.24,54.199,-203.613,1176.270,-21.90,-19.50,-28.95,18.40
10519,10.21,7.09,-30.35,-50.781,-223.145,931.152,-22.05,-21.60,-30.30,18.54
10529,4.82,6.15,-27.50,-250.488,-129.883,867.187,-22.05,-21.60,-30.30,18.68
10539,2.13,6.48,-33.26,-332.520,-518.066,776.367,-22.20,-19.80,-29.70,18.68
10551,-3.49,2.73,-36.52,-6.348,-691.406,1042.480,-23.40,-17.85,-28.95,18.68
10561,-16.31,4.32,-35.92,-44.922,-451.660,769.531,-23.40,-17.85,-28.95,18.54
10571,-18.35,-1.12,-32.34,101.074,-280.762,554.687,-23.40,-19.50,-30.45,18.68
10581,-14.60,0.39,-41.14,-56.152,112.793,1366.699,-22.35,-19.65,-28.80,18.40
10591,-5.33,-5.32,-35.82,424.805,-417.480,987.793,-24.30,-20.85,-30.30,18.73
10601,-5.11,-6.17,-32.94,-304.687,-202.637,1481.934,-23.40,-20.25,-30.15,18.68
10611,3.39,-3.98,-38.50,97.168,-355.469,834.961,-23.40,-20.25,-30.15,18.83
10623,-5.31,-5.81,-39.63,-236.816,-261.230,946.289,-23.25,-19.20,-30.75,18.68
10633,-2.49,-6.40,-33.68,-317.871,-722.656,1423.828,-22.65,-20.25,-29.70,18.73
10643,-1.71,-2.45,-36.21,-21.484,-243.652,935.059,-24.00,-20.40,-30.75,18.73
10653,-8.59,-1.60,-36.82,-115.234,-326.172,1241.699,-22.20,-19.05,-29.70,18.54
10663,-6.02,2.60,-41.25,-11.719,-431.152,1354.980,-22.20,-19.05,-29.70,18.30
10688,4.50,3.00,-30.57,-119.629,-445.312,1208.008,-22.35,-20.10,-29.85,18.54
10697,2.18,6.02,-35.92,150.879,-489.746,1346.680,-21.90,-18.30,-29.40,18.68
10707,-1.82,3.49,-30.08,66.406,-191.895,982.422,-22.05,-18.90,-29.55,18.35
10717,-1.08,0.38,-33.04,-95.215,121.094,885.742,-22.20,-17.40,-29.40,18.30
10727,7.51,5.05,-33.16,293.457,-458.984,815.430,-22.20,-19.80,-29.40,18.49
10737,3.98,2.51,-26.76,14.160,-615.234,855.469,-22.20,-19.80,-29.40,18.83
10747,14.16,-0.91,-41.99,337.402,-679.687,816.895,-22.80,-18.00,-29.10,18.73
10759,12.58,-3.90,-44.53,-204.590,-266.602,1067.383,-23.25,-18.90,-29.85,18.59
10769,11.53,-6.80,-35.39,220.215,-684.082,1246.582,-21.60,-17.25,-29.55,18.49
10779,6.30,-11.34,-35.12,92.773,-612.305,1084.473,-22.95,-19.50,-29.70,18.68
10789,5.21,-9.83,-27.60,119.629,-593.262,931.152,-22.95,-19.50,-29.70,18.35
10799,3.40,-8.02,-33.90,215.820,-290.527,1481.934,-21.45,-17.40,-29.70,18.40
10809,8.07,-6.30,-34.57,-267.578,-428.711,1537.109,-22.95,-19.05,-28.95,18.54
10819,2.53,-2.28,-35.78,-301.270,-738.281,840.820,-22.95,-19.05,-28.95,18.68
10831,-19.98,0.50,-39.82,-269.531,30.273,899.902,-22.20,-19.05,-28.20,18.73
10841,-8.63,-1.27,-32.12,-454.102,-437.500,1302.734,-22.95,-17.40,-29.40,18.73
10851,-2.94,2.47,-34.85,73.242,-578.125,700.195,-22.05,-16.80,-28.35,18.73
10861,-7.61,8.17,-29.47,154.785,-238.281,611.816,-22.35,-18.00,-30.30,18.49
10871,-6.50,9.60,-37.51,13.672,-290.527,1190.918,-22.35,-18.00,-30.30,18.49
10881,-1.53,4.72,-30.47,-226.074,-555.176,1999.939,-23.25,-17.25,-30.75,18.59
10893,-2.23,6.27,-38.13,312.500,-681.152,869.141,-23.25,-16.50,-31.80,18.35
10903,-9.35,1.27,-37.08,-97.656,-559.082,1640.625,-21.60,-16.05,-30.75,18.35
10913,0.04,-1.57,-35.47,113.770,-380.859,1560.059,-22.20,-17.10,-31.20,18.68
10923,-1.63,-2.95,-37.34,-129.395,-98.145,1105.957,-22.20,-17.10,-31.20,18.54
10933,3.51,0.62,-36.15,228.516,-185.059,687.988,-21.90,-16.65,-30.15,18.59
10943,8.73,-8.39,-40.26,138.672,-197.754,1583.496,-22.20,-16.20,-30.45,18.54
10953,17.03,-8.78,-37.34,-102.539,-881.836,1782.227,-22.20,-16.20,-30.45,18.54
10965,-1.47,-9.56,-33.34,-398.437,-615.723,1999.939,-22.05,-16.50,-30.30,18.73
10975,5.97,-5.28,-42.74,-139.648,-431.641,892.090,-22.20,-13.80,-31.65,18.49
10985,8.56,0.02,-21.21,-178.223,-171.387,763.184,-22.65,-14.70,-29.40,18.59
10995,2.89,-4.64,-31.42,354.492,-950.684,1278.809,-22.35,-12.90,-29.85,18.68
11005,-18.96,-1.12,-30.70,-130.859,-223.145,1237.305,-22.35,-12.90,-29.85,18.59
11015,-5.18,-4.92,-36.24,12.695,-485.840,650.879,-22.80,-15.60,-29.10,18.92
11027,-11.89,-2.48,-28.52,-470.703,-39.551,1746.094,-22.35,-14.85,-28.35,18.59
11037,1.08,-8.91,-32.56,-14.648,-369.141,1084.961,-23.55,-13.65,-30.30,18.68
11047,2.71,1.92,-38.40,418.457,-270.508,322.266,-23.55,-13.65,-30.30,18.68
11057,-9.61,2.34,-38.84,158.203,-290.527,576.660,-24.15,-14.70,-28.65,18.54
11067,0.27,-5.86,-37.61,50.781,-599.609,1249.512,-22.05,-13.65,-29.85,18.54
11077,-5.68,-4.34,-38.60,-121.582,-412.598,866.211,-22.95,-14.25,-28.95,18.83
11087,-2.97,-2.08,-29.91,54.199,-399.414,415.527,-23.70,-11.85,-30.15,18.83
11099,5.61,-2.69,-31.70,47.363,-131.348,827.637,-22.20,-12.30,-30.15,18.83
11109,2.93,-4.17,-35.00,39.551,-378.418,968.262,-22.05,-13.65,-31.50,18.59
11119,2.87,-3.24,-29.29,284.180,-469.238,1587.891,-22.05,-12.45,-30.30,18.68
11129,2.73,1.60,-37.60,25.879,-580.078,1630.371,-22.05,-12.45,-30.30,18.54
11139,4.96,-1.63,-34.00,-39.063,-601.074,748.535,-22.80,-12.90,-29.85,18.40
11149,-4.89,0.23,-32.84,121.582,-231.445,1248.535,-20.70,-12.30,-31.95,18.92
11159,-5.82,1.73,-31.64,-245.605,-67.871,1210.449,-21.45,-13.50,-30.45,18.83
11171,2.83,-1.77,-36.19,138.672,-300.293,1014.648,-20.70,-11.10,-32.70,18.68
11181,16.74,-3.62,-25.83,5.859,-128.906,1975.586,-20.70,-11.10,-32.70,18.92
11191,14.79,-0.76,-31.55,-361.328,-344.238,1029.297,-21.90,-15.00,-31.65,18.83
11207,19.50,2.76,-33.51,608.398,-638.672,-39.551,-22.35,-11.25,-32.25,18.83
11216,-10.22,-0.67,-29.59,-162.109,-720.703,1593.262,-21.30,-12.15,-31.50,18.73
11226,-1.13,1.47,-33.66,182.129,-656.738,669.434,-19.95,-9.90,-28.95,18.59
11236,-3.15,3.28,-26.84,96.191,-532.715,328.125,-19.95,-9.90,-28.95,18.59
11248,-2.89,0.84,-37.57,129.395,-145.996,983.887,-21.60,-10.50,-31.05,18.88
11258,-9.47,6.87,-38.35,206.543,-227.051,710.937,-21.60,-10.50,-31.05,18.68
11268,-2.62,-1.88,-38.54,-184.082,-226.562,1999.939,-21.00,-12.30,-31.65,18.54
11278,6.40,-7.70,-40.02,255.859,-892.090,883.301,-20.10,-10.95,-31.05,18.54
11288,6.75,1.49,-35.26,304.199,-563.477,326.660,-21.30,-12.15,-30.75,18.54
11298,-15.79,-7.52,-33.07,-1012.207,-335.937,1521.484,-21.30,-9.75,-31.50,18.35
11310,-8.73,1.72,-42.34,-54.199,-182.129,864.746,-21.30,-9.75,-31.50,18.54
11320,0.57,-3.34,-35.69,51.270,-473.145,1375.977,-19.35,-12.15,-31.80,18.54
11330,1.53,1.49,-40.55,-167.969,-468.750,1174.316,-20.70,-10.35,-30.45,18.59
11340,-0.23,5.43,-45.67,110.352,-474.609,531.250,-20.25,-12.30,-30.45,18.54
11350,-4.37,8.95,-34.66,-184.570,-572.754,1295.410,-21.00,-11.10,-31.20,18.54
11360,-11.02,10.27,-40.08,-238.281,-258.789,1688.965,-21.00,-11.10,-31.20,18.68
11370,-1.15,8.37,-37.47,-7.324,125.977,745.605,-19.65,-12.15,-29.85,18.54
11382,15.93,10.11,-35.53,-254.395,-163.086,1314.453,-20.10,-8.85,-31.50,18.68
11392,15.79,5.07,-34.27,498.047,-843.262,165.039,-20.10,-8.85,-31.50,18.59
11402,-16.61,-1.63,-29.07,-304.199,-118.164,1154.297,-20.25,-10.65,-30.15,18.40
11412,-3.60,-6.46,-41.71,259.766,-363.770,888.672,-21.00,-8.70,-30.15,18.40
11422,-12.40,-6.42,-35.95,67.383,-361.328,1423.828,-20.85,-9.30,-30.30,18.59
11432,-9.57,-12.85,-29.84,-420.898,-427.246,1999.939,-20.10,-8.85,-31.50,18.68
11442,14.08,-3.57,-41.02,333.008,-354.980,514.648,-20.10,-8.85,-31.50,18.68
11454,18.69,-9.30,-39.18,264.160,-865.234,257.812,-19.35,-10.95,-28.80,18.68
11464,4.82,0.34,-25.59,251.953,-380.859,411.133,-20.70,-8.70,-30.15,18.59
11474,10.33,-2.56,-31.85,-425.781,-776.367,1909.180,-18.90,-8.55,-29.10,18.54
11484,10.87,-2.82,-41.15,259.277,-763.672,452.637,-19.20,-8.70,-29.70,18.35
11494,1.69,15.71,-33.57,-426.758,-176.758,968.262,-19.20,-8.70,-29.70,18.40
11504,3.73,4.56,-33.44,-241.699,-1252.930,1999.939,-18.15,-6.45,-29.85,18.59
11516,-10.82,5.29,-37.31,15.137,-182.129,1639.160,-19.20,-8.70,-30.90,18.83
11526,-8.44,1.74,-38.99,38.086,-148.437,1140.625,-19.20,-8.70,-30.90,18.59
11536,-3.69,0.29,-44.15,416.504,-511.230,380.859,-17.10,-8.55,-29.10,18.83
11546,-6.32,-1.05,-40.56,-501.465,171.875,1039.551,-18.90,-7.35,-29.85,18.73
11556,12.25,-9.99,-32.76,1023.437,-449.219,731.445,-18.15,-8.10,-29.10,18.73
11566,-7.82,-5.79,-40.29,369.629,359.375,825.195,-18.45,-8.70,-30.90,18.54
11576,6.36,-15.70,-32.47,-173.340,-424.316,1999.939,-18.45,-8.70,-30.90,18.40
11588,-20.35,-15.12,-40.86,-782.715,-242.676,1111.816,-19.65,-9.75,-31.05,18.30
11598,17.10,-8.23,-34.66,674.316,-972.656,-970.215,-18.45,-7.95,-30.90,18.30
11608,-3.19,9.70,-23.63,395.020,-508.301,671.875,-17.55,-8.25,-30.90,18.54
11618,-21.50,-0.75,-32.92,-328.613,-1257.324,1999.939,-17.55,-8.25,-30.90,18.73
11628,-2.57,-2.21,-38.24,184.570,-521.484,282.227,-18.75,-7.05,-30.90,18.49
11638,-22.62,-1.52,-39.44,-633.301,280.273,973.633,-16.50,-7.95,-30.15,18.49
11650,5.11,8.32,-30.56,-57.617,-212.891,1312.500,-16.50,-7.95,-30.15,18.54
11660,-2.25,-0.32,-38.24,-342.285,-347.656,1999.939,-17.10,-6.45,-30.30,18.59
11670,15.09,0.73,-40.42,481.934,-791.992,118.652,-17.55,-7.05,-30.90,18.49
11680,-8.78,8.33,-33.68,-553.711,100.098,574.219,-18.00,-5.55,-31.95,18.54
11690,6.23,-2.91,-41.59,-4.395,-541.504,1539.551,-17.40,-6.45,-29.85,18.83
11700,0.85,0.31,-37.76,38.574,-400.391,655.762,-17.40,-6.45,-29.85,18.68
11710,-4.47,0.24,-38.19,-115.723,-556.152,1875.488,-17.40,-4.95,-31.50,18.83
11727,-8.13,3.66,-39.17,-245.605,-100.098,1476.074,-17.25,-5.10,-29.40,18.54
11736,-0.34,5.45,-42.07,-312.500,-333.496,1900.391,-18.00,-5.10,-30.90,18.59
11746,16.86,6.28,-40.66,148.437,-570.801,187.500,-16.20,-5.25,-29.85,18.54
11756,-9.76,6.30,-40.63,-414.551,-351.562,1345.215,-16.20,-5.25,-29.85,18.73
11766,-2.47,-0.80,-39.76,199.219,-1140.137,731.445,-15.45,-5.25,-30.75,18.68
11776,-0.36,-9.65,-16.82,328.613,-244.141,1170.898,-15.90,-5.25,-28.80,18.83
11786,-12.17,-14.11,-41.59,-694.824,-147.461,1999.939,-15.90,-5.25,-28.80,18.68
11798,-12.40,-6.18,-29.81,-717.285,148.926,1853.027,-16.50,-6.30,-29.40,18.49
11808,24.47,-5.99,-30.54,13.672,-562.988,813.965,-16.80,-6.30,-28.95,18.54
11818,-3.08,-13.08,-41.40,-619.629,-833.984,1624.512,-15.75,-4.35,-30.15,18.68
11828,10.85,-5.25,-41.71,878.418,-768.555,-143.066,-15.75,-4.35,-30.15,18.49
11838,-18.32,-7.50,-45.79,-1149.414,484.863,1034.180,-16.80,-4.65,-29.40,18.73
11848,6.95,-5.11,-44.31,110.840,-687.988,401.855,-17.40,-5.25,-31.05,18.68
11858,8.48,7.63,-39.21,-40.527,-34.180,932.129,-15.90,-5.25,-31.05,18.88
11870,10.87,6.49,-42.25,-33.691,-495.605,1032.715,-17.10,-4.95,-31.05,18.59
11880,-15.89,12.45,-63.39,-547.852,-783.203,1999.939,-17.10,-4.95,-31.05,18.59
11890,0.59,4.22,-112.60,140.137,-632.324,1115.723,-15.30,-4.65,-30.15,18.54
11900,-3.31,4.82,-46.76,-59.082,-394.531,1366.211,-15.15,-2.85,-31.50,18.73
11910,6.66,-6.39,-35.71,242.676,-451.172,1615.723,-15.15,-2.85,-31.50,18.49
11920,12.31,-6.69,-42.96,599.609,-1031.738,-126.953,-14.85,-4.35,-30.15,18.54
11932,13.85,-8.05,-35.38,854.980,-729.492,248.047,-15.45,-2.85,-32.25,18.68
11942,-25.69,-6.05,-42.07,-647.461,249.023,923.828,-15.15,-3.30,-31.05,18.54
11952,-5.05,-11.19,-36.95,208.984,-679.199,297.852,-14.10,-4.65,-30.15,18.92
11962,-18.73,-3.13,-47.00,33.203,92.285,485.352,-14.10,-4.65,-30.15,18.59
11972,-8.64,-6.71,-42.13,-32.227,-512.695,1752.930,-13.35,-4.35,-30.15,18.35
11982,12.21,-0.16,-39.17,918.457,-633.301,86.914,-14.40,-2.85,-29.10,18.54
11992,-3.82,1.08,-40.31,-674.805,-229.004,1119.141,-13.50,-2.55,-29.85,18.40
12004,0.75,7.52,-44.11,-495.117,68.848,842.773,-15.15,-3.30,-29.10,18.35
12014,7.87,0.54,-41.38,7.812,-799.316,1371.094,-15.15,-3.30,-29.10,18.30
12024,11.90,2.61,-29.68,394.531,-263.184,791.016,-14.55,-1.95,-30.90,18.68
12034,-0.27,-0.58,-41.69,46.387,-653.809,1473.145,-14.70,-3.75,-31.80,18.83
12044,4.23,-2.73,-36.98,510.742,-962.891,368.652,-16.20,-3.30,-33.30,18.73
12054,-7.89,-2.82,-43.27,-719.238,-241.211,1061.035,-14.10,-1.95,-31.65,18.73
12064,9.85,-0.04,-39.59,461.914,-849.121,446.289,-13.50,-4.50,-31.50,18.54
12076,-4.23,2.13,-36.80,-147.461,-347.168,687.500,-13.35,-1.95,-31.65,18.30
12086,-0.32,7.40,-43.23,-93.750,-262.207,713.379,-12.45,-2.55,-32.25,18.49
12096,7.14,-2.57,-40.44,-544.434,-654.785,1999.939,-12.45,-2.55,-32.25,18.40
12106,15.04,2.69,-39.44,766.602,-604.492,325.195,-12.75,-2.10,-30.75,18.54
12116,-17.86,2.63,-38.11,-527.344,-643.066,1999.939,-11.10,-2.25,-30.15,18.54
12126,-1.99,-0.02,-26.60,521.973,-655.762,-66.406,-11.85,-2.25,-31.20,18.68
12138,-2.84,-11.11,-36.92,462.891,-831.055,-215.332,-12.60,-1.50,-31.65,18.54
12148,-14.76,6.50,-41.36,-295.898,-2.441,822.754,-12.60,-1.50,-31.65,18.83
12158,-1.99,-0.77,-42.70,227.539,-703.613,1017.090,-12.75,-2.55,-30.30,18.49
12168,10.76,4.75,-41.59,-142.090,-541.504,667.480,-12.30,-0.75,-31.20,18.68
12178,-0.95,5.44,-44.80,-558.105,-285.645,1732.422,-11.85,-2.70,-29.40,18.49
12188,34.40,-2.85,-35.37,742.187,-723.633,723.633,-11.70,-2.85,-31.50,18.68
12198,-7.06,0.77,-38.57,-753.418,-550.781,1304.688,-11.70,-2.85,-31.50,18.54
12210,-23.70,1.47,-42.27,-648.437,-14.160,949.707,-12.60,-1.05,-32.40,18.68
12220,2.56,-10.61,-45.14,381.836,-919.434,822.266,-12.60,-1.05,-32.40,18.68
12230,-8.99,1.72,-40.31,213.379,-302.246,645.508,-11.25,-1.65,-32.25,18.54
12245,-2.13,-7.41,-47.11,-288.086,-415.527,1999.939,-11.25,-1.65,-31.80,18.68
12254,10.44,-5.44,-35.08,359.863,-384.277,1161.621,-10.50,0.15,-31.80,18.68
12264,-17.38,-5.98,-46.21,-792.969,146.484,1199.707,-9.30,-2.85,-30.75,18.83
12274,14.98,-4.52,-46.31,585.449,-954.590,-132.812,-9.30,-2.85,-30.75,18.54
12286,15.98,-2.51,-44.53,677.246,-609.375,-132.812,-11.25,0.15,-30.30,18.83
12296,2.84,-1.52,-39.92,-466.309,134.766,1495.605,-10.50,-1.35,-30.30,18.83
12306,9.89,-7.36,-36.50,196.289,-831.055,1151.855,-11.25,-0.45,-32.55,18.83
12316,5.06,0.10,-49.95,-317.383,-159.180,1544.434,-10.65,-0.75,-32.40,18.83
12326,-29.17,-2.20,-36.21,-778.809,-131.348,1983.887,-10.65,-0.75,-32.40,18.35
12336,5.90,3.32,-36.74,257.812,-387.207,1201.660,-10.95,-0.15,-31.80,18.73
12348,7.23,1.52,-41.09,418.457,-654.785,655.762,-8.40,-0.75,-30.90,18.40
12358,-31.88,-3.61,-53.92,-1051.270,277.344,1350.098,-8.40,-0.75,-30.90,18.73
12368,18.91,3.40,-30.12,200.684,-940.918,109.375,-10.35,0.30,-31.20,18.54
12377,2.27,0.76,-51.11,-402.344,-448.242,1412.109,-8.70,0.00,-30.90,18.59
12387,5.63,-4.91,-30.62,-48.340,-824.219,1757.324,-9.75,-1.65,-31.80,18.68
12397,3.11,4.12,-37.82,129.883,-590.332,519.531,-9.30,0.15,-33.00,18.35
12406,-11.24,2.02,-40.45,-376.465,24.414,1287.109,-9.30,0.15,-33.00,18.83
12418,4.12,4.12,-44.41,-343.750,-469.727,1013.184,-9.15,-0.30,-32.40,18.83
12428,10.09,-1.18,-43.09,-40.527,-632.812,859.863,-8.55,-0.15,-33.75,18.68
12438,18.15,0.15,-48.08,109.375,-708.008,1094.238,-9.30,-0.45,-32.55,18.73
12448,-0.90,-3.35,-40.82,-574.219,-784.180,1999.939,-9.15,-0.30,-32.70,18.54
12458,14.08,-5.78,-39.37,309.570,-430.664,1010.254,-9.15,-0.30,-32.70,18.35
12468,-11.50,-3.13,-44.65,-784.180,-17.578,1999.939,-7.05,0.15,-32.55,18.49
12478,10.54,2.46,-40.82,281.738,-693.359,251.465,-6.45,-0.30,-33.45,18.54
12490,21.02,1.73,-36.79,515.625,-806.641,272.461,-6.60,-0.90,-33.00,18.73
12500,-13.08,6.50,-40.89,-152.832,-112.793,1324.219,-5.85,0.45,-31.80,18.73
12510,4.63,-4.31,-44.62,522.461,-1083.496,-189.941,-6.90,1.05,-32.70,18.59
12520,-3.91,0.75,-44.33,-350.098,-133.301,1111.816,-7.95,0.00,-31.95,18.83
12530,-1.64,-2.19,-41.13,509.766,-976.562,1567.871,-7.95,0.00,-31.95,18.59
12540,-7.21,-2.51,-51.52,-230.957,-319.336,934.082,-7.05,0.90,-31.50,18.68
12550,8.18,-4.20,-41.85,370.117,-718.262,585.449,-7.20,0.00,-32.40,18.54
12562,1.74,-8.06,-41.47,-185.547,-995.117,1314.941,-6.90,2.25,-33.45,18.35
12572,-2.29,-4.96,-46.89,73.730,-381.348,583.496,-6.15,2.25,-31.95,18.16
12582,1.99,-1.50,-46.43,-291.016,-510.254,1843.750,-6.15,2.25,-31.95,18.49
12592,5.06,2.34,-50.03,-123.047,-788.086,634.277,-3.15,2.10,-34.50,18.73
12602,-9.60,5.08,-44.04,-606.934,-462.891,1999.939,-3.90,1.65,-33.30,18.59
12612,2.68,2.08,-57.37,192.871,-333.984,1514.160,-3.90,1.65,-33.30,18.54
12623,-0.73,1.57,-45.39,-496.582,-253.906,1358.887,-3.75,1.95,-35.40,18.68
12633,17.81,-3.63,-57.76,509.277,-600.586,300.293,-3.15,2.85,-33.00,18.54
12643,-17.77,-5.84,-49.04,-361.816,78.125,992.676,-3.90,1.35,-32.55,18.83
12653,7.50,-9.06,-40.39,620.605,-1065.430,348.633,-4.20,2.70,-33.45,18.88
12663,-8.44,-8.95,-50.01,-409.180,-811.523,744.141,-4.20,2.70,-33.45,18.54
12673,4.24,-11.72,-43.85,-37.109,-763.672,378.418,-4.80,0.90,-34.50,18.73
12683,-7.26,-0.74,-51.24,-546.387,-200.684,913.574,-3.75,1.95,-34.95,18.35
12695,10.21,-4.01,-42.69,-453.613,-564.453,976.074,-2.55,1.05,-36.15,18.59
12705,13.11,-0.88,-41.90,5.371,-1260.254,1410.156,-3.00,2.70,-33.90,18.54
12715,6.79,1.95,-46.50,-363.770,-562.012,668.457,-3.00,2.70,-33.90,18.49
12725,2.83,3.53,-41.63,-309.082,-841.309,1251.953,-1.65,2.10,-33.30,18.83
12735,2.74,-1.60,-44.32,-145.996,-775.879,951.172,-1.65,1.65,-32.25,18.54
12745,-4.67,-5.38,-46.80,-59.082,-487.305,1110.352,-1.65,1.65,-32.25,18.49
12761,1.73,1.15,-38.23,-209.961,-549.805,879.883,-0.15,0.45,-34.05,18.83
12771,8.85,1.36,-47.18,172.363,-665.527,1390.137,-0.75,1.05,-32.70,18.68
12781,7.05,-0.03,-50.82,-411.621,-166.504,1032.227,-1.65,0.15,-33.30,18.54
12791,19.79,1.74,-49.56,-30.762,-707.520,515.625,-1.65,0.15,-33.30,18.54
12801,4.53,5.20,-40.95,-486.328,-622.070,1386.230,-1.80,1.05,-32.40,18.73
12811,4.01,-4.44,-49.69,150.879,-1281.738,1053.223,-1.20,1.65,-33.30,18.49
12821,-17.15,6.32,-53.88,-92.285,-828.613,645.996,-0.45,0.45,-33.00,18.83
12833,-20.63,-1.15,-50.11,-211.914,-632.812,856.445,-0.90,1.35,-33.30,18.68
12843,-14.95,0.02,-39.06,92.285,-508.301,549.805,-0.90,1.35,-33.30,18.59
12853,-11.37,2.49,-46.96,-302.246,-73.242,1442.871,0.75,1.95,-31.95,18.59
12863,5.37,4.02,-46.48,-236.816,-500.488,1376.465,0.15,0.45,-33.30,18.59
12873,6.78,6.73,-32.83,-236.816,-642.090,863.770,0.15,0.45,-33.30,18.54
12883,1.79,5.89,-50.39,-668.945,-625.488,1069.336,1.50,1.05,-34.20,18.54
12892,-3.52,6.79,-49.67,-211.426,-853.516,576.172,0.90,1.65,-33.75,18.59
12904,-26.80,-4.73,-52.56,-397.949,-680.664,1789.063,1.05,1.05,-32.40,18.35
12914,-39.01,-4.20,-48.05,368.652,-119.629,1069.336,2.55,2.25,-33.15,18.83
12924,-22.63,-9.85,-47.33,-101.074,274.902,874.023,2.55,2.25,-33.15,18.59
12934,-0.69,-16.44,-47.24,-454.102,-7.324,1734.375,1.20,1.35,-32.55,18.54
12944,23.11,-22.03,-42.48,-144.531,-505.859,1982.422,1.50,0.75,-32.70,18.54
12954,23.53,-5.82,-43.75,-428.223,-582.520,935.059,1.80,1.05,-33.45,18.54
12964,18.15,-8.59,-52.97,-42.480,-771.484,1364.258,1.80,0.30,-33.15,18.73
12976,5.44,-10.53,-54.99,204.102,-829.102,1255.371,1.80,0.30,-33.15,18.54
12986,-6.21,-18.29,-62.07,-45.410,-607.910,351.562,1.65,1.65,-33.30,18.59
12996,-15.93,-27.94,-40.71,-144.043,-892.090,617.676,1.80,1.05,-32.70,18.73
13006,-7.48,-25.95,-55.04,395.508,172.852,1781.250,1.80,1.05,-32.70,18.88
13015,-1.63,-34.47,-37.65,263.672,-757.812,480.957,1.80,0.30,-33.90,18.68
13025,-3.66,-24.66,-64.11,-207.520,-737.305,739.258,0.75,0.30,-33.90,18.83
13035,-8.58,-24.78,-58.98,-599.121,-41.016,537.598,2.55,0.30,-33.45,18.54
13047,-15.33,-23.88,-57.76,-559.082,-115.234,1159.668,1.50,0.00,-33.15,18.73
13057,-0.62,-23.45,-48.11,250.977,-304.687,368.652,1.50,0.00,-33.15,18.68
13067,-8.82,-21.87,-40.29,-7.812,-124.023,502.441,2.10,0.45,-33.30,18.59
13077,-31.60,-21.69,-47.34,-156.738,-644.531,906.250,2.10,0.90,-32.55,18.54
13087,-19.11,-14.60,-54.39,-531.250,42.969,549.805,0.90,0.90,-32.55,18.49
13097,-9.89,-17.68,-44.47,-250.488,-598.633,1299.316,3.00,-0.30,-33.90,18.68
13109,6.79,6.76,-46.37,-552.734,-816.406,1674.805,3.00,-0.30,-33.90,18.68
13119,-5.21,13.64,-42.78,-585.449,-345.703,1999.939,3.45,0.75,-33.90,18.49
13129,5.64,17.20,-47.20,-224.121,-451.172,235.352,2.55,0.30,-33.90,18.68
13138,24.83,12.43,-41.75,-448.730,-388.672,708.984,2.85,0.90,-34.50,18.54
13148,5.37,16.33,-45.36,-112.793,-886.719,1104.492,3.00,1.05,-33.45,18.73
13157,-0.57,19.56,-57.70,-116.699,-1059.570,1165.039,2.55,2.70,-30.90,18.68
13167,2.75,33.35,-40.38,-526.855,-640.137,986.328,4.50,2.70,-32.40,18.68
13179,5.73,25.10,-48.56,-439.941,-99.609,1999.939,3.45,2.25,-32.40,18.54
13189,18.50,19.43,-48.49,-238.281,-567.871,1064.941,3.45,2.25,-32.40,18.68
13199,14.95,11.12,-43.47,152.344,-1077.148,603.027,4.50,0.30,-34.95,18.83
13208,-2.32,4.82,-51.68,6.836,-1088.379,1461.426,5.70,0.75,-34.20,18.88
13218,4.40,-6.78,-56.53,-151.367,-778.809,1574.219,5.70,1.05,-33.90,18.49
13228,0.23,-6.80,-63.31,-177.246,-982.422,876.953,5.70,0.30,-35.40,18.68
13238,-5.41,-11.80,-52.83,-5.371,-110.352,1153.320,5.70,0.30,-35.40,18.73
13250,11.82,-6.89,-59.73,294.434,-158.203,1318.359,5.85,0.90,-34.80,18.73
13260,-2.41,-3.66,-71.21,-411.621,-26.855,874.512,4.95,1.50,-34.95,18.73
13274,11.35,-8.85,-53.34,371.582,-1031.738,668.945,7.05,1.35,-34.80,18.59
13284,-15.50,6.52,-53.38,-153.320,-293.457,-87.402,7.05,-0.15,-34.50,18.35
13294,1.67,-4.91,-52.98,-201.660,-191.895,1229.492,5.55,0.15,-35.25,18.49
13304,-3.29,-0.14,-53.06,-251.953,-231.445,154.785,7.05,0.15,-34.05,18.68
13314,-0.50,4.32,-50.75,97.168,-397.949,315.918,7.05,0.15,-34.05,18.54
13323,0.05,2.59,-48.30,142.090,-1024.414,761.230,8.25,0.45,-34.50,18.59
13335,-5.17,-0.97,-48.95,-208.984,-285.156,582.031,8.55,0.90,-34.05,18.59
13345,-7.81,6.31,-53.34,113.281,-298.828,1351.563,8.25,0.45,-34.80,18.59
13354,-0.14,5.92,-47.79,-115.723,-258.789,1077.637,9.00,1.35,-34.50,18.83
13364,8.03,7.69,-47.09,41.504,-490.723,1053.711,9.00,1.35,-34.50,18.73
13373,2.47,1.15,-53.41,-44.922,-648.926,857.910,9.15,0.00,-34.65,18.49
13383,2.56,1.89,-48.95,-160.156,-936.523,985.352,10.65,-0.30,-34.95,18.49
13393,5.34,2.31,-46.77,-99.609,-593.750,1394.531,8.55,0.15,-35.55,18.35
13405,-4.73,2.53,-50.55,-441.406,-680.664,1090.332,9.60,0.00,-34.20,18.68
13415,0.95,1.51,-58.98,-33.203,-758.301,824.219,9.60,0.00,-34.20,18.40
13424,-4.08,-2.06,-53.48,-164.062,-366.699,1250.977,10.35,-0.30,-36.15,18.83
13434,-0.19,3.94,-50.98,-225.098,-624.512,957.031,11.10,-1.05,-33.45,18.83
13444,5.52,-0.31,-96.24,-168.945,-342.773,1033.203,11.10,-1.05,-33.45,18.68
13454,5.77,4.52,-45.41,-90.332,-859.863,1245.605,11.70,-0.90,-33.75,18.59
13466,1.78,4.15,-52.54,-120.117,-462.891,412.109,10.35,-0.75,-35.70,18.40
13476,5.35,2.59,-54.13,-106.445,-932.129,946.777,11.10,0.00,-35.70,18.54
13486,-4.80,1.37,-49.83,-109.863,-224.609,895.996,11.40,-0.30,-34.20,18.49
13496,0.27,4.18,-60.89,-187.988,-734.375,1083.008,11.40,-0.30,-34.20,18.54
13506,2.72,2.81,-45.56,-306.641,-236.816,1308.105,11.40,-1.05,-33.90,18.68
13516,0.99,3.69,-53.44,-86.914,-882.324,447.266,11.70,-1.35,-34.80,18.54
13526,-5.94,0.26,-46.96,64.941,-215.332,749.512,12.60,-0.30,-35.40,18.83
13538,1.36,3.65,-51.76,74.219,-395.508,315.430,13.05,-1.95,-34.20,18.83
13548,4.44,-5.32,-59.11,-13.184,-670.410,987.305,13.05,-1.95,-34.20,18.73
13558,5.18,-5.08,-52.31,5.371,-782.715,1225.586,12.75,-1.35,-34.50,18.54
13568,-2.50,-4.89,-47.07,-387.695,-614.746,1792.480,12.45,-2.10,-36.00,18.54
13578,8.93,-11.19,-49.82,23.437,-214.844,979.980,12.45,-2.10,-36.00,18.68
13588,7.00,-8.42,-43.29,-223.633,-355.469,1065.430,12.45,-2.55,-34.05,18.54
13598,6.29,-6.36,-48.97,62.012,-625.000,953.613,12.30,-0.30,-35.40,18.54
13610,2.07,-5.05,-52.33,-459.961,-489.746,766.602,13.20,-3.30,-34.05,18.68
13620,-13.47,-6.19,-51.07,-193.359,-402.344,1338.867,12.60,-1.95,-34.65,18.54
13630,-0.26,-6.45,-43.77,84.961,-618.164,1187.988,12.60,-1.95,-34.65,18.54
13640,0.87,-15.56,-46.82,25.391,-399.414,1379.883,13.80,-3.15,-36.90,18.54
13650,0.21,-4.48,-47.55,-329.102,-315.918,703.125,14.70,-0.90,-35.25,18.40
13660,0.31,0.98,-42.80,-148.926,-342.285,290.527,13.95,-2.55,-35.25,18.68
13670,6.89,-1.05,-50.24,116.211,-939.941,1874.023,14.10,-2.25,-35.40,18.73
13681,7.15,-0.86,-39.79,-69.824,-1263.184,1756.836,14.10,-2.25,-35.40,18.83
13691,-2.48,2.79,-41.27,-178.711,-640.625,795.898,14.55,-4.65,-35.40,18.83
13701,0.61,2.70,-46.37,-138.184,-190.918,471.191,15.30,-2.25,-35.70,18.54
13711,0.47,-1.60,-35.17,295.410,-145.996,1003.906,15.30,-2.25,-35.70,18.54
13721,-3.05,-0.27,-48.79,-10.742,-487.793,868.164,15.45,-2.85,-35.55,18.54
13731,4.19,-1.16,-44.15,-52.734,-384.766,1111.816,15.15,-2.85,-35.55,18.83
13743,2.53,5.04,-39.56,261.719,-324.707,747.559,14.85,-2.25,-35.70,18.73
13753,4.64,1.89,-36.27,-152.832,-1053.223,1482.422,14.85,-2.25,-35.70,18.59
13763,4.77,6.10,-46.61,-312.012,-546.387,675.293,16.20,-3.75,-35.25,18.83
13773,4.20,2.45,-42.18,-173.828,-652.832,549.805,15.15,-3.75,-35.55,18.88
13788,-0.69,6.08,-47.28,-27.832,-480.957,1219.238,15.45,-4.95,-36.00,18.73
13797,-5.43,6.43,-40.55,24.902,-180.664,1761.719,17.10,-2.85,-36.30,18.68
13809,3.17,7.18,-46.51,-36.621,-634.277,626.465,17.10,-2.85,-36.30,18.54
13819,11.50,-0.05,-47.96,13.672,-194.336,1095.215,16.50,-3.45,-33.45,18.59
13829,14.42,4.35,-45.92,205.566,-656.250,1967.773,17.55,-3.45,-35.70,18.68
13838,7.37,-2.60,-42.14,339.355,-950.684,991.699,17.55,-3.45,-35.70,18.54
13848,-15.58,4.98,-41.42,-178.223,-744.629,394.531,16.65,-3.75,-35.55,18.54
13858,-10.98,-1.30,-38.76,-278.320,-661.133,712.891,19.20,-4.35,-36.15,18.59
13868,-8.97,2.61,-45.29,-56.641,-48.828,858.398,17.25,-4.65,-38.10,18.73
13880,-1.63,1.95,-44.84,271.973,-434.082,132.324,16.80,-5.10,-34.95,18.54
13890,13.90,-3.92,-52.24,583.984,-500.977,-97.168,16.80,-5.10,-34.95,18.54
13900,-1.60,-7.07,-37.18,-528.320,-407.227,1926.758,18.15,-3.30,-36.00,18.68
13910,1.57,-3.15,-45.17,-217.285,-953.613,1517.090,18.00,-5.85,-34.65,18.83
13920,0.32,-3.38,-43.11,230.957,-770.020,992.676,17.25,-5.55,-35.40,18.54
13930,-0.73,-1.79,-39.00,-103.516,-171.875,1321.777,18.00,-5.85,-35.40,18.59
13940,1.60,10.00,-42.85,369.141,-656.250,729.980,18.00,-5.85,-35.40,18.59
13952,-5.02,1.87,-39.58,-130.371,-428.711,1546.875,19.20,-3.90,-36.15,18.73
13962,-18.15,4.16,-40.01,35.645,-281.250,964.355,17.25,-5.85,-34.20,18.30
13972,1.73,3.95,-43.90,-448.242,21.973,1076.660,17.25,-5.85,-34.20,18.59
13982,7.85,7.42,-42.25,-156.738,-135.742,1236.328,17.55,-5.85,-34.65,18.73
13992,14.12,11.06,-40.90,367.187,-501.465,380.371,18.45,-7.50,-35.70,18.83
14002,10.57,9.81,-41.08,81.543,-573.242,1128.906,18.90,-5.25,-35.25,18.59
14014,6.43,8.21,-41.53,-41.992,-614.746,549.805,18.00,-6.75,-34.65,18.88
14024,5.38,7.27,-43.40,9.766,-536.621,1508.789,18.60,-6.45,-36.00,18.73
14034,2.09,6.88,-38.26,159.668,-1000.000,1529.785,17.85,-7.65,-36.00,18.59
14043,-8.23,7.44,-38.25,258.301,-408.203,1087.402,17.85,-7.65,-36.00,18.73
14053,-4.72,-5.40,-49.16,-213.379,-633.301,1934.082,19.95,-8.25,-36.60,18.73
14063,1.51,-3.93,-41.81,-95.703,-698.242,395.020,19.95,-8.25,-35.40,18.68
14073,-2.29,-7.75,-42.17,-2.441,-263.184,1714.844,19.95,-8.25,-35.40,18.73
14085,3.59,-6.46,-44.24,-13.672,-357.422,1165.527,20.10,-7.65,-36.75,18.73
14095,-3.24,-8.44,-43.06,-126.953,-538.574,1331.543,20.25,-5.85,-36.90,18.49
14105,-0.11,-3.98,-42.13,15.137,-500.000,445.801,19.65,-8.55,-36.00,18.35
14115,7.26,-5.63,-39.54,-174.316,-496.094,969.727,19.65,-8.55,-36.00,18.40
14125,0.53,-10.56,-42.60,62.500,-989.258,945.801,19.50,-7.50,-35.70,18.68
14135,-5.53,-4.37,-46.60,320.801,415.039,781.250,20.10,-8.85,-37.05,18.49
14145,0.29,3.24,-38.11,679.199,-344.238,649.902,20.10,-8.85,-37.05,18.68
14157,8.11,-1.40,-37.25,-324.219,-236.816,340.332,19.35,-9.30,-36.30,18.83
14167,-2.22,2.24,-36.37,502.441,-564.941,943.359,20.85,-8.10,-36.00,18.54
14177,-14.42,-2.33,-39.70,-303.711,-161.133,734.863,21.45,-8.70,-36.15,18.68
14187,13.05,-7.50,-37.58,19.531,-1160.645,85.938,20.10,-9.30,-37.05,18.35
14197,15.80,-3.37,-35.66,-75.195,-329.102,990.723,20.10,-9.30,-37.05,18.49
14207,-6.96,-1.44,-33.00,8.789,-532.715,1281.738,20.70,-9.45,-37.35,18.73
14217,-1.35,-4.40,-38.70,-85.449,-619.629,756.348,19.50,-8.25,-37.35,18.83
14229,0.22,-6.43,-51.32,-199.707,-500.977,1006.348,21.30,-8.55,-36.75,18.59
14239,6.22,3.92,-40.66,-305.176,-243.164,1980.957,20.70,-9.90,-36.15,18.40
14249,3.67,9.29,-30.27,-411.621,-896.484,1999.939,20.70,-9.90,-36.15,18.92
14259,-0.95,6.91,-39.34,41.504,-249.023,1000.488,20.85,-10.05,-35.25,18.83
14269,6.38,9.19,-34.81,299.316,-385.254,1469.727,20.85,-7.65,-39.00,18.30
14279,8.04,2.82,-41.53,-61.035,-463.867,1424.316,20.85,-7.65,-39.00,18.83
14289,3.09,6.52,-37.17,186.035,-720.215,176.758,21.90,-10.65,-37.35,18.83
14306,-12.05,10.05,-36.48,-261.230,-236.816,1518.066,23.55,-9.75,-38.25,18.68
14315,-9.37,2.40,-30.18,20.020,-465.820,865.234,20.10,-11.25,-37.50,18.68
14325,-7.69,7.68,-40.06,264.160,-128.906,537.598,20.10,-11.25,-37.50,18.54
14335,-8.67,2.51,-30.47,-18.066,-165.527,1171.387,22.20,-11.55,-37.35,18.73
14345,-5.49,2.24,-35.44,-510.254,-164.551,1907.227,22.05,-11.25,-38.55,18.40
14355,6.38,1.37,-40.52,159.180,-489.258,320.801,22.05,-11.70,-36.75,18.73
14364,8.45,-0.73,-41.08,31.250,-832.031,407.715,21.60,-12.45,-39.00,18.83
14376,-3.61,-7.11,-44.37,-464.355,-528.320,1864.746,21.60,-12.45,-39.00,18.73
14386,5.98,-1.95,-44.88,262.207,-459.961,282.227,22.95,-10.35,-36.15,18.83
14396,-18.10,2.41,-41.08,6.836,44.922,651.855,22.05,-9.75,-37.50,18.49
14405,-7.11,2.31,-41.46,-192.871,-223.145,1022.949,22.05,-9.75,-37.50,18.49
14415,-6.89,0.82,-58.61,-298.828,-342.285,893.066,22.35,-12.45,-39.00,18.54
14425,4.64,-0.59,-45.94,501.465,-451.172,678.223,22.20,-10.65,-38.40,18.68
14435,-16.24,3.95,-44.69,299.316,-231.934,824.219,22.95,-13.05,-38.10,18.73
14447,6.23,1.33,-39.87,11.719,-262.207,549.316,22.80,-12.15,-38.25,18.54
14457,-2.12,7.19,-41.32,-634.277,-71.777,1670.410,22.80,-12.15,-38.25,18.73
14467,13.73,3.95,-38.88,-129.395,-523.437,1281.738,23.70,-13.50,-37.65,18.59
14477,3.08,1.78,-42.11,399.414,-795.410,618.652,22.80,-12.90,-39.30,18.49
14486,-1.07,1.78,-36.97,370.605,-591.309,587.891,24.60,-14.25,-37.65,18.68
14496,-15.73,2.87,-43.41,283.203,-422.852,1039.063,24.30,-12.90,-39.00,18.83
14506,-1.99,-8.82,-33.08,-274.902,-856.934,1816.406,24.30,-12.90,-39.00,18.54
14518,-17.41,-6.68,-42.19,-714.355,-88.379,1899.414,24.75,-13.65,-38.55,18.49
14528,15.12,-4.37,-40.16,709.473,-44.434,710.937,23.55,-14.40,-39.30,18.68
14538,12.82,1.11,-43.96,272.949,-337.891,1201.172,23.55,-14.40,-39.30,18.59
14548,14.36,-6.69,-39.48,-299.805,-537.598,1326.660,23.55,-16.05,-37.05,18.59
14558,8.66,-2.07,-42.51,52.734,-453.613,305.176,22.95,-13.50,-39.60,18.54
14568,9.03,2.56,-41.99,-396.484,-398.926,1381.836,24.60,-13.80,-37.35,18.73
14580,-6.47,4.67,-41.08,-30.273,-609.375,816.895,24.30,-15.30,-38.55,18.83
14590,-12.91,7.47,-43.30,305.664,-867.676,915.039,24.30,-15.30,-38.55,18.54
14600,-15.56,3.78,-36.31,-135.742,-749.023,1078.125,24.30,-15.60,-37.80,18.73
14610,-10.08,2.53,-39.66,-135.254,-534.180,814.941,22.95,-13.80,-39.15,18.73
14620,-8.08,3.20,-38.05,118.164,-484.863,931.152,25.35,-13.80,-38.40,18.73
14630,-13.73,-2.24,-50.41,-557.129,-247.559,1218.262,25.05,-16.50,-39.00,18.40
14640,8.00,0.85,-50.64,605.469,-396.484,537.598,25.05,-16.50,-39.00,18.73
14652,-0.86,-0.89,-38.53,-219.238,-888.184,928.223,25.35,-15.45,-38.85,18.54
14662,-1.85,-0.44,-40.73,-36.621,-787.109,585.937,23.55,-15.60,-40.05,18.59
14672,-7.64,0.06,-49.89,-370.605,-349.609,1014.648,25.65,-14.70,-38.10,18.88
14682,-1.72,1.58,-42.30,-264.160,-131.348,1481.934,25.35,-17.10,-37.65,18.73
14692,4.69,5.59,-37.42,437.500,-520.996,840.820,24.90,-14.70,-39.60,18.83
14702,0.63,5.95,-48.85,-204.102,-281.250,854.492,24.00,-16.80,-37.05,18.54
14714,5.93,9.57,-49.55,-48.828,-55.664,568.359,24.90,-17.85,-38.85,18.73
14724,5.27,6.69,-48.67,-172.852,-280.273,691.895,24.90,-17.85,-38.85,18.40
14734,15.47,-6.62,-50.63,-292.480,-1051.758,979.980,24.30,-18.00,-39.30,18.49
14744,-5.48,4.85,-50.19,277.344,-576.660,632.812,24.75,-17.70,-38.25,18.54
14754,-3.28,4.82,-43.80,342.773,-797.363,1232.910,24.75,-17.70,-39.00,18.54
14764,-6.35,-3.95,-50.29,-101.563,-852.051,1620.605,24.60,-19.50,-39.60,18.49
14774,-5.31,1.92,-39.96,175.781,-862.793,399.414,24.60,-19.50,-39.60,18.68
14787,-5.05,-7.88,-52.07,142.578,-489.746,933.594,24.00,-17.70,-39.00,18.54
14797,-5.50,-1.08,-41.70,-182.617,-550.781,1693.848,25.35,-18.60,-38.10,18.73
14807,-4.27,-2.86,-47.79,-439.941,-734.375,1053.223,25.35,-21.00,-39.15,18.59
14829,-9.57,-1.44,-43.56,-536.621,-498.047,1314.941,24.75,-18.00,-39.30,18.30
14838,2.61,0.95,-42.70,141.113,-264.648,653.809,24.75,-20.40,-39.00,18.59
14848,0.98,-3.28,-44.46,-84.961,-638.184,901.367,24.75,-20.40,-39.00,18.73
14858,-0.24,-2.65,-39.97,-479.980,-774.414,1139.648,24.90,-20.70,-38.10,18.68
14870,-12.18,7.21,-54.92,-528.320,-25.879,759.277,24.90,-20.25,-39.15,18.83
14880,5.60,1.06,-33.52,-7.324,-552.734,650.879,24.90,-19.05,-40.35,18.83
14890,-1.36,2.63,-42.98,78.613,-262.207,1326.660,24.30,-20.10,-39.75,18.83
14900,-2.98,4.43,-43.48,-91.309,-873.047,1483.398,24.30,-20.10,-39.75,18.59
14910,-7.79,5.22,-46.60,-248.047,-207.031,1436.523,24.75,-20.40,-38.55,18.83
14920,0.43,5.47,-48.47,215.820,-165.527,541.016,24.15,-21.45,-38.40,18.49
14929,-2.90,6.40,-41.76,-438.477,-60.547,933.105,23.70,-19.80,-39.60,18.88
14941,0.32,2.32,-32.26,246.582,-176.758,1218.262,25.65,-21.00,-38.40,18.88
14951,-11.24,-3.34,-56.65,-723.633,-855.957,1821.289,25.65,-21.00,-38.40,18.83
14961,10.00,-7.44,-40.98,300.781,-661.621,417.480,25.50,-21.30,-39.75,18.73
14971,-12.03,5.34,-49.81,-162.109,-55.664,433.594,25.50,-23.25,-39.30,18.83
14981,-1.01,-0.98,-48.65,-132.812,-671.875,1297.852,25.50,-23.25,-39.30,18.68
14991,-1.02,-0.60,-86.45,124.512,-656.250,1415.527,24.90,-21.00,-39.60,18.59
15003,-1.05,1.02,-35.52,26.367,-690.430,570.312,24.30,-23.70,-39.75,18.54
15013,-5.42,0.43,-36.02,353.516,-786.133,561.035,24.15,-23.10,-39.60,18.49
15023,-18.56,0.56,-43.40,-709.473,-346.191,1718.750,24.60,-22.65,-38.85,18.35
15033,6.21,1.78,-38.93,333.496,-923.340,702.148,24.60,-22.65,-38.85,18.54
15042,8.27,-2.86,-47.57,318.359,-540.039,742.187,24.75,-22.50,-40.50,18.68
15052,-14.33,0.78,-55.76,-127.930,-336.426,840.820,24.90,-24.30,-38.10,18.83
15062,9.65,-2.30,-45.26,395.020,-851.074,42.480,25.50,-24.90,-40.50,18.49
15074,-1.50,-8.52,-50.63,-551.758,-605.469,1802.246,24.30,-24.45,-40.80,18.68
15084,5.91,-4.66,-43.97,270.020,-60.059,1781.250,24.30,-24.45,-40.80,18.54
15094,-10.21,-6.60,-52.05,-731.934,-505.371,1999.939,25.05,-24.90,-39.30,18.73
15104,5.15,-3.79,-49.82,349.609,-629.395,746.582,22.80,-23.70,-39.75,18.88
15114,-13.00,-10.14,-41.28,-377.441,-833.984,1999.939,22.80,-23.70,-39.75,18.88
15124,9.45,-4.40,-40.26,595.215,-792.969,98.145,24.15,-25.80,-39.90,18.83
15136,16.46,-5.32,-39.50,419.922,-1077.148,-614.258,24.90,-26.25,-1.50,18.83
15146,3.66,8.31,-67.00,-310.059,-279.785,-254.395,22.65,-24.60,-39.60,18.73
15156,-5.14,-2.45,-56.10,171.875,-1513.672,1321.289,22.65,-24.60,-39.60,18.59
15166,2.40,4.92,-50.06,256.836,-209.961,1379.883,22.80,-27.60,-39.75,18.49
15176,-21.31,5.62,-43.37,-512.207,-398.437,709.961,23.40,-24.30,-40.35,18.73
15186,2.53,-6.14,-43.04,411.133,-938.965,235.352,23.40,-24.30,-40.35,18.88
15196,2.18,2.11,-39.19,138.672,-304.687,327.148,24.15,-27.00,-39.15,18.73
15208,10.11,-3.33,-45.45,127.441,-443.848,1400.879,24.15,-27.00,-39.15,18.73
15218,-19.03,5.85,-50.76,-522.461,-489.746,1999.939,24.00,-26.40,-39.00,18.73
15228,12.56,-3.02,-46.76,393.066,-649.414,288.086,24.00,-28.80,-40.50,18.83
15238,-2.96,2.69,-39.91,-160.645,-285.156,880.859,22.95,-25.80,-39.90,18.83
15248,10.46,-0.33,-42.22,-233.398,-907.715,1593.262,23.40,-27.00,-39.60,18.54
15258,4.26,1.18,-54.20,337.402,-437.012,523.926,23.40,-27.75,-39.90,18.73
15267,9.14,0.40,-64.58,135.742,-200.684,1412.598,23.55,-26.85,-39.00,18.73
15279,8.22,6.28,-65.08,374.023,-834.473,476.562,24.30,-28.80,-39.00,18.83
15289,-12.17,3.82,-38.44,-913.574,-305.176,1999.939,24.30,-28.80,-39.00,18.88
15299,11.90,-4.80,-50.47,566.406,-1355.469,986.328,23.25,-28.35,-39.75,18.59
15309,-10.85,8.61,-42.85,313.477,-299.805,1014.160,22.65,-28.95,-39.60,18.54
15319,-5.69,-6.14,-45.77,-582.031,-781.738,1999.939,22.95,-26.55,-40.65,18.40
15329,10.80,4.39,-46.92,724.121,-778.320,39.551,22.65,-28.95,-38.40,18.68
15346,8.08,3.56,-49.63,-127.441,-525.879,526.855,22.65,-28.95,-38.40,18.68
15356,-2.27,-1.43,-44.05,-456.543,-1156.250,1999.939,23.25,-28.35,-40.05,18.59
15366,16.77,2.20,-43.95,45.410,-541.504,1171.875,23.70,-28.95,-38.85,18.54
15375,-2.52,5.75,-47.82,-127.441,-97.656,723.633,22.80,-31.20,-40.05,18.73
15385,-10.95,-0.69,-30.70,-133.789,-1201.660,1951.660,23.40,-28.20,-39.90,18.54
15397,-26.65,-19.90,-43.56,-926.270,-477.051,1999.939,21.90,-29.85,-39.15,18.68
15407,14.98,-4.55,-48.21,839.355,-638.184,614.258,22.05,-29.55,-39.75,18.54
15417,-27.58,-9.15,-53.88,-715.820,-375.000,1990.234,22.05,-29.55,-39.75,18.54
15427,14.29,-2.78,-41.76,437.500,-1130.859,-354.980,21.45,-30.15,-40.35,18.54
15437,-2.05,-0.60,-56.98,-442.871,-146.484,920.410,21.30,-29.55,-40.50,18.83
15447,14.29,-8.62,-44.25,376.953,-1076.660,501.465,22.65,-32.25,-39.90,18.54
15457,6.86,1.63,-41.99,331.055,-372.070,1607.422,21.00,-31.05,-40.35,18.54
15469,21.63,-6.92,-39.04,447.266,-641.602,758.301,21.00,-31.05,-40.35,18.59
15479,-21.19,-3.69,-43.34,-1084.473,2.930,1999.939,21.00,-31.05,-41.10,18.73
15489,17.02,-6.12,-46.39,640.625,-1116.211,650.879,21.90,-31.35,-40.65,18.49
15499,-8.65,10.36,-44.76,129.883,-35.156,1012.695,21.30,-31.20,-39.30,18.54
15509,0.48,-0.82,-45.70,-267.090,-729.980,1999.939,20.85,-31.95,-39.00,18.68
15519,5.85,3.00,-40.09,617.187,-578.613,670.410,20.85,-31.95,-39.00,18.68
15528,0.63,1.02,-43.77,-577.148,79.102,446.777,20.85,-31.65,-39.75,18.73
15540,11.15,4.39,-41.56,-60.547,-44.434,1094.727,19.35,-31.65,-39.75,18.73
15550,9.35,-6.96,-43.27,-459.473,-1733.398,1999.939,19.35,-31.65,-39.75,18.68
15560,17.83,0.25,-39.34,422.852,-809.082,236.328,20.70,-32.55,-39.15,18.30
15570,-36.20,-2.54,-44.67,-1421.875,82.520,1336.914,20.70,-31.35,-41.40,18.73
15580,8.35,-5.36,-44.89,743.164,-1142.578,-914.062,20.25,-31.05,-39.90,18.54
15590,-15.57,1.55,-44.80,-630.371,491.211,1433.105,19.65,-31.95,-39.75,18.73
15602,-7.32,-0.36,-49.19,-330.566,-211.914,498.047,19.65,-31.95,-39.75,18.83
15612,0.76,0.51,-39.07,-350.586,-552.734,1999.939,19.65,-32.40,-40.05,18.59
15622,21.14,4.21,-33.21,41.992,-620.117,833.008,19.20,-33.45,-39.90,18.59
15631,5.45,12.98,-32.72,-3.906,-336.914,647.461,19.65,-32.85,-39.30,18.30
15641,5.10,-0.29,-38.12,55.664,-1353.516,1165.039,19.50,-32.55,-38.85,18.54
15651,10.13,3.58,-42.89,214.355,-627.441,681.152,19.50,-32.55,-38.85,18.88
15660,-12.48,5.62,-51.69,-30.273,-89.355,822.266,19.35,-33.60,-40.50,18.68
15672,-2.89,1.14,-46.47,-45.898,-380.859,1058.105,19.65,-33.60,-39.75,18.83
15682,1.23,-2.10,-46.21,-440.430,-499.512,1939.453,19.95,-33.75,-40.35,18.68
15692,12.69,-7.40,-41.03,77.637,-458.984,645.996,18.90,-32.85,-39.75,18.68
15702,-20.18,1.59,-48.38,-1324.219,224.121,1283.691,18.90,-32.85,-39.75,18.49
15712,23.50,-0.15,-45.73,531.250,-1005.859,0.000,18.75,-34.20,-39.60,18.83
15722,-5.73,2.65,-42.96,-254.395,-14.648,567.383,18.60,-33.15,-40.80,18.83
15732,7.05,-2.83,-44.61,456.543,-1061.523,571.289,18.60,-33.15,-40.80,18.73
15744,-3.35,-5.21,-60.50,51.758,-764.160,1099.609,18.15,-34.05,-40.05,18.83
15754,15.02,1.28,-19.37,152.344,228.516,1570.801,19.20,-33.00,-38.40,18.73
15763,-25.15,-5.53,-49.23,-414.062,245.117,1398.926,18.75,-34.95,-38.40,18.73
15773,7.94,-12.39,-35.22,777.832,-1203.125,-476.074,17.55,-34.65,-38.10,18.40
15783,-9.87,2.51,-49.50,-733.887,139.648,392.090,17.55,-34.65,-38.10,18.83
15793,10.60,-5.81,-43.55,570.801,-1291.992,750.000,17.40,-33.60,-37.80,18.73
15805,6.84,-1.78,-32.25,-58.105,-715.820,987.305,17.25,-34.20,-39.60,18.73
15815,14.35,0.20,-42.43,-236.328,-674.805,709.961,18.75,-33.75,-39.15,18.54
15825,3.75,-0.23,-36.45,-466.797,-616.211,1999.939,16.50,-36.15,-38.85,18.73
15835,14.23,-0.05,-29.89,589.355,-474.121,809.082,16.50,-36.15,-38.85,18.59
15845,-5.76,4.08,-31.73,-383.301,-343.262,1806.152,16.50,-33.75,-38.85,18.54
15859,6.83,-4.10,-30.98,220.703,-836.426,471.680,15.90,-35.25,-37.80,18.59
15869,-6.82,3.61,-32.68,110.352,-190.430,916.016,16.80,-35.85,-38.40,18.83
15880,14.95,-8.85,-31.88,554.687,-953.125,468.262,15.90,-35.55,-39.75,18.73
15890,-4.18,-3.15,-29.88,-371.094,-87.402,681.641,15.45,-34.35,-38.25,18.68
15900,-8.63,-8.69,-33.72,801.270,-535.156,1166.016,16.65,-34.80,-38.25,18.88
15910,-5.71,-3.53,-38.33,-347.168,229.004,1193.359,16.65,-34.80,-38.25,18.40
15920,-4.31,-4.35,-36.32,-591.797,-677.734,1999.939,15.75,-34.20,-38.85,18.68
15930,32.78,-0.75,-34.11,154.785,-816.406,1039.551,16.20,-35.25,-38.55,18.59
15940,-7.22,15.60,-28.89,-671.387,-1090.332,1999.939,14.85,-37.05,-38.40,18.68
15952,-34.65,3.29,-26.37,-1171.875,290.039,718.750,14.70,-34.80,-38.55,18.83
15962,15.03,0.39,-44.53,504.395,-536.133,257.812,14.70,-34.80,-38.55,18.73
15971,4.55,5.94,-34.28,-139.648,-232.422,1449.707,15.45,-36.45,-37.80,18.73
15981,-7.07,5.45,-32.27,-539.062,-1181.152,1999.939,14.55,-34.95,-38.85,18.54
15991,13.70,-0.27,-38.27,793.457,-403.809,745.605,15.45,-36.45,-37.50,18.54
16001,-16.02,3.32,-38.26,-704.102,-636.230,1999.939,14.70,-36.75,-37.80,18.73
16013,-25.56,-5.69,-35.34,-981.445,708.008,1170.410,15.45,-36.00,-38.25,18.83
16023,13.82,-5.44,-31.69,514.160,-481.934,744.629,16.20,-36.75,-39.00,18.83
16033,-1.15,-1.27,-31.54,-312.500,-54.688,880.371,13.50,-36.45,-36.75,18.83
16043,12.34,-3.06,-26.99,860.352,-1124.512,132.324,13.50,-36.45,-36.75,18.83
16053,7.88,7.73,-35.47,-507.324,-236.328,1079.590,15.30,-37.35,-38.85,18.68
16063,12.81,-7.24,-28.02,-452.148,-610.352,1999.939,13.95,-37.20,-38.25,18.49
16073,16.14,5.89,-38.24,493.652,-380.371,914.551,14.10,-36.15,-39.15,18.88
16085,6.51,-0.25,-30.18,300.293,-604.004,1720.703,13.35,-36.60,-37.35,18.49
16095,-39.15,-5.73,-20.84,-964.355,-298.340,1999.939,13.35,-36.60,-37.35,18.73
16105,4.81,-7.76,-36.90,437.500,-30.273,883.789,14.55,-37.80,-38.10,18.59
16115,-8.23,1.63,-27.95,-732.910,-237.793,952.637,13.50,-37.95,-36.75,18.92
16125,26.98,-3.08,-26.54,611.816,-528.809,-290.039,13.80,-36.60,-36.15,18.92
16135,-9.68,-6.89,-24.24,-593.750,-775.391,1479.004,13.35,-35.40,-38.40,18.54
16145,20.66,1.85,-28.60,635.742,-367.187,1238.281,13.35,-35.40,-38.40,18.54
16157,19.29,4.06,-27.87,599.609,-735.352,-324.707,13.95,-37.20,-39.00,18.54
16167,-20.66,7.19,-22.89,-1233.398,385.254,834.961,13.35,-36.15,-37.65,18.40
16177,18.37,4.02,-16.97,1062.012,-779.297,-212.891,13.35,-36.15,-37.65,18.73
16187,-17.04,5.57,-28.37,-561.523,461.426,1040.039,13.35,-37.35,-38.10,18.73
16197,15.70,4.26,-8.28,708.984,-1060.059,-920.898,13.95,-36.75,-36.30,18.92
16207,-3.88,10.28,-34.26,-549.316,265.625,68.848,13.80,-38.55,-38.10,18.73
16219,6.24,9.48,-27.86,18.555,145.996,1223.633,12.75,-36.75,-38.55,18.54
16228,-6.13,-2.83,-20.56,-573.242,-367.187,1726.074,12.75,-36.75,-38.55,18.54
16238,15.27,-2.79,-27.40,590.332,-591.309,326.660,12.75,-37.20,-37.05,18.54
16248,-11.18,-0.21,-26.34,-657.715,835.449,641.602,12.45,-36.45,-38.55,18.83
16258,13.87,-10.18,-30.30,934.570,-1349.121,-652.344,13.50,-36.75,-37.50,18.88
16268,-13.99,3.15,-26.77,-168.945,145.020,254.395,13.50,-37.20,-37.05,18.83
16278,12.47,-9.47,-9.50,735.352,-868.652,74.219,13.50,-37.20,-37.05,18.68
16290,5.16,-6.78,-15.18,771.484,-466.309,44.434,13.05,-36.15,-38.10,18.73
16300,-6.83,1.76,-26.08,-422.363,196.289,567.871,13.05,-36.15,-38.10,18.73
16310,11.26,0.60,-21.56,845.215,-732.910,544.434,12.45,-36.00,-37.50,18.40
16320,9.35,2.35,-15.48,-732.910,146.484,1706.055,13.20,-37.65,-37.80,18.49
16329,-12.46,2.11,-22.79,-229.004,-425.293,1416.992,12.60,-37.05,-37.80,18.54
16339,16.19,-2.31,-13.18,369.629,-702.148,602.539,13.20,-36.75,-38.25,18.83
16351,12.10,-0.08,-20.86,595.703,-269.531,-223.145,13.20,-36.75,-38.25,18.83
16361,-17.91,-6.37,-16.44,-974.609,268.066,1180.176,12.45,-36.45,-37.80,18.54
16376,19.34,-2.27,-8.63,592.773,-829.102,-167.969,12.75,-37.20,-37.50,18.54
16385,-12.53,-3.41,-21.53,-555.176,81.055,985.352,12.30,-37.80,-38.10,18.54
16395,10.49,-7.65,-26.16,141.602,-432.617,856.445,13.35,-36.15,-37.65,18.88
16405,2.02,-1.81,-17.42,88.867,-155.762,988.281,13.35,-36.15,-37.65,18.83
16415,8.92,-2.40,-20.66,-99.609,-248.047,1137.207,11.25,-36.45,-39.75,18.68
16425,8.34,1.60,-16.82,61.035,-872.559,1113.281,13.05,-35.85,-38.40,18.73
16436,4.47,-1.02,-18.37,359.375,-546.387,890.137,13.05,-35.85,-38.40,18.49
16446,-7.02,-0.01,-27.69,-184.570,-242.676,252.441,12.75,-37.20,-37.05,18.30
16456,4.26,3.66,-21.21,-42.480,-227.539,1127.930,12.60,-36.15,-37.35,18.73
16466,-0.04,10.38,-25.57,114.746,-219.727,584.961,12.30,-36.60,-37.35,18.68
16476,-16.21,5.18,-30.13,16.113,-590.332,910.156,12.60,-35.40,-38.40,18.83
16486,-2.73,4.47,-30.76,11.719,-509.277,727.051,12.60,-35.40,-38.40,18.73
16498,6.33,2.63,-23.07,-475.586,-76.172,1316.895,12.45,-37.95,-37.05,18.73
16508,6.84,-3.18,-25.08,112.305,-462.402,1534.668,11.40,-36.60,-39.15,18.73
16518,3.67,7.61,-32.98,92.773,-442.871,886.719,13.35,-36.15,-38.10,18.59
16527,0.36,3.15,-21.29,-342.773,-255.859,1073.730,13.35,-36.60,-37.35,18.83
16537,7.40,0.04,-36.90,-178.711,-798.828,1251.953,13.35,-36.60,-37.35,18.83
16547,-3.76,14.23,-24.15,-370.117,-660.645,1014.160,14.40,-36.45,-37.80,18.73
16557,-1.47,0.07,-32.45,-314.453,-709.473,941.895,11.25,-37.20,-39.00,18.83
16569,-1.62,1.51,-35.16,-129.883,-513.672,808.594,13.20,-37.20,-38.55,18.68
16579,-8.46,3.99,-35.05,-125.000,-630.371,824.219,13.95,-37.35,-38.85,18.83
16589,-7.05,-0.83,-40.90,-133.301,-303.711,1231.445,13.95,-36.45,-38.25,18.49
16599,7.73,-2.88,-36.69,18.555,-716.309,935.059,12.30,-35.85,-38.40,18.59
16609,17.78,-0.37,-70.67,-81.055,-513.184,1072.266,13.20,-36.45,-38.55,18.59
16619,-40.54,3.00,-250.14,-180.176,-945.801,837.891,13.20,-36.45,-38.55,18.73
16629,-8.93,1.10,-64.40,-332.031,-553.711,879.395,11.40,-37.35,-36.90,18.83
16641,-20.95,0.31,-40.34,-141.602,-679.687,1398.926,12.30,-36.60,-36.15,18.59
16651,-13.00,-4.86,-47.40,-181.152,-418.457,1104.980,11.70,-37.95,-37.50,18.83
16661,-16.76,0.20,-53.74,-172.852,-318.848,759.277,11.70,-37.95,-37.50,18.54
16671,-4.76,-2.30,-46.92,-410.156,-210.449,1217.285,12.30,-38.25,-39.15,18.54
16681,1.07,-4.01,-43.74,-92.773,-661.133,1113.281,12.00,-37.65,-37.05,18.73
16691,1.52,0.31,-53.47,-335.937,-554.687,964.355,10.95,-38.70,-38.25,18.54
16703,3.48,-5.22,-49.18,60.547,-696.777,1199.219,11.40,-38.25,-39.15,18.68
16713,-2.50,-2.96,-50.05,-87.891,-245.605,1035.156,11.40,-38.25,-39.15,18.73
16723,7.04,0.10,-51.05,-86.914,-927.734,990.723,11.10,-38.25,-38.10,18.83
16733,2.91,-1.43,-51.26,-73.730,-648.926,1084.473,11.10,-38.55,-36.15,18.73
16743,-9.19,0.95,-70.95,-357.910,-382.812,1345.215,11.10,-38.55,-36.15,18.73
16753,7.99,0.47,-56.29,-212.402,-606.934,912.598,10.95,-38.40,-36.75,18.49
16763,8.50,-9.78,-39.72,-33.203,-885.254,636.230,10.95,-38.70,-37.50,18.83
16775,-3.53,4.98,-49.08,-583.496,-470.703,1816.895,10.05,-39.60,-36.00,18.49
16785,9.53,2.67,-57.71,294.434,-893.066,270.020,9.90,-37.80,-36.60,18.83
16794,19.74,1.43,-52.40,196.777,-577.637,520.508,9.90,-37.80,-36.60,18.88
16804,10.05,-2.61,-46.05,241.211,-1131.348,1203.125,9.90,-39.30,-35.70,18.73
16814,9.29,-6.24,-51.46,-4.395,-834.473,546.387,9.30,-38.40,-37.50,18.68
16824,-11.38,-2.89,-47.98,-169.922,-191.895,980.957,10.05,-39.60,-36.30,18.54
16836,-2.31,-6.34,-49.47,-270.996,-523.926,1496.094,9.90,-38.25,-36.90,18.73
16846,0.44,-5.38,-49.98,-534.668,-847.656,1733.887,9.90,-38.25,-36.90,18.49
16856,2.17,-7.23,-42.60,18.555,-938.965,830.566,10.05,-39.60,-36.30,18.73
16866,-12.85,1.05,-51.19,-443.848,-560.059,679.199,9.30,-39.90,-36.30,18.73
16876,3.21,-3.20,-51.19,-72.754,-223.145,1162.598,9.30,-39.90,-36.30,18.68
16893,1.54,-0.36,-44.93,-310.059,-516.113,1239.746,8.70,-39.00,-36.90,18.83
16902,3.95,-1.75,-46.67,-249.023,-708.008,1043.945,9.00,-39.15,-36.75,18.88
16914,6.37,6.31,-41.36,-450.195,-971.680,1999.939,7.65,-39.75,-35.70,18.88
16924,-4.07,11.64,-57.46,-211.426,-836.914,1058.105,7.65,-39.75,-35.70,18.68
16934,-7.97,10.95,-47.44,-43.457,-517.578,1384.766,9.00,-40.80,-36.00,19.02
16944,6.82,12.63,-41.94,-324.707,-375.977,918.945,7.95,-40.95,-35.70,18.83
16954,12.99,3.68,-55.13,-186.035,35.645,1419.922,9.30,-38.40,-35.55,18.54
16964,14.85,5.47,-38.11,333.984,-207.520,466.797,8.25,-39.15,-36.75,18.88
16973,23.66,-1.16,-19.89,49.316,-466.797,552.734,8.25,-39.15,-36.75,18.83
16984,9.56,-3.69,-70.05,62.012,-1309.082,581.543,8.55,-39.90,-36.30,18.83
16994,-9.27,-11.77,-50.98,-270.508,-256.836,1268.555,7.35,-40.80,-35.55,18.68
17004,3.12,-11.54,-47.44,255.371,-771.484,881.836,7.35,-40.80,-35.55,18.54
17014,1.89,-7.56,-68.78,33.203,-347.168,482.910,7.65,-40.50,-36.15,18.68
17024,-5.04,-8.60,-44.68,191.406,-385.254,1027.344,6.45,-39.30,-35.40,18.59
17034,13.80,-17.25,-48.97,-645.020,-416.504,1999.939,6.15,-39.30,-36.60,18.92
17044,5.31,-3.98,-45.21,-432.617,-541.504,1512.695,7.35,-40.80,-34.50,18.92
17056,7.18,-2.37,-40.24,-40.039,-1279.785,908.203,7.35,-40.80,-34.50,18.59
17066,-8.61,3.44,-41.61,-393.066,-734.375,1024.414,5.70,-40.20,-35.40,18.88
17076,-9.71,11.37,-38.27,-97.656,-845.703,678.223,6.90,-40.50,-34.95,18.54
17086,-16.37,9.76,-43.21,-360.840,-738.281,634.277,5.55,-39.60,-35.25,18.68
17096,-4.40,11.94,-31.39,-147.461,-538.574,839.844,5.55,-40.35,-36.00,18.49
17106,1.83,6.14,-46.53,-137.695,-296.875,1026.855,5.55,-40.35,-36.00,18.59
17118,7.95,7.61,-40.85,96.680,-388.184,693.359,5.55,-40.35,-36.00,18.83
17128,17.44,3.82,-42.11,176.270,-1059.082,1594.727,5.10,-40.80,-35.25,18.83
17138,11.66,1.09,-50.44,220.215,-706.055,1230.957,4.35,-41.10,-34.50,18.83
17147,7.53,-3.73,-43.08,249.023,-666.016,875.977,5.85,-41.10,-34.50,18.54
17157,-1.22,-13.85,-42.55,-245.605,-957.520,1444.336,5.10,-41.10,-34.05,18.73
17167,6.19,-7.63,-47.18,29.785,-623.047,966.309,2.85,-40.35,-35.25,18.54
17177,-7.25,-12.53,-49.41,-111.816,-346.191,1309.082,4.50,-41.70,-33.45,18.68
17189,-9.83,-14.66,-52.47,-226.562,-275.391,661.621,4.50,-41.70,-33.45,18.83
17199,-1.57,-8.85,-47.63,-182.617,-344.727,1612.793,4.80,-42.30,-34.05,18.83
17209,11.50,-7.63,-47.61,-409.668,-286.621,1376.953,3.45,-42.90,-34.65,18.73
17219,26.87,-0.50,-43.66,-217.285,-802.734,615.723,3.60,-42.00,-34.80,18.83
17229,3.60,6.10,-46.73,217.773,-947.754,393.555,3.15,-42.00,-34.50,18.59
17239,-13.03,-6.70,-49.39,-158.691,-772.461,1043.457,3.15,-42.00,-34.50,18.54
17249,-9.76,-3.72,-46.52,-202.637,-993.652,937.988,4.20,-40.95,-34.95,18.83
17261,-9.16,0.48,-53.35,113.770,-273.926,1447.266,3.45,-42.60,-34.20,18.83
17271,-9.69,3.15,-47.60,-62.988,-540.039,802.246,1.80,-42.15,-34.65,18.54
17281,-6.24,3.29,-42.53,122.070,-441.406,982.910,2.40,-42.30,-34.50,18.83
17291,-3.12,4.52,-47.77,-113.281,-197.754,1639.160,2.40,-42.30,-34.50,18.92
17301,2.11,-0.21,-41.95,-195.801,-354.004,1666.504,1.20,-43.35,-34.20,18.68
17311,13.19,0.58,-48.46,-31.738,-688.965,103.516,1.20,-43.50,-35.25,18.73
17323,21.78,-0.75,-49.87,47.363,-950.684,1999.939,1.05,-42.60,-33.45,18.54
17333,15.82,7.31,-34.84,224.121,-666.992,459.961,1.50,-44.10,-33.15,18.40
17343,5.73,3.53,-39.73,630.371,-1097.168,1555.664,1.20,-42.00,-34.80,18.73
17352,-1.46,-1.63,-40.99,-249.512,-737.793,1595.703,1.05,-40.50,-33.90,18.88
17362,-0.30,-2.95,-52.78,127.930,-1046.875,231.445,1.05,-40.50,-33.90,18.83
17372,-11.05,-5.84,-49.15,368.164,-603.027,354.492,-0.75,-41.40,-34.20,18.83
17382,-17.29,-9.37,-50.63,-932.617,-505.859,1739.258,0.00,-43.35,-33.45,18.54
17394,0.92,0.19,-36.02,-147.461,38.086,1757.813,0.30,-42.15,-34.95,18.83
17409,10.49,-1.44,-47.53,-311.035,-713.379,1585.449,0.90,-41.55,-32.55,18.88
17418,3.75,-2.23,-51.19,-420.898,-586.426,1459.961,0.90,-41.55,-32.55,18.83
17428,10.91,4.47,-32.36,-169.922,-39.063,1468.262,-1.50,-42.60,-34.20,18.68
17438,-9.80,6.22,-57.93,-168.945,-479.980,1348.633,-0.90,-42.75,-34.05,18.59
17448,-6.56,-2.23,-49.31,-195.312,-687.988,1840.332,-0.90,-42.75,-34.05,18.49
17461,-15.40,-0.66,-44.11,-293.945,-985.352,1480.469,-3.15,-42.30,-34.05,18.83
17470,-10.63,-1.63,-51.90,17.578,-417.480,838.379,-0.90,-42.75,-32.55,18.73
17480,-0.08,-0.48,-42.46,131.348,-300.293,954.590,-3.45,-42.15,-33.90,18.54
17490,4.42,-2.67,-42.60,-377.930,180.664,1420.410,-2.55,-42.60,-33.15,18.68
17500,25.15,0.88,-44.82,-59.082,-1081.543,712.402,-2.55,-42.60,-33.15,18.83
17510,-0.64,1.78,-48.64,-3.418,-1018.555,881.836,-2.40,-41.10,-34.80,18.83
17520,-4.43,1.67,-49.20,-264.160,-579.102,1357.910,-2.10,-43.20,-34.05,18.68
17532,1.79,5.45,-43.09,192.383,-305.664,1298.828,-3.00,-40.95,-34.20,18.88
17542,-10.26,1.83,-47.58,-215.332,-497.070,1695.801,-3.00,-40.95,-34.20,18.59
17552,-9.37,0.66,-46.28,-188.477,-611.328,765.625,-4.20,-42.90,-33.45,18.73
17562,-0.27,-2.40,-45.27,201.660,-540.039,130.371,-3.45,-41.70,-33.15,18.68
17572,1.97,-5.24,-57.21,232.422,-563.965,1849.609,-3.45,-41.70,-33.15,18.83
17582,-7.09,2.21,-45.47,-1002.930,-77.148,1810.059,-3.90,-42.00,-34.05,18.68
17592,10.82,1.57,-54.79,-101.563,-382.324,1246.094,-3.90,-42.00,-34.05,18.83
17604,12.99,-1.45,-50.76,239.258,-1082.520,827.637,-5.25,-41.70,-32.70,18.73
17614,2.12,-2.65,-42.24,83.496,-401.367,461.426,-5.25,-40.20,-33.90,18.83
17624,-3.93,2.81,-52.61,-315.918,-635.742,766.113,-5.25,-40.20,-33.90,18.88
17634,-2.23,-2.52,-44.00,-293.945,-1003.418,1067.383,-5.10,-40.80,-34.80,18.54
17644,5.03,-0.11,-44.21,100.586,-416.016,687.988,-5.25,-41.40,-32.70,18.83
17654,-9.99,6.40,-54.13,-262.207,157.227,517.578,-5.85,-42.00,-34.50,18.83
17666,-0.95,-3.52,-57.47,-459.961,-149.414,257.324,-5.70,-40.95,-33.45,18.73
