Time_ms,GyroX_degps,GyroY_degps,GyroZ_degps,AccelX_g,AccelY_g,AccelZ_g,MagX_uT,MagY_uT,MagZ_uT,Temp_C
1357,-1.24,0.25,-0.53,227.539,-10.742,1025.879,-24.75,-11.70,-31.05,18.35
1372,-3.27,0.91,-5.23,34.668,266.602,1254.883,-22.80,-12.90,-27.60,18.01
1382,0.47,0.40,-1.74,167.969,122.559,1142.090,-20.10,-12.45,-27.30,18.40
1392,-0.52,-0.43,-1.20,227.539,-23.437,1003.418,-18.45,-12.75,-27.90,18.21
1402,1.89,1.05,-0.05,99.609,14.648,885.742,-18.45,-12.75,-27.90,18.21
1411,1.21,-1.80,-1.44,180.176,24.902,1079.102,-22.20,-11.85,-30.90,18.49
1421,-0.46,1.35,-1.71,247.070,-8.301,891.113,-24.15,-11.55,-31.65,18.16
1431,-0.71,-2.87,-0.66,207.031,-57.617,1084.961,-25.05,-11.70,-31.50,18.21
1443,-0.27,-1.05,-2.30,210.449,37.598,923.828,-22.35,-12.90,-29.55,18.30
1453,0.28,-2.53,-0.44,164.062,136.719,1109.375,-18.60,-12.90,-25.35,18.30
1463,1.40,1.27,-0.91,116.211,-33.691,1142.578,-18.60,-12.15,-28.05,18.49
1473,1.87,-1.73,1.95,114.258,-40.527,1105.957,-18.60,-12.15,-28.05,18.35
1483,-2.56,0.59,-0.95,133.301,95.703,1076.172,-25.80,-11.25,-33.30,18.35
1493,0.98,-0.43,-1.52,240.234,69.824,914.551,-26.40,-13.05,-31.95,18.40
1503,2.88,1.79,3.11,227.539,-85.938,966.797,-22.80,-13.05,-31.95,18.16
1515,-0.86,0.21,-1.13,227.051,-28.320,964.844,-20.70,-14.25,-27.15,18.21
1525,-1.05,-1.08,-0.82,224.121,-79.590,1058.594,-20.70,-14.25,-27.15,18.01
1535,-1.44,1.86,-2.96,290.039,-4.395,1123.535,-20.85,-11.25,-28.80,18.30
1545,-0.40,-2.11,0.75,71.289,-62.012,1077.637,-23.40,-11.85,-33.15,18.40
1555,-2.00,1.63,-1.62,90.820,83.008,870.605,-24.60,-13.05,-30.90,18.30
1565,-3.32,0.53,1.58,157.227,87.402,899.414,-22.65,-13.05,-30.90,18.35
1574,0.15,0.92,-2.79,199.707,74.219,942.383,-22.65,-13.05,-30.90,18.21
1586,0.27,-1.15,-2.97,90.820,-59.570,956.055,-19.35,-12.90,-26.85,18.30
1596,-4.10,4.73,-1.27,17.090,10.254,1043.457,-19.50,-12.75,-28.65,18.21
1606,0.53,2.00,1.07,291.016,-43.945,1117.188,-19.50,-12.75,-28.65,18.40
1616,-2.44,3.56,2.41,135.254,-19.043,1120.605,-25.05,-12.45,-30.30,18.49
1626,-0.15,4.56,-1.57,195.801,36.621,882.812,-23.25,-13.20,-28.80,18.49
1636,-1.21,4.79,-3.73,400.391,-7.324,912.109,-20.55,-14.85,-26.10,18.21
1646,0.81,4.01,-0.21,62.012,101.074,992.676,-18.00,-12.75,-27.15,18.54
1658,1.00,-6.08,-2.84,82.520,-314.453,1866.211,-18.00,-12.75,-27.15,18.40
1668,-2.97,1.63,5.05,311.035,-157.227,1413.086,-23.70,-11.55,-31.65,18.49
1678,1.10,-0.80,0.48,116.699,-36.133,1059.082,-24.00,-13.65,-29.85,18.21
1688,0.95,-3.47,-0.28,226.562,-68.848,865.234,-20.85,-14.85,-26.10,18.49
1698,1.56,-4.35,-1.24,203.613,37.109,877.441,-17.25,-12.75,-25.20,18.40
1708,4.75,1.42,-1.92,217.285,-25.879,810.059,-17.25,-12.75,-25.20,18.49
1718,9.12,0.20,4.32,239.746,-168.457,867.676,-23.55,-12.15,-31.80,18.49
1730,2.65,3.50,0.89,113.281,96.680,968.262,-25.05,-12.90,-31.05,18.49
1740,-1.41,1.06,-0.29,333.008,-193.359,836.426,-25.05,-12.90,-31.05,18.54
1750,-1.69,0.81,-0.32,181.641,10.742,817.871,-18.45,-11.85,-24.45,18.40
1760,-2.01,1.55,-1.15,271.484,-32.227,1250.488,-19.50,-12.30,-27.90,18.16
1770,-0.92,2.37,-1.95,192.871,-95.215,1132.813,-23.40,-10.65,-31.20,18.49
1780,-5.05,-0.26,-1.60,171.875,145.996,1021.484,-24.75,-13.20,-30.30,18.35
1790,1.83,-1.42,0.31,546.387,116.211,788.086,-24.75,-13.20,-30.30,18.40
1802,-4.01,-2.27,-2.50,166.992,-3.906,1065.430,-18.45,-11.85,-24.90,18.49
1812,-5.65,-5.91,-4.31,239.746,118.652,923.340,-20.85,-12.45,-28.80,18.49
1822,-0.04,-3.21,-3.95,115.234,84.473,759.766,-24.60,-10.35,-30.45,18.35
1832,0.56,-4.78,-4.65,64.941,208.496,1322.754,-22.95,-12.75,-29.70,18.16
1842,1.73,-0.55,-2.56,288.086,40.527,1039.551,-22.95,-12.75,-29.70,18.35
1852,2.83,0.86,-3.14,41.992,-127.441,779.297,-18.90,-10.05,-25.35,18.49
1864,-2.31,3.90,-2.95,246.094,6.836,893.555,-21.90,-10.65,-30.15,18.73
1886,-0.15,3.06,-4.76,238.770,-71.289,605.957,-18.45,-12.75,-25.95,18.54
1895,0.07,-1.44,1.13,154.785,-109.863,1804.688,-18.60,-11.25,-29.10,18.49
1905,-4.02,-0.03,-2.64,332.031,-120.117,944.824,-23.55,-11.70,-30.75,18.49
1915,-0.58,1.10,-3.66,122.070,82.520,1057.129,-23.55,-11.70,-30.75,18.54
1925,-0.06,-0.96,-4.18,280.762,162.109,895.508,-19.20,-12.75,-24.90,18.30
1935,3.43,1.02,-5.86,170.410,-46.387,804.687,-18.00,-10.65,-27.15,18.21
1948,-0.52,-4.65,-4.15,87.891,25.879,1445.801,-22.95,-9.90,-31.20,18.49
1958,-1.41,0.87,-5.79,58.105,-25.879,1399.902,-24.30,-11.25,-28.80,18.40
1968,-3.60,1.35,-6.59,191.406,28.320,805.176,-24.30,-11.25,-28.80,17.97
1978,-1.85,0.03,-4.03,210.937,-24.902,1139.648,-18.00,-10.35,-25.20,18.49
1988,-4.30,-3.27,-9.76,102.539,-103.027,1056.641,-23.40,-10.65,-30.45,18.59
1998,-1.44,2.98,-4.77,175.781,117.188,1246.582,-23.40,-10.65,-30.45,18.54
2008,-2.96,-0.67,-9.26,137.207,-96.680,1340.820,-20.10,-13.20,-24.30,18.40
2020,-0.19,1.76,-5.11,12.695,77.637,886.230,-18.60,-10.05,-25.35,18.35
2030,0.90,-2.46,-4.29,265.625,55.664,699.707,-24.60,-10.35,-30.45,18.49
2040,1.51,2.06,-4.76,175.293,24.902,899.414,-22.95,-11.55,-29.70,18.49
2050,0.86,-5.49,-6.66,327.148,-49.805,1095.215,-22.95,-11.55,-29.70,18.16
2060,-0.11,-2.82,-6.74,315.918,-192.383,922.852,-18.60,-10.95,-26.55,18.49
2070,-2.05,-3.94,-2.44,48.828,171.387,1479.492,-24.75,-10.05,-31.05,18.59
2082,2.56,-0.57,-6.39,195.312,-95.215,1269.531,-22.65,-12.75,-28.20,18.59
2092,3.48,2.02,-2.41,125.488,49.316,511.719,-18.45,-11.85,-25.20,18.68
2102,-0.34,0.73,-4.43,241.211,-58.105,1127.441,-18.45,-11.85,-25.20,18.21
2112,6.87,-2.08,-3.45,222.168,52.734,758.301,-22.35,-10.95,-31.50,18.35
2122,1.02,3.92,-6.68,295.410,-93.262,909.668,-20.10,-13.20,-26.55,18.21
2132,2.44,1.11,-6.27,-5.859,2.441,1008.301,-20.10,-13.20,-26.55,18.16
2142,0.43,-1.81,-2.99,38.574,-229.980,1312.500,-22.65,-9.90,-28.65,18.54
2154,-2.83,0.53,-5.47,161.621,-14.648,892.090,-22.80,-11.25,-27.30,18.35
2164,-7.47,-4.21,-6.60,257.812,-39.551,1007.812,-18.00,-12.30,-24.90,18.40
2174,-8.17,-4.77,-6.08,41.992,7.324,1878.906,-18.75,-10.35,-27.90,18.73
2184,-4.58,-2.52,-9.78,87.891,260.254,1378.418,-18.75,-10.35,-27.90,18.49
2194,0.09,-2.59,-8.13,264.648,82.031,848.145,-20.10,-12.90,-25.80,18.40
2204,8.52,-5.63,-6.24,240.234,-70.801,820.312,-19.20,-10.35,-25.65,18.54
2214,12.31,-5.22,-9.09,251.953,-114.258,991.211,-21.45,-10.35,-29.40,18.54
2226,13.12,-4.68,-8.60,254.395,-287.109,774.414,-23.25,-12.90,-28.05,18.30
2236,3.49,-1.91,-10.45,-69.336,-5.859,1184.570,-19.65,-9.75,-28.80,18.21
2246,-5.20,5.02,-9.18,25.391,10.254,725.098,-24.00,-12.90,-29.85,18.49
2256,-12.68,4.89,-11.40,45.410,-15.625,674.805,-21.45,-14.70,-24.90,18.68
2266,-8.95,-0.08,-9.71,414.062,-381.836,748.047,-19.65,-11.25,-26.85,18.49
2276,-15.36,-1.85,-9.64,294.922,-203.125,1404.297,-22.65,-11.55,-30.90,18.68
2286,-12.15,5.79,-15.73,-143.555,383.789,1288.574,-20.85,-13.65,-26.10,18.30
2298,6.56,1.96,-12.97,194.336,-297.363,595.215,-18.45,-11.55,-26.70,18.40
2308,7.20,3.75,-18.06,62.012,-131.348,1759.766,-18.45,-11.55,-26.70,18.54
2318,6.47,2.37,-12.29,151.855,-697.266,1598.145,-22.05,-14.10,-28.35,18.40
2328,-1.20,0.36,-16.58,128.906,-433.105,1010.254,-18.90,-12.15,-25.80,18.49
2338,-9.75,-1.27,-16.98,-150.879,-421.387,1713.379,-22.20,-11.85,-30.15,18.49
2348,-4.37,-1.38,-18.80,242.187,-141.602,863.770,-22.65,-13.05,-29.70,18.68
2358,-7.02,-3.19,-19.11,235.352,-6.348,828.613,-22.65,-13.05,-29.70,18.40
2370,-1.81,-3.19,-20.09,213.867,-312.988,950.195,-22.05,-10.95,-29.85,18.83
2380,0.44,-2.53,-21.21,7.324,-194.336,1079.102,-24.00,-13.65,-31.05,18.73
2390,3.66,-3.90,-25.08,-41.504,-67.871,1250.488,-18.60,-12.45,-26.10,18.54
2406,-4.08,-3.61,-22.86,-44.434,-104.004,1078.125,-22.20,-10.35,-29.40,18.83
2415,-2.53,-0.98,-26.62,92.773,18.555,499.512,-22.20,-10.35,-29.40,18.59
2425,-6.05,-1.23,-26.64,180.176,-137.207,790.527,-21.00,-9.45,-30.15,18.49
2435,-1.24,-0.21,-22.45,304.199,-253.418,514.648,-21.00,-9.45,-30.15,18.68
2447,0.14,2.92,-21.89,-176.758,88.867,952.148,-18.75,-12.30,-25.20,18.73
2457,6.78,-1.29,-18.44,614.258,-141.602,591.309,-21.45,-9.45,-30.90,18.68
2467,6.47,1.46,-22.65,-7.812,-121.582,1160.645,-21.00,-11.85,-29.40,18.54
2477,5.69,-1.85,-25.25,587.402,-479.980,730.957,-18.00,-11.10,-25.95,18.30
2487,1.51,0.61,-22.23,-158.691,92.773,901.855,-18.00,-11.10,-25.95,18.49
2497,2.89,-0.67,-21.77,10.742,-210.449,987.793,-21.00,-11.85,-29.70,18.73
2507,5.35,0.85,-27.60,375.000,-268.066,726.074,-17.10,-9.75,-26.10,18.54
2518,1.70,1.33,-23.73,478.027,-352.539,729.980,-22.05,-9.30,-31.05,18.40
2528,-0.40,-2.80,-22.82,59.570,24.414,975.586,-19.95,-11.55,-27.90,18.83
2538,4.22,-1.30,-29.58,136.230,-230.469,1045.410,-19.95,-11.55,-27.90,18.73
2548,3.72,-0.54,-25.36,242.676,-427.734,1127.930,-21.30,-9.30,-29.85,18.16
2558,-2.07,0.27,-26.44,-266.602,15.137,1127.441,-19.65,-12.45,-25.05,18.73
2568,-2.44,4.38,-27.51,-6.348,-203.125,871.582,-19.65,-12.45,-25.05,18.83
2578,2.41,4.75,-28.33,217.285,-161.133,1235.352,-23.55,-10.05,-29.85,18.54
2590,-2.20,3.44,-29.64,-29.785,18.555,1198.242,-18.15,-10.95,-25.80,18.73
2600,1.82,-1.16,-26.32,153.320,-367.676,740.234,-20.55,-6.45,-28.80,18.54
2610,-1.98,-4.02,-33.19,274.414,-400.879,1260.254,-21.45,-10.35,-28.95,18.49
2620,2.08,-6.16,-29.88,1060.059,-574.707,861.328,-21.45,-10.35,-28.95,18.49
2630,-8.60,-14.22,-32.40,474.121,-147.949,187.500,-20.85,-9.75,-29.55,18.54
2640,0.46,-21.56,-32.92,125.488,-493.164,1176.758,-15.75,-7.95,-23.70,18.54
2652,5.08,-13.27,-32.46,475.586,-192.383,963.867,-20.55,-6.15,-28.80,18.40
2662,-3.18,-9.18,-32.68,366.699,422.852,898.926,-19.65,-10.95,-27.30,18.83
2672,9.05,-5.08,-24.32,517.090,181.152,1223.145,-19.65,-10.95,-27.30,18.54
2682,-6.76,2.57,-25.75,-619.629,208.008,1603.516,-22.80,-8.55,-29.55,18.59
2692,1.97,8.54,-24.84,498.535,-398.437,316.406,-18.45,-8.70,-25.20,18.68
2702,-4.27,7.96,-17.60,114.258,-353.027,933.105,-18.45,-8.70,-25.20,18.21
2712,-4.97,10.04,-28.27,-229.004,-57.617,1170.898,-21.60,-9.30,-27.30,18.40
2724,0.28,7.81,-24.52,221.680,-436.035,1176.270,-17.25,-7.05,-24.90,18.35
2734,1.12,5.99,-24.16,318.359,-134.766,1483.887,-22.35,-6.90,-31.05,18.35
2744,4.66,2.91,-20.43,338.867,-274.902,1110.840,-18.90,-9.75,-26.10,18.73
2754,-1.69,2.13,-27.34,458.496,-577.148,1453.613,-18.90,-9.75,-26.10,18.54
2764,-1.89,-4.98,-28.95,371.094,-430.176,760.254,-21.00,-8.25,-28.95,18.83
2774,-2.06,-7.41,-28.36,465.820,-468.262,1174.316,-17.25,-7.05,-25.65,18.73
2784,-1.18,-10.65,-30.95,205.078,-370.605,1071.777,-21.45,-6.75,-29.40,18.54
2796,-0.31,-9.24,-32.57,175.293,-246.094,661.621,-17.25,-8.25,-25.65,18.59
2806,-0.01,-11.13,-32.61,-13.184,-157.715,1441.406,-17.25,-8.25,-25.65,18.49
2816,1.63,-8.46,-34.10,-141.113,-201.172,1370.117,-17.25,-7.05,-27.15,18.49
2826,9.28,-3.07,-31.10,490.723,-553.711,1052.734,-17.25,-7.05,-27.15,18.49
2836,-7.00,-1.29,-37.08,-213.379,185.059,1366.699,-17.85,-7.65,-31.05,18.88
2846,9.03,-3.13,-33.39,391.113,-250.000,1308.594,-19.50,-6.75,-30.45,18.54
2858,9.22,-2.60,-26.63,491.211,-338.379,1412.109,-18.75,-10.35,-28.95,18.68
2868,-11.22,2.66,-30.59,-149.902,200.195,742.676,-17.10,-4.95,-28.80,18.68
2878,4.50,-5.79,-26.45,946.289,-505.859,1036.133,-17.10,-4.95,-28.80,18.54
2888,-13.79,4.13,-26.61,75.195,350.586,-75.684,-16.20,-6.45,-27.30,18.54
2898,-1.11,-7.19,-19.91,550.293,-454.590,610.352,-19.50,-6.30,-30.90,18.54
2908,-9.34,6.68,-30.79,68.359,-35.156,717.285,-16.80,-8.25,-28.20,18.73
2925,3.82,4.99,-33.46,-411.133,111.328,1186.035,-17.25,-5.10,-31.20,18.68
2934,12.82,6.51,-30.12,-85.938,-308.594,744.629,-17.25,-5.10,-31.20,18.59
2944,11.21,11.19,-28.28,338.379,-630.859,494.629,-16.80,-4.65,-28.20,18.59
2954,0.79,4.34,-31.29,-115.234,-517.578,1269.043,-17.10,-6.90,-29.85,18.54
2964,-12.25,3.93,-26.25,166.504,-534.668,1327.637,-15.30,-5.85,-26.70,18.21
2974,-15.75,-1.01,-28.59,-36.133,42.969,1638.184,-17.25,-4.35,-30.15,18.54
2984,-5.44,2.28,-42.48,465.820,-250.977,1594.238,-17.25,-4.35,-30.15,18.83
2996,-0.39,0.56,-35.79,179.199,-80.078,1326.172,-16.65,-4.50,-29.55,18.54
3006,8.89,-2.37,-35.53,57.617,-332.031,1457.520,-15.90,-6.45,-27.60,18.54
3016,9.92,-3.85,-33.21,290.039,-601.562,1621.582,-15.90,-6.45,-27.60,18.83
3026,1.56,-0.26,-36.04,-93.750,-663.574,598.145,-19.20,-7.95,-28.95,18.88
3036,2.99,-2.32,-37.13,348.145,-827.148,725.586,-15.30,-5.10,-27.15,18.68
3046,-4.76,-3.83,-39.50,-448.730,-395.020,1572.754,-18.90,-4.95,-29.85,18.54
3056,-5.89,-0.35,-32.51,138.184,-199.707,837.402,-15.75,-4.35,-27.45,18.54
3068,-2.79,2.02,-42.96,96.191,-148.437,1309.570,-16.20,-5.70,-27.30,18.49
3078,0.48,6.12,-35.57,-36.621,-125.000,704.590,-16.05,-2.25,-30.15,18.54
3088,4.22,-2.58,-38.51,276.855,-230.957,1499.512,-13.95,-6.90,-29.85,18.83
3098,-3.04,6.51,-36.96,-270.020,87.402,654.297,-15.15,-3.30,-31.50,18.59
3108,10.24,4.94,-34.34,67.871,-96.191,604.492,-15.15,-3.30,-31.50,18.73
3118,14.27,-1.43,-41.46,413.086,-267.090,498.535,-13.50,-2.85,-29.55,18.73
3128,1.98,7.86,-27.87,-77.637,-459.473,1263.672,-13.80,-4.35,-31.95,18.54
3141,-10.63,-0.80,-34.57,-381.348,-377.930,1918.457,-13.80,-4.35,-31.95,18.49
3150,-12.19,1.27,-45.72,-324.219,-60.547,497.559,-13.20,-2.85,-30.30,18.40
3160,-8.18,-5.51,-34.64,-205.566,-289.551,1039.551,-13.95,-2.85,-31.50,18.83
3170,-11.34,-5.15,-42.34,-71.289,-245.605,1229.980,-12.75,-2.85,-31.05,18.68
3180,-11.08,-3.76,-38.08,-48.340,73.242,1160.156,-13.80,-3.15,-30.15,18.83
3190,-1.44,1.01,-24.42,58.594,-224.609,768.555,-13.80,-3.15,-30.15,18.73
3200,5.02,-3.08,-35.02,-66.406,-505.371,830.566,-14.85,-2.70,-29.70,18.83
3212,8.24,-5.51,-37.11,86.914,-257.812,1157.715,-13.20,-3.75,-29.85,18.73
3222,12.21,-8.04,-47.87,-282.227,-401.367,1139.648,-13.35,-3.45,-30.90,18.54
3232,5.54,-4.27,-36.34,-171.387,-197.754,1442.871,-13.50,-2.85,-30.75,18.49
3242,1.04,-4.85,-37.63,-52.734,-317.871,1079.102,-13.50,-2.85,-30.75,18.54
3252,3.02,-6.56,-37.72,-166.016,-582.520,977.051,-14.40,-2.55,-30.75,18.54
3262,-2.24,-4.33,-39.03,4.395,-193.848,1067.383,-13.80,-1.95,-31.95,18.54
3274,-4.32,0.54,-35.53,68.359,-304.199,1023.437,-13.80,-1.95,-31.95,18.83
3284,-5.06,2.69,-36.63,-280.762,-130.371,841.309,-13.95,-2.55,-29.85,18.68
3294,3.64,1.62,-36.31,-91.309,-348.633,818.359,-12.75,-2.10,-30.75,18.68
3304,0.69,-0.56,-32.71,-57.617,-340.332,987.793,-11.85,-2.25,-30.45,18.68
3314,-1.49,-0.94,-32.98,-426.270,-37.109,1559.570,-11.40,-1.50,-31.20,18.49
3324,-2.47,3.56,-36.91,66.895,-133.789,884.766,-11.40,-1.50,-31.20,18.83
3334,-4.89,3.67,-37.49,22.949,37.109,543.945,-13.05,-1.50,-30.15,18.68
3346,5.83,-0.79,-34.25,-31.738,-145.508,458.496,-13.35,-1.50,-28.95,18.83
3356,0.34,1.16,-39.13,-155.762,-133.301,1109.863,-12.45,-0.90,-30.30,18.68
3366,6.25,0.40,-33.65,-181.641,-168.945,858.887,-11.85,-1.05,-30.45,18.73
3376,5.50,-2.52,-39.82,114.258,-286.621,1079.590,-11.85,-1.05,-30.45,18.73
3386,8.86,-7.22,-37.98,-74.219,-388.672,1493.164,-11.40,-1.05,-29.70,18.59
3396,4.56,-2.92,-41.03,-286.621,80.078,1286.133,-12.60,-2.70,-30.90,18.35
3406,0.76,-3.40,-40.37,-29.297,-670.410,889.160,-11.70,-1.65,-30.75,18.59
3419,-2.38,-4.79,-30.66,-192.871,-186.035,1469.727,-11.25,-1.35,-31.05,18.83
3428,-8.80,-1.50,-30.73,-262.695,-112.793,928.223,-12.45,-0.90,-31.80,18.59
3443,-5.80,7.05,-30.71,94.727,-226.562,288.574,-10.65,-1.95,-31.20,18.59
3452,-3.96,0.06,-29.85,-203.125,-10.742,1907.227,-10.65,-1.95,-31.20,18.54
3462,1.50,7.70,-30.67,141.602,-194.824,482.422,-11.40,-2.25,-31.65,18.30
3472,-0.35,4.42,-30.81,-434.570,-127.441,1483.398,-10.35,-1.50,-31.65,18.68
3482,8.64,1.94,-31.29,83.008,-646.973,1310.547,-9.60,-0.75,-31.95,18.68
3492,-1.14,2.52,-37.51,91.309,-518.066,487.305,-10.35,-1.05,-31.95,18.83
3504,-0.93,-2.09,-37.70,45.410,-505.371,726.562,-10.35,-1.05,-31.95,18.68
3514,-6.61,-3.48,-33.33,-349.609,-174.316,1248.535,-10.65,0.00,-32.40,18.73
3524,-7.05,-3.78,-35.02,112.305,-367.187,667.480,-10.35,-1.05,-32.40,18.83
3534,-3.05,-6.02,-31.19,-15.137,-405.762,1224.121,-8.70,-0.75,-31.95,18.73
3544,5.15,-7.09,-31.53,-145.020,-176.758,1640.137,-9.15,0.30,-31.20,18.49
3554,11.58,-0.18,-38.18,77.637,-333.496,1107.910,-9.15,0.30,-31.20,18.83
3566,15.41,-0.29,-34.83,-156.738,-73.242,1122.070,-9.00,0.15,-32.55,18.59
3576,13.79,-1.05,-35.44,205.566,-412.598,773.926,-7.65,-1.05,-29.70,18.73
3586,8.31,4.57,-37.09,97.656,-766.602,1080.078,-7.65,-1.05,-29.70,18.68
3596,-1.70,-0.85,-35.42,-115.234,-460.449,1412.598,-9.90,-0.75,-30.90,18.83
3606,-7.06,0.49,-37.27,-21.484,-86.914,1052.734,-7.80,0.45,-30.75,18.83
3616,-7.82,0.59,-37.31,-107.422,-228.516,759.766,-9.60,-0.75,-31.20,18.54
3626,-2.52,-2.70,-37.18,-26.367,-182.129,870.605,-9.30,-0.45,-31.05,18.35
3639,-0.45,-1.78,-38.98,-90.332,-59.082,873.047,-9.30,-0.45,-31.05,18.59
3648,1.93,-1.20,-32.08,-80.566,-89.844,1076.660,-8.25,1.35,-30.75,18.73
3658,11.13,-0.31,-34.41,-102.051,-273.926,1209.961,-8.25,1.35,-30.75,18.68
3668,11.53,1.98,-32.56,-252.930,-167.969,1195.801,-8.70,-1.05,-31.95,18.68
3678,9.36,2.85,-34.31,91.797,-571.289,745.117,-7.20,-1.05,-32.70,18.68
3688,6.31,-0.60,-37.96,41.504,-347.656,655.273,-7.20,-1.05,-32.70,18.54
3698,1.24,2.38,-34.55,0.488,-655.273,1667.480,-7.05,-0.15,-30.15,18.54
3711,-7.32,-3.64,-32.94,-77.637,-398.926,1349.121,-7.05,-0.15,-32.25,18.83
3720,-10.25,-1.70,-36.79,-53.223,-285.645,974.609,-7.05,0.45,-31.05,18.73
3730,-2.57,-2.21,-34.91,145.996,-15.625,963.867,-7.20,-1.50,-31.65,18.49
3740,1.21,-4.47,-38.56,125.977,-406.738,1161.621,-7.35,-0.90,-31.50,18.83
3750,0.86,-5.69,-32.26,-186.035,-358.887,923.828,-8.40,0.00,-31.20,18.83
3760,-3.53,-0.73,-34.63,-139.160,-366.211,1187.500,-8.40,0.00,-31.20,18.73
3770,-4.36,5.08,-40.58,-164.062,-366.699,692.383,-7.35,0.45,-32.25,18.68
3782,-3.63,0.38,-37.02,31.738,-379.883,640.625,-6.60,-0.90,-29.55,18.68
3792,-2.24,2.00,-40.93,-141.113,154.785,1036.133,-6.90,0.75,-31.95,18.68
3802,4.02,2.80,-40.92,144.531,-430.664,800.293,-7.20,-0.75,-31.20,18.68
3812,4.46,4.98,-34.60,-206.543,-182.129,1083.984,-7.20,-0.75,-31.20,18.54
3822,5.80,2.81,-40.85,117.188,-426.270,1138.672,-7.20,0.75,-31.95,18.59
3832,3.26,3.62,-37.02,59.570,-624.512,826.172,-6.45,0.30,-31.20,18.49
3841,-2.44,3.30,-35.31,-183.105,-69.336,1507.813,-6.15,0.00,-33.45,18.68
3853,-0.92,6.85,-32.20,189.941,-397.949,1196.777,-4.20,0.30,-31.65,18.73
3863,-2.76,4.19,-33.25,-245.117,-112.305,1237.793,-4.20,0.30,-31.65,18.68
3873,3.70,5.29,-38.59,38.086,-112.793,1220.215,-5.70,-0.30,-33.15,18.83
3883,4.20,-0.51,-35.23,-173.340,-225.098,1189.941,-4.80,0.90,-33.30,18.49
3893,8.60,-1.99,-34.60,329.102,-369.629,368.164,-4.80,0.90,-33.30,18.73
3903,2.34,-10.60,-40.11,-117.188,-590.820,1339.844,-4.50,1.05,-32.70,18.83
3913,2.24,-6.63,-35.50,647.461,-481.934,812.500,-3.75,0.30,-33.45,18.83
3925,1.88,-7.34,-35.30,433.594,-236.328,648.437,-3.60,-0.45,-32.25,18.73
3935,-0.79,-4.60,-29.28,152.832,-171.875,1236.816,-3.90,1.35,-33.00,18.73
3945,3.08,-7.09,-31.30,-133.789,-221.191,1466.797,-3.90,1.35,-33.00,18.54
3960,0.09,-0.79,-29.00,-48.340,-127.441,1273.438,-4.80,0.45,-32.55,18.73
3969,9.07,-5.10,-33.85,107.910,-205.566,1015.625,-4.80,0.45,-32.55,18.73
3981,5.54,0.44,-33.97,-41.504,-253.906,1196.289,-3.90,0.90,-32.55,18.83
3991,-2.21,0.52,-29.84,-318.848,-447.266,1446.777,-3.90,0.90,-32.55,18.68
4001,0.04,3.73,-31.40,-21.484,-678.711,611.816,-4.95,1.05,-32.40,18.68
4011,-5.80,-2.72,-33.95,-20.020,131.348,1342.285,-2.85,1.35,-31.50,18.59
4021,-3.76,-4.37,-32.26,305.176,-396.973,1220.703,-2.85,1.35,-31.50,18.68
4031,-9.72,-5.36,-30.40,16.113,-419.434,1299.805,-1.80,0.00,-33.15,18.59
4041,-8.34,-7.63,-33.70,134.766,34.180,795.410,-2.55,2.70,-34.65,18.54
4053,1.22,-10.24,-33.80,-227.539,27.344,1656.250,-2.25,-0.75,-34.65,18.35
4063,-2.21,-2.53,-36.78,26.855,261.719,1109.863,-1.80,3.45,-35.70,18.68
4073,2.19,-3.62,-31.10,119.141,-427.734,832.031,-1.80,3.45,-35.70,18.49
4083,4.43,-3.44,-30.20,1.953,52.734,1027.832,0.30,1.05,-33.45,18.83
4093,6.93,-5.04,-33.78,-31.738,-236.816,1118.652,-0.30,0.75,-33.15,18.73
4103,8.56,0.54,-31.76,344.727,-588.379,460.937,0.45,0.90,-31.50,18.49
4112,2.16,-8.44,-34.47,-104.492,-193.848,1365.234,-0.30,0.00,-32.70,18.73
4124,13.11,-3.75,-28.53,107.910,-414.062,799.805,-0.30,0.00,-32.70,18.54
4134,-0.02,-2.65,-23.20,-268.555,-227.539,1052.734,-0.30,1.50,-32.70,18.83
4144,1.01,3.22,-33.16,155.762,-336.914,807.617,0.90,-0.15,-30.30,18.73
4153,-6.20,-3.04,-37.69,-204.102,-227.539,1187.012,-1.20,2.85,-32.25,18.83
4163,-8.59,1.61,-38.38,105.469,-358.398,592.773,-1.50,0.00,-31.65,18.83
4173,-7.60,0.79,-30.08,167.969,-265.625,985.840,-1.20,1.65,-31.05,18.54
4183,-5.40,-0.56,-31.99,-94.727,-119.141,1167.969,0.00,0.00,-29.70,18.59
4195,9.05,0.53,-28.02,69.824,-70.313,932.129,-0.75,1.95,-30.90,18.59
4205,8.82,4.50,-30.04,11.719,-320.801,1550.293,-0.75,1.95,-30.90,18.68
4215,12.34,5.53,-29.56,46.875,-570.312,872.070,1.05,1.50,-30.15,18.59
4224,6.39,1.35,-35.42,-129.395,-534.180,1425.293,-2.10,0.45,-33.75,18.83
4234,-0.69,3.67,-36.88,-45.898,-364.258,1424.805,0.15,0.90,-29.85,18.49
4244,4.36,4.46,-37.20,-13.184,-545.898,939.941,-1.20,0.90,-32.25,18.54
4254,5.51,4.01,-42.27,-73.730,-474.121,1017.090,-1.20,0.90,-32.25,18.73
4266,-10.73,2.83,-32.40,-270.996,-491.699,829.102,1.05,1.95,-33.15,18.59
4276,-14.07,-1.74,-37.35,132.324,-76.172,1034.668,-0.15,-1.35,-30.30,19.07
4286,-14.12,0.47,-30.44,193.359,-250.488,717.773,0.30,2.25,-32.40,18.73
4295,-13.46,-0.82,-37.11,114.746,-188.477,1783.203,0.75,-0.75,-31.20,18.54
4305,-6.28,-4.02,-38.29,-391.602,-192.383,1455.078,0.75,-0.75,-31.20,18.59
4315,2.15,1.21,-38.18,274.902,-483.887,990.723,0.90,0.15,-31.05,18.73
4324,-13.41,-1.98,-42.56,-681.641,163.086,1209.961,0.90,0.15,-31.05,18.59
4336,5.99,-0.29,-36.23,315.918,-347.656,1611.816,0.90,0.15,-31.05,18.83
4346,-6.02,4.57,-41.67,-294.434,-371.094,1054.199,3.45,0.00,-31.95,18.54
4356,-3.95,-5.27,-14.92,342.773,-271.484,1262.207,0.45,-0.45,-32.55,18.83
4366,-7.18,3.64,-30.37,-663.574,-112.305,800.781,3.15,-0.15,-29.85,18.83
4376,-1.67,8.56,-24.94,127.930,123.047,688.965,0.90,0.15,-33.00,18.49
4386,-0.54,3.30,-29.37,583.008,-307.129,1062.012,0.90,0.15,-33.00,18.54
4395,-16.56,-19.34,-32.22,-20.020,-113.770,1328.125,1.20,0.90,-31.05,18.73
4407,-25.16,-13.76,-40.49,300.781,122.070,1545.410,2.85,0.45,-29.55,18.68
4417,-14.82,-12.27,-38.16,229.980,117.676,855.957,2.10,2.10,-31.50,18.73
4427,-0.18,-23.74,-36.18,-637.207,-291.992,919.922,1.80,0.75,-29.40,18.68
4437,19.37,-14.03,-27.41,-587.891,-546.875,1032.715,1.80,0.75,-29.40,18.59
4447,7.80,-14.15,-31.68,-471.191,205.078,1270.508,2.55,0.30,-29.70,18.54
4457,-1.93,-16.35,-35.44,-77.637,-112.305,874.512,1.80,1.50,-31.95,18.54
4472,13.79,-14.39,-39.73,-258.301,39.551,783.203,2.40,-0.45,-33.00,18.59
4481,13.35,-11.98,-31.69,123.047,-368.652,687.988,2.40,2.10,-31.50,18.83
4493,3.32,-10.73,-37.21,170.410,-242.187,472.168,3.45,0.30,-29.70,18.83
4503,-3.85,-21.85,-43.56,44.922,-617.187,775.879,3.90,2.10,-31.05,18.73
4513,-12.53,-24.56,-39.16,-586.914,-125.977,1081.543,3.90,2.10,-31.05,18.35
4523,-4.91,-27.40,-31.47,231.445,-516.602,1649.902,2.55,1.50,-30.45,18.54
4533,-16.32,-20.03,-33.88,-297.363,14.160,602.051,1.50,-0.30,-31.20,18.68
4543,-11.37,-20.44,-33.98,-165.039,-243.164,1260.742,3.45,1.05,-30.90,18.68
4553,1.40,-15.72,-26.66,62.988,-319.824,987.305,3.00,-0.75,-31.20,18.73
4565,0.51,-15.34,-35.94,-139.648,-284.180,1224.121,3.00,-0.75,-31.20,18.83
4575,-1.29,-7.17,-33.11,530.762,-351.562,904.785,2.40,-2.10,-31.05,18.83
4585,1.24,-10.36,-29.79,515.625,-873.047,915.527,2.55,1.95,-31.20,18.59
4594,-9.70,-3.29,-38.52,-209.473,-142.578,724.121,1.65,-0.90,-31.80,18.83
4604,-15.02,-5.79,-37.02,-128.418,-311.035,1322.266,2.40,0.45,-31.50,18.73
4614,-30.92,-2.97,-38.73,-70.313,-28.809,958.496,1.65,-0.90,-31.80,18.83
4624,-15.24,-6.66,-30.39,151.367,25.879,1011.719,1.80,0.30,-30.15,18.88
4636,1.76,-5.47,-50.15,248.047,20.020,1908.691,2.25,-1.50,-31.65,18.83
4646,10.73,-1.04,-33.89,-229.004,-718.262,1999.939,2.25,-1.50,-31.65,18.68
4656,2.23,9.82,-40.72,-197.754,-779.785,1358.887,1.20,-1.65,-31.50,18.68
4666,-6.39,11.88,-33.23,-199.219,-631.348,1705.078,3.45,-0.30,-31.65,18.40
4676,-4.25,20.17,-42.66,-476.074,-234.375,918.945,2.10,1.35,-34.50,18.73
4686,8.82,21.05,-31.27,444.824,-209.961,157.715,3.90,-0.45,-31.05,18.73
4695,1.31,15.66,-38.51,-256.348,-534.668,1999.939,3.90,-0.45,-31.05,18.73
4707,-2.92,6.63,-27.11,-66.895,-612.793,1433.594,4.35,-0.90,-31.50,18.92
4717,-6.02,0.88,-37.65,174.805,-331.543,1296.387,3.15,-0.15,-33.00,18.88
4727,-5.90,1.21,-49.18,214.355,63.965,562.500,4.35,-0.15,-32.25,18.83
4737,13.96,-0.33,-45.15,231.445,196.289,616.699,3.15,-0.90,-32.25,18.68
4746,20.63,-6.69,-35.54,774.414,-720.215,1205.566,3.15,-0.90,-32.25,18.49
4756,-5.59,-5.29,-37.22,30.762,-846.191,375.000,3.90,-0.90,-33.00,18.83
4766,-13.61,-1.58,-37.96,-116.211,-633.789,890.625,6.30,-0.15,-30.75,18.83
4778,-11.03,-1.01,-39.58,-54.199,388.184,1525.879,6.30,-0.15,-30.75,18.83
4788,-8.45,5.47,-35.80,-431.641,636.719,453.125,4.80,-0.15,-31.50,18.83
4798,12.01,6.28,-30.86,-256.348,60.547,603.027,5.10,-0.90,-33.75,18.49
4808,10.07,0.70,-26.47,-216.797,-25.391,1639.160,6.60,0.45,-32.55,18.73
4817,7.35,2.12,-29.55,-60.059,-428.711,1519.531,5.70,-1.05,-32.40,18.59
4827,18.39,5.11,-27.89,512.695,-887.695,448.730,5.70,-1.05,-32.40,18.73
4836,-2.39,2.16,-37.73,182.617,-34.668,936.523,5.70,-0.75,-32.40,18.83
4848,-2.37,2.95,-28.33,116.211,-329.590,787.598,6.90,0.75,-33.15,18.83
4858,-4.74,-0.92,-30.13,36.133,42.969,1382.813,5.10,-0.45,-33.00,18.83
4868,2.01,-3.08,-26.08,-177.246,-51.758,945.801,7.80,-0.45,-30.75,18.68
4878,-4.94,1.29,-31.77,-268.555,-131.836,924.805,7.80,-0.45,-30.75,18.73
4888,0.45,0.09,-33.96,-144.043,-87.402,737.305,6.90,0.30,-31.20,18.54
4898,-5.47,-2.76,-30.57,-282.715,-230.469,1999.939,6.30,-0.90,-33.30,18.73
4908,-7.17,2.16,-30.50,-113.281,101.074,900.391,6.30,-0.90,-33.30,18.73
4920,6.26,0.53,-34.60,-49.805,-491.699,893.066,5.70,-0.75,-34.95,18.83
4930,5.10,2.00,-32.50,131.836,-248.047,269.531,6.90,-0.30,-32.70,18.73
4940,12.56,2.31,-40.15,-61.523,-303.223,1111.816,8.25,-2.55,-34.50,18.83
4950,17.03,2.68,-34.12,106.445,-499.512,872.559,8.40,0.30,-33.45,18.54
4959,8.08,3.08,-32.53,188.965,-678.223,866.699,8.40,0.30,-33.45,18.92
4969,1.18,5.68,-33.89,217.285,-390.137,910.645,7.80,-0.15,-33.00,18.73
4985,2.15,4.11,-35.30,360.352,-750.488,923.828,9.60,-0.75,-31.65,18.92
4995,0.02,1.27,-34.24,205.566,-535.156,1075.684,8.70,-2.70,-33.15,18.83
5005,5.40,-0.31,-29.86,127.930,-284.180,476.074,8.70,-2.70,-33.15,18.49
5015,4.05,2.76,-49.61,142.090,-741.699,909.668,9.00,-2.55,-32.55,18.88
5025,1.40,0.85,-39.78,-70.801,-616.699,502.441,9.15,1.50,-33.15,19.02
5034,-6.98,-1.98,-30.02,-40.039,-298.340,820.312,9.75,-2.55,-32.55,18.73
5044,1.36,0.47,-32.15,-294.434,-83.984,1633.301,9.15,0.30,-33.90,18.68
5053,10.28,4.51,-28.08,452.637,-633.301,771.484,9.15,0.30,-33.90,18.73
5065,0.83,2.38,-23.32,28.320,-410.645,791.016,9.00,0.15,-33.75,18.68
5075,0.95,2.38,-28.66,148.437,-607.422,1125.488,9.75,-2.85,-32.55,18.83
5084,-2.56,2.24,-30.34,51.758,-310.547,1188.477,9.75,-2.85,-32.55,18.73
5094,1.26,4.99,-34.19,210.937,-423.828,1723.145,11.25,-1.35,-32.25,18.88
5103,-6.47,-1.20,-35.12,191.406,-562.500,992.187,9.30,-1.35,-33.75,18.54
5113,-1.24,-0.47,-36.24,291.504,70.313,997.070,11.25,-2.10,-32.55,18.83
5123,2.51,-0.50,-33.36,336.914,438.477,1398.438,9.00,-1.65,-34.80,19.02
5135,-3.69,-2.08,-31.69,-81.543,-224.121,665.039,9.00,-1.65,-34.80,18.59
5145,1.40,-0.41,-34.56,394.043,-730.469,372.559,9.00,-2.10,-34.50,18.88
5155,6.57,-6.44,-41.50,376.953,-198.242,1079.102,12.00,-1.65,-32.55,18.54
5165,2.35,-3.16,-29.46,-191.406,-166.992,1904.297,10.35,-3.15,-33.90,18.88
5175,2.33,-6.36,-22.57,-177.734,-642.090,1397.949,11.25,-0.15,-31.80,18.54
5185,1.53,-10.62,-42.02,-73.730,-718.750,1347.168,11.25,-0.15,-31.80,18.59
5197,-1.94,-4.94,-34.34,-142.578,-87.402,1125.977,11.85,-0.75,-33.15,18.54
5207,0.11,-2.44,-40.32,-87.402,-359.375,1063.477,10.65,-4.65,-33.45,18.54
5217,5.56,-5.37,-33.75,-14.648,19.531,816.406,10.65,-4.65,-33.45,18.83
5227,1.79,-1.56,-34.62,-245.117,-38.574,1020.020,11.25,-2.10,-33.30,18.83
5237,8.69,-5.85,-31.40,172.852,-649.902,664.551,11.40,-1.05,-33.90,18.83
5247,-11.08,-9.14,-23.05,97.168,-367.676,1699.707,12.75,-2.85,-32.25,18.68
5257,-6.36,-3.73,-48.63,112.305,-294.434,964.844,11.10,-2.25,-33.15,18.54
5269,1.28,-3.27,-35.06,-53.223,-391.602,1078.125,11.10,-2.25,-33.15,18.73
5279,8.77,-1.92,-33.03,-27.832,-103.027,856.934,12.00,-2.85,-34.80,18.54
5289,5.62,-0.31,-37.15,-197.266,-569.336,82.031,13.80,-1.05,-31.20,18.68
5299,8.04,3.70,-32.50,91.797,-803.711,597.168,10.50,-3.30,-32.25,18.83
5309,-2.47,3.05,-31.56,-154.297,-267.090,740.234,14.10,-2.25,-33.90,18.92
5319,-9.61,-2.08,-46.13,-49.805,-74.219,1187.012,14.10,-2.25,-33.90,18.73
5329,-19.82,1.74,-80.61,10.254,-463.379,1092.773,12.00,-1.35,-33.30,18.83
5340,0.02,3.05,-43.82,-248.047,-312.500,879.883,13.05,-4.35,-33.15,18.83
5350,-3.26,4.05,-35.36,83.984,-314.941,994.141,13.05,-1.95,-34.20,18.73
5360,-5.94,3.79,-38.98,107.910,-168.945,830.566,14.10,-2.70,-32.70,18.68
5370,3.18,-4.16,-39.10,162.109,-357.910,1246.582,14.10,-2.70,-32.70,18.83
5380,-3.75,-7.33,-35.53,-268.066,-255.859,1443.359,13.80,-4.35,-31.65,18.83
5390,4.50,-1.31,-36.08,-160.156,-401.367,759.277,13.95,-4.95,-34.50,18.54
5400,0.40,0.99,-41.48,15.137,-469.727,1082.520,13.95,-4.95,-34.50,18.88
5411,-1.33,6.69,-42.82,-194.336,-280.273,940.430,13.80,-5.55,-33.15,18.83
5421,1.37,10.96,-42.91,-218.262,-625.488,468.750,14.70,-2.10,-33.30,18.73
5431,1.07,4.42,-47.87,-72.754,-283.691,1071.777,14.10,-5.55,-32.70,18.68
5441,-7.59,7.85,-43.63,-163.574,-214.355,905.273,14.10,-3.15,-34.20,18.73
5451,0.29,3.42,-47.53,38.086,-651.855,872.559,14.10,-3.15,-34.20,18.83
5461,-0.28,-0.96,-41.91,132.324,-182.617,1333.496,13.50,-4.05,-34.50,18.88
5471,10.23,2.12,-43.15,178.223,-320.312,1999.939,15.30,-3.90,-32.70,18.88
5483,11.01,1.66,-37.08,259.277,-1119.141,1815.918,14.70,-2.85,-34.05,18.83
5498,-9.68,-0.24,-47.53,-93.750,-1064.941,1375.000,14.70,-2.85,-34.05,18.73
5507,-9.21,3.63,-50.57,-151.367,-515.137,415.527,14.85,-3.90,-33.90,18.83
5517,10.33,-4.57,-46.19,76.172,-225.586,1583.984,15.15,-4.05,-33.30,19.02
5527,6.22,-3.78,-50.56,-139.648,-470.703,1618.164,15.15,-4.05,-33.30,18.88
5537,14.26,2.79,-43.66,950.195,-918.457,-322.754,15.30,-3.90,-33.45,18.68
5547,-26.08,-2.04,-43.32,-705.078,400.879,1333.008,15.45,-6.15,-33.75,18.68
5559,-13.60,-3.35,-43.39,-776.855,-325.195,988.770,16.20,-4.05,-34.80,18.83
5569,-1.48,1.38,-46.09,847.168,-865.723,485.352,16.80,-5.85,-33.15,18.59
5579,5.36,3.07,-42.68,350.098,-334.473,1436.035,16.80,-5.85,-33.15,18.59
5589,-6.19,2.24,-38.45,-302.734,-883.301,1553.223,15.90,-3.75,-34.50,18.68
5599,-0.79,8.15,-40.76,-60.547,-676.758,826.172,18.00,-7.05,-33.90,19.02
5609,-3.79,3.59,-36.95,173.828,-902.832,669.922,17.85,-4.95,-34.50,18.83
5621,-1.58,8.66,-40.29,-171.387,21.484,1065.430,15.75,-8.25,-32.70,18.88
5631,9.36,3.58,-34.63,-434.082,-445.801,1402.344,15.75,-8.25,-32.70,18.73
5641,8.63,2.30,-48.85,344.238,-576.172,1014.160,18.60,-4.95,-33.00,18.83
5650,9.17,2.30,-47.75,393.066,-472.656,739.746,18.45,-7.95,-33.45,18.92
5660,2.95,2.05,-40.83,-12.207,-661.133,1257.324,17.10,-5.25,-35.55,19.07
5670,-1.08,1.16,-47.82,113.281,-942.871,732.422,18.15,-6.90,-33.75,18.88
5680,-2.47,1.29,-44.70,62.500,-190.430,1340.332,16.65,-6.90,-36.00,18.54
5692,4.92,5.75,-44.54,104.004,-96.191,872.559,17.55,-5.85,-33.90,18.83
5702,11.53,3.84,-40.62,-133.301,-365.723,604.492,18.90,-8.10,-34.50,18.83
5712,15.22,5.08,-43.47,-104.004,-684.570,885.742,18.90,-8.10,-34.50,19.07
5722,1.97,-1.27,-50.36,95.703,-1006.348,1294.434,19.50,-8.25,-33.90,18.54
5732,-4.60,-7.37,-46.40,119.629,-169.434,1750.000,18.60,-7.65,-35.25,18.88
5742,-9.37,-0.15,-55.11,465.820,-284.180,1022.949,18.90,-7.65,-34.05,18.83
5752,-2.02,-7.61,-44.53,-168.945,-426.270,1284.180,19.20,-8.70,-36.15,18.73
5764,-5.35,-5.47,-52.35,-277.832,-394.043,968.750,19.50,-9.15,-34.20,18.59
5774,1.53,-4.69,-43.31,270.508,-470.703,1085.938,18.60,-7.65,-36.30,18.88
5784,-2.09,-0.16,-53.60,-115.234,93.262,809.082,18.75,-9.45,-34.20,18.88
5794,3.48,-9.76,-42.53,-206.543,-270.996,461.914,19.65,-8.55,-34.50,18.88
5804,13.82,0.99,-35.73,450.684,-139.160,479.004,19.65,-8.55,-34.50,18.49
5814,-3.04,-0.55,-46.34,339.355,-574.219,1018.066,19.20,-11.10,-33.45,18.73
5824,0.57,-6.71,-45.18,-243.652,-630.859,1500.488,19.35,-7.35,-36.00,18.88
5836,-6.90,-0.27,-41.67,411.621,-414.062,589.844,19.35,-7.35,-36.00,18.83
5846,-7.09,-10.62,-41.41,-224.609,-101.563,771.484,18.15,-9.30,-35.55,18.88
5856,-0.69,-3.53,-33.78,-393.066,-515.137,1442.871,20.55,-8.55,-34.50,18.88
5866,16.11,-4.75,-47.32,140.625,-309.082,246.094,18.75,-11.10,-35.40,18.92
5876,-7.18,3.20,-41.05,83.984,-59.570,1368.164,19.65,-9.30,-35.25,18.73
5886,0.71,3.96,-36.00,-36.621,-15.625,730.469,19.65,-9.30,-35.25,18.54
5896,17.05,-4.12,-38.33,-91.309,-540.527,494.629,19.95,-10.35,-35.40,18.88
5910,16.67,-5.00,-40.21,-149.902,-659.668,565.918,20.85,-8.10,-36.00,18.83
5919,4.69,-1.87,-42.10,202.637,-465.332,625.977,21.60,-10.95,-34.50,18.83
5929,11.66,6.27,-43.37,130.371,-764.648,824.219,20.55,-8.10,-35.55,19.02
5939,-2.66,3.63,-36.15,-369.629,-1436.035,1448.242,20.55,-8.10,-35.55,18.83
5949,-18.20,3.46,-34.21,-263.184,-369.141,1046.387,20.25,-9.45,-36.15,18.92
5959,-19.44,0.89,-38.56,284.180,-591.797,840.332,20.85,-8.55,-36.75,18.83
5969,-12.44,12.07,-51.02,-266.113,34.668,1387.207,22.20,-11.55,-34.20,18.92
5980,2.67,3.35,-37.08,224.609,-799.805,1243.652,19.95,-11.10,-38.10,18.73
5990,1.61,12.02,-42.37,179.199,-331.055,621.094,19.95,-11.10,-38.10,18.73
5999,-4.68,1.75,-46.10,411.621,-102.539,569.824,20.70,-11.85,-35.70,18.83
6021,-0.18,6.34,-38.01,474.609,-468.262,747.559,21.45,-10.35,-37.65,18.83
6030,-11.31,14.07,-43.26,-375.488,-537.598,1048.340,20.85,-11.70,-37.80,18.73
6040,3.92,-9.12,-44.76,113.281,-942.871,802.246,22.20,-10.35,-36.15,18.92
6050,0.79,6.69,-36.40,636.719,-381.836,512.207,21.60,-12.15,-35.55,18.59
6062,8.16,-1.08,-48.23,314.453,-870.117,-91.797,21.30,-10.50,-37.80,18.59
6072,-5.56,8.49,-54.14,14.648,-232.910,677.734,21.30,-10.50,-37.80,18.73
6082,-6.03,4.82,-42.58,-258.789,-520.508,1228.027,22.80,-13.20,-36.30,19.07
6092,4.06,-4.43,-48.28,199.219,-741.211,694.824,22.35,-11.25,-37.05,18.54
6102,-10.00,5.17,-53.93,214.355,178.711,933.105,23.55,-12.90,-36.75,18.92
6112,-7.37,2.28,-50.50,-1038.086,202.148,1676.270,22.80,-12.45,-37.05,18.83
6122,11.27,2.83,-52.97,133.301,-380.859,516.113,22.80,-12.45,-37.05,18.88
6134,7.81,8.22,-43.69,238.281,-965.332,1081.055,23.55,-13.20,-37.05,18.92
6144,-2.29,10.92,-45.92,-158.691,-488.770,911.133,24.00,-12.45,-36.00,18.83
6154,-9.62,6.85,-42.24,300.293,-699.219,1172.852,24.00,-13.20,-36.00,18.59
6164,-16.68,2.79,-39.59,-437.500,-688.477,1462.891,23.55,-13.65,-37.50,18.83
6174,-13.59,-3.35,-49.63,151.367,-796.875,284.180,24.00,-13.65,-38.25,18.83
6184,-16.97,-0.88,-49.25,-437.012,-83.008,679.687,23.70,-14.70,-35.70,18.88
6196,-14.27,-9.55,-45.85,-659.668,584.961,531.250,23.55,-14.40,-37.05,18.83
6206,9.43,-10.93,-58.50,491.211,-81.543,-93.750,25.35,-17.10,-36.60,18.83
6216,12.44,1.34,-54.63,-500.488,-119.141,491.211,23.25,-16.05,-37.50,18.88
6226,9.85,-16.69,-48.47,68.359,-1402.344,738.770,25.50,-14.85,-37.50,18.54
6236,8.43,2.44,-50.67,-985.352,275.879,1715.332,24.15,-13.50,-38.10,18.54
6246,24.15,-3.90,-42.21,-2.930,-1965.820,462.402,24.15,-13.50,-38.10,18.83
6256,-6.35,9.52,-38.38,-379.395,-710.449,1997.070,23.55,-15.30,-38.25,18.83
6268,-4.79,13.02,-49.00,134.766,-563.965,85.449,24.00,-15.30,-39.30,19.02
6278,-9.33,2.38,-38.16,-97.168,-751.953,1196.289,23.40,-15.00,-39.15,18.92
6288,-7.12,2.54,-46.19,-180.176,-680.176,1449.219,23.40,-15.45,-38.40,19.02
6298,-7.89,0.16,-47.74,-51.270,-1122.559,1097.656,23.40,-15.45,-38.40,18.83
6308,-11.15,4.05,-41.18,31.738,-738.281,674.316,24.75,-16.05,-38.55,18.73
6318,-10.56,-4.98,-43.53,72.754,-424.316,1445.801,24.00,-15.60,-39.30,18.83
6328,0.84,0.69,-46.56,-122.070,-457.031,1083.496,24.00,-15.60,-39.30,18.88
6340,2.14,-8.89,-47.18,-291.016,74.219,1433.105,23.55,-16.50,-39.30,18.73
6350,8.21,-4.92,-49.05,-425.781,-328.613,1802.246,24.15,-16.65,-38.10,18.83
6360,14.96,-0.82,-41.33,-133.789,-997.559,1301.758,24.30,-16.80,-37.80,18.83
6370,9.28,4.17,-47.93,-204.590,-440.430,654.785,24.00,-15.60,-39.75,18.68
6380,0.79,0.13,-47.98,-158.203,-532.227,916.016,24.00,-15.60,-39.75,18.83
6390,4.33,4.82,-53.52,-1.953,-404.297,803.711,24.00,-18.00,-39.30,18.88
6400,-3.15,4.48,-47.76,14.160,-458.496,1145.996,24.00,-17.25,-38.55,18.54
6412,-6.08,3.18,-40.34,-278.809,-387.695,944.336,25.50,-16.80,-39.00,18.54
6422,-0.90,-0.84,-42.91,-105.469,-260.254,1228.027,23.70,-18.60,-39.15,18.59
6432,1.33,-0.20,-36.59,12.207,-513.184,1475.586,23.70,-18.60,-39.15,19.07
6442,2.02,-1.18,-43.52,-343.750,-323.730,1594.238,25.50,-18.45,-39.00,18.73
6452,-0.98,-0.12,-42.05,-381.348,-855.957,1625.488,24.00,-18.45,-39.30,19.02
6462,-0.08,-0.27,-42.20,-183.105,-1011.719,1199.707,24.15,-18.60,-39.15,18.88
6474,4.82,-8.53,-48.43,-45.898,-758.789,1046.387,24.30,-19.20,-40.05,18.92
6484,-6.56,-8.31,-38.86,-345.215,-733.887,1999.939,24.30,-19.20,-40.05,18.88
6494,-5.04,-3.04,-47.71,-217.773,-603.027,596.191,25.05,-20.40,-39.30,18.92
6504,-4.65,-5.48,-55.61,-78.125,-305.176,239.258,25.80,-20.40,-39.00,18.59
6514,-1.41,0.43,-47.31,-335.937,13.672,865.234,25.80,-20.40,-39.00,18.83
6524,2.04,2.49,-50.39,-63.477,-338.867,710.449,24.15,-20.25,-38.85,19.02
6542,-9.55,9.32,-48.47,-332.031,-40.527,1075.195,24.90,-18.60,-39.15,18.88
6551,-10.16,9.25,-50.07,-206.543,-633.789,1329.590,24.30,-20.40,-38.55,18.88
6561,-4.62,7.05,-44.44,152.344,-337.402,723.633,24.30,-20.40,-38.55,18.92
6571,-4.79,3.15,-39.20,18.555,31.738,768.066,23.40,-20.70,-39.90,18.92
6581,1.15,2.37,-46.34,-330.566,-576.660,1089.844,25.35,-21.45,-40.65,18.54
6591,-7.91,4.98,-37.70,-72.754,-444.336,1197.266,24.75,-21.30,-39.00,18.92
6601,-5.56,-0.32,-45.96,-106.445,-254.883,1266.113,25.05,-22.05,-40.05,18.83
6613,-2.11,2.03,-44.11,-102.539,-331.543,1189.941,25.05,-22.05,-40.05,19.02
6623,5.42,-6.24,-43.05,-165.039,-355.469,1164.551,24.60,-21.90,-39.60,18.83
6633,10.00,-7.13,-46.44,-154.297,-725.586,725.586,24.15,-23.10,-39.15,18.83
6643,2.39,-9.94,-45.90,-342.773,-285.156,1119.629,22.95,-22.20,-39.15,18.88
6653,3.61,-2.15,-44.50,-125.000,-443.848,1223.145,23.55,-22.50,-39.75,18.88
6663,-6.38,-2.44,-41.69,-160.645,-671.387,668.457,23.55,-22.50,-39.75,18.83
6673,-5.51,-3.51,-41.66,-283.691,-656.250,1665.039,25.05,-22.50,-38.55,18.88
6685,-11.97,0.29,-42.29,34.180,-211.914,1103.027,24.15,-23.40,-38.85,18.73
6695,-7.32,2.34,-39.45,-261.719,-800.293,984.863,24.15,-23.40,-38.85,18.88
6705,-13.80,4.16,-41.56,-126.953,42.480,1180.176,24.30,-22.50,-39.75,19.12
6715,-10.79,5.43,-39.02,-348.633,-306.641,1022.461,24.15,-24.30,-40.35,18.88
6725,-6.30,10.35,-45.11,-92.285,-222.656,732.910,23.40,-24.30,-39.15,18.73
6735,1.34,3.82,-45.20,2.441,-755.371,788.574,24.15,-24.30,-39.15,19.12
6744,4.87,-5.57,-41.11,-91.309,-630.859,1373.047,24.15,-24.30,-39.15,18.83
6756,0.78,-4.60,-38.57,46.875,-397.461,1026.367,24.60,-25.80,-40.35,18.54
6766,-6.15,-2.24,-45.50,-14.648,-614.258,1413.574,24.60,-25.80,-40.35,19.07
6776,1.37,-7.02,-46.11,-26.855,-1001.465,1127.441,22.80,-24.00,-39.75,18.73
6786,0.38,-9.50,-44.21,42.969,-516.113,864.258,24.30,-24.45,-38.55,19.07
6796,-3.89,-4.86,-42.09,-183.594,-499.512,587.891,24.30,-24.45,-38.55,18.88
6806,-0.06,-8.26,-39.08,-82.031,-297.852,1288.574,23.55,-25.65,-39.30,18.83
6818,-4.82,-6.59,-39.83,-313.965,-99.121,1340.820,23.55,-25.20,-39.00,18.88
6828,6.44,0.72,-33.89,153.320,-89.844,976.562,24.30,-25.65,-37.80,18.83
6838,8.84,-3.25,-42.15,95.703,-519.043,1005.371,22.65,-25.50,-38.85,18.83
6848,-0.34,2.95,-33.37,-301.758,-472.656,646.484,22.35,-25.65,-39.75,19.12
6858,3.97,1.65,-38.31,-58.105,-454.590,722.656,22.20,-27.75,-39.15,18.83
6868,-13.54,0.19,-39.82,105.469,-252.930,379.395,22.20,-27.75,-39.15,18.83
6878,-1.39,6.28,-33.02,-85.938,-387.207,1316.895,23.40,-27.75,-39.15,18.92
6890,3.21,-2.80,-40.32,25.879,-175.781,1125.977,24.00,-27.60,-40.05,19.02
6900,-0.04,1.47,-33.59,151.367,-573.242,715.820,23.70,-26.55,-39.15,18.83
6910,-4.58,3.81,-31.09,-18.555,-437.988,1037.109,22.35,-28.05,-38.55,18.92
6920,-0.42,-2.66,-34.63,-124.023,-605.469,1397.461,22.35,-28.05,-38.55,18.59
6930,-5.13,-5.84,-38.86,-186.523,-541.504,560.547,22.35,-27.15,-39.75,19.02
6940,-7.44,3.82,-33.07,3.906,28.320,853.516,22.05,-27.15,-39.30,18.88
6949,-0.77,3.23,-43.89,-20.996,-311.523,927.734,21.90,-27.45,-41.10,18.88
6961,2.39,1.27,-67.90,-96.680,-745.117,812.012,22.35,-28.35,-39.75,18.92
6971,-2.09,11.36,-41.09,-39.063,-146.973,1276.367,22.35,-28.35,-39.75,18.83
6981,-1.65,-0.56,-28.42,257.812,-492.676,1362.305,22.05,-28.80,-39.30,18.92
6991,-5.24,-1.12,-32.69,-72.754,-575.195,1415.039,22.95,-28.20,-39.60,18.68
7001,-1.14,-1.27,-33.92,-122.070,-433.105,976.074,22.95,-28.20,-39.60,18.92
7011,-0.27,-0.02,-35.19,-43.945,-613.770,1074.707,22.35,-28.35,-39.75,19.02
7021,3.94,3.27,-39.66,85.938,-791.016,830.566,22.05,-26.40,-40.50,18.92
7032,-2.01,-1.08,-40.47,-75.684,-341.797,1743.164,22.95,-30.60,-38.40,18.83
7042,-2.54,0.40,-39.02,-85.449,-177.734,570.801,21.60,-29.55,-40.80,18.83
7057,6.56,0.89,-49.08,-166.992,-114.258,784.668,21.60,-29.55,-40.80,18.88
7066,11.37,-0.20,-21.27,166.504,-208.008,439.941,23.40,-31.80,-38.40,18.88
7076,4.39,1.34,-39.80,-142.090,-527.832,1731.934,22.05,-27.60,-38.55,18.73
7086,-20.92,-13.34,29.24,-64.941,-450.195,1339.844,22.05,-29.55,-37.50,18.92
7098,2.02,1.15,-36.67,430.664,-403.809,413.574,21.90,-29.85,-40.35,18.88
7108,-4.36,-3.44,-30.83,110.352,-522.949,1111.816,21.30,-30.00,-40.80,18.88
7118,-2.92,-4.98,-31.15,-148.437,-596.191,1255.859,21.45,-28.95,-39.90,18.83
7128,-1.36,-1.82,-31.56,-114.258,-340.820,385.742,21.60,-31.20,-39.75,18.73
7138,-6.08,0.71,-40.76,-30.273,-645.020,351.562,20.25,-29.40,-41.40,18.92
7148,-5.94,-0.24,-35.49,-272.949,-142.090,840.820,20.25,-29.40,-41.40,18.88
7158,-1.31,-4.53,-45.61,-119.629,-304.199,911.621,20.70,-31.05,-39.15,18.73
7170,1.94,-1.24,-29.26,-131.836,-409.180,1199.219,22.20,-29.40,-40.65,18.83
7180,-0.96,-1.21,-39.11,-284.668,-415.039,1363.281,22.20,-29.40,-40.65,18.88
7190,3.95,-1.21,-33.11,-104.004,-582.031,628.418,20.85,-30.00,-39.75,18.92
7200,-2.31,9.50,-81.55,-135.742,-246.582,1149.902,22.35,-31.20,-37.05,18.83
7210,4.63,3.02,-44.77,-56.641,-543.945,1365.234,19.95,-30.60,-39.90,18.54
7220,1.61,3.15,-34.66,-180.664,-549.316,1208.008,20.85,-29.55,-39.75,18.83
7232,-1.72,3.92,-39.53,442.871,50.781,1237.305,20.85,-29.55,-39.75,18.54
7242,3.54,-3.31,-57.97,353.516,-221.680,1438.477,19.65,-30.75,-40.80,18.88
7252,9.83,1.11,-44.79,-166.504,-387.207,856.934,21.00,-31.05,-38.40,19.02
7262,18.69,-3.82,-34.91,150.879,-774.902,843.262,19.95,-32.25,-39.15,19.02
7272,9.82,0.82,-24.38,104.004,-609.375,877.930,20.10,-30.75,-40.05,18.73
7282,6.93,-2.31,-35.52,-62.500,-803.711,1102.051,20.10,-30.75,-40.05,18.73
7292,-1.10,-8.92,-29.81,-66.406,-569.824,1163.086,18.15,-32.40,-41.25,18.83
7304,-8.53,5.41,-30.11,183.594,-375.977,1162.598,20.10,-31.95,-38.55,18.92
7314,-5.85,-5.41,-22.02,-382.324,-247.559,1412.109,20.25,-32.25,-39.60,18.73
7324,1.54,-0.06,-33.89,-1.465,-356.445,812.500,18.90,-32.40,-40.50,19.12
7334,1.98,7.71,-28.13,313.965,-446.289,519.531,19.35,-33.15,-39.30,18.92
7343,9.47,2.71,-27.05,-122.559,-279.785,526.367,19.65,-31.65,-40.05,18.83
7353,2.46,5.41,-26.98,-196.289,-322.266,1449.707,19.95,-32.55,-38.10,18.73
7363,8.24,-0.67,-29.21,-127.441,-662.109,1244.629,19.95,-32.55,-38.10,18.54
7375,-2.27,-0.96,-34.72,338.379,-562.500,1108.887,19.50,-31.05,-40.35,18.88
7385,-5.61,-2.78,-28.89,-101.563,-478.027,1609.375,19.35,-33.60,-38.55,18.59
7395,7.40,-1.86,-30.23,66.406,-500.000,322.754,18.75,-34.20,-38.85,19.02
7405,-3.35,0.85,-35.33,-114.258,-252.930,1086.426,19.20,-33.00,-38.40,18.92
7415,7.31,-1.27,-25.92,-57.617,-488.281,1680.664,19.20,-33.00,-38.40,18.83
7425,0.75,-2.84,-29.52,-35.645,-580.566,1051.270,17.85,-31.65,-39.00,18.88
7435,-0.75,-0.73,-38.72,-14.648,-341.797,449.219,19.20,-33.45,-39.15,18.83
7447,11.63,17.96,43.94,-264.648,-332.520,1898.438,18.75,-33.75,-38.85,18.73
7457,-3.80,7.85,-97.76,8.789,-237.793,652.832,18.15,-33.15,-39.75,18.83
7467,4.96,-2.85,-23.82,-345.703,-35.645,1638.672,18.15,-33.15,-39.75,18.83
7477,3.77,-7.11,-55.57,-134.766,-411.133,1876.953,17.40,-31.65,-40.05,18.83
7487,18.77,-9.59,-21.77,192.383,-586.426,534.180,18.90,-34.05,-39.30,18.88
7497,-2.00,-5.15,-39.72,-107.422,-425.781,1601.563,18.90,-34.05,-39.30,19.12
7509,-2.02,-8.66,-21.25,552.246,-513.672,-185.547,17.25,-35.40,-38.40,18.88
7519,-11.70,-0.05,-35.39,-21.973,-109.375,-45.898,17.55,-32.55,-38.40,19.02
7529,-10.37,-6.42,-33.40,-382.812,180.664,1526.855,17.85,-33.15,-37.80,18.92
7539,1.06,-7.34,-25.24,-75.195,-311.523,733.398,17.85,-33.15,-37.80,19.07
7549,6.97,0.18,-24.15,315.918,-80.566,1022.461,17.40,-32.40,-39.30,18.73
7559,0.40,9.57,-42.62,-561.523,-86.426,1063.477,17.40,-35.55,-37.80,19.02
7574,11.28,-3.31,-23.12,11.719,-415.039,854.004,16.65,-33.60,-39.30,18.88
7583,9.83,1.50,-28.82,235.840,-500.000,499.023,17.25,-34.20,-38.10,18.83
7594,-8.88,2.65,-23.28,-406.250,-496.094,1999.939,17.25,-34.20,-38.10,18.83
7604,3.67,-1.86,-30.90,193.359,-825.195,944.824,17.40,-34.35,-37.80,18.83
7614,-8.16,-1.70,-23.66,204.590,-270.996,481.934,16.20,-36.00,-37.80,18.83
7624,-5.06,-4.37,-33.20,-466.309,13.184,1975.098,17.40,-36.00,-38.55,18.88
7634,7.66,-7.04,-31.47,-117.676,-258.789,1645.996,17.10,-34.80,-38.55,19.07
7644,5.08,-3.54,-32.22,663.574,-380.859,18.066,15.90,-36.00,-37.80,18.88
7654,-13.75,0.22,-36.21,-283.203,276.855,670.410,15.45,-34.35,-37.50,19.07
7666,1.05,3.38,-28.88,-178.711,-120.605,260.742,14.85,-35.40,-38.10,18.88
7676,-5.86,-2.18,-28.18,-665.527,-788.574,1999.939,14.85,-35.40,-38.10,18.88
7686,9.07,0.89,-32.62,129.395,-782.715,974.609,15.75,-34.20,-38.85,18.83
7696,-4.00,3.33,-32.23,65.918,-121.582,1144.531,15.90,-35.55,-38.25,18.83
7706,-4.31,2.80,-23.85,-240.234,-376.465,1475.098,15.75,-34.95,-38.85,19.07
7716,-0.96,-0.80,-36.35,-10.742,-752.441,1275.879,16.65,-33.60,-39.00,19.02
7726,2.27,4.59,-32.10,327.637,-573.242,114.258,16.65,-33.60,-39.00,19.02
7738,6.76,0.01,-38.87,37.598,-610.840,1023.926,15.75,-34.65,-38.85,19.07
7748,1.66,-2.89,-28.86,491.699,-287.598,854.004,16.50,-37.35,-37.65,18.88
7758,-1.44,-2.39,-32.76,-265.625,-343.750,1809.570,15.30,-36.15,-39.60,18.92
7768,4.59,-6.04,-27.07,34.668,-672.852,1218.750,15.30,-34.20,-38.85,18.88
7778,5.06,2.66,-60.53,-83.496,-26.367,816.406,15.30,-34.20,-38.85,18.88
7788,-1.88,-5.38,-41.47,-208.008,173.340,1999.939,14.40,-37.20,-39.00,18.88
7798,8.52,-2.73,-27.05,215.820,-309.570,888.184,14.85,-36.60,-37.65,18.83
7810,1.29,-5.14,-31.05,-545.898,65.430,1571.777,14.85,-36.15,-38.10,19.07
7820,17.22,6.21,-34.06,532.715,-770.996,-140.137,15.90,-37.20,-37.05,18.88
7830,-8.85,7.50,-29.78,-224.609,0.488,972.656,15.15,-36.00,-36.75,18.88
7840,-13.81,4.91,-25.17,-96.191,-1010.742,1846.680,14.70,-34.80,-37.50,19.02
7850,0.57,-0.59,-24.12,201.172,-461.914,598.633,14.70,-34.80,-37.50,18.73
7860,-14.76,5.98,-33.33,38.574,344.727,668.457,13.35,-36.60,-37.65,19.02
7872,11.72,6.92,-27.98,65.430,-239.746,318.359,14.10,-36.15,-37.35,18.83
7882,1.61,-4.47,-32.68,-510.254,-449.707,1999.939,14.70,-36.45,-36.30,18.88
7892,28.37,-6.52,-18.53,878.418,-721.191,819.824,14.10,-36.60,-38.10,19.02
7902,-7.40,3.97,-34.14,-230.469,2.441,546.875,14.10,-36.60,-38.10,18.88
7912,11.15,1.63,-28.46,882.812,-471.191,559.570,13.35,-36.60,-36.90,19.07
7922,9.44,2.50,-36.70,104.004,-616.211,487.793,14.10,-36.60,-36.90,18.83
7931,-14.76,-1.00,-31.42,-76.172,438.965,879.883,13.80,-35.85,-35.70,19.07
7943,-4.31,-1.49,-33.94,347.656,-160.156,697.754,13.95,-36.45,-37.05,18.73
7953,-3.28,-1.27,-33.31,-324.219,-279.297,1457.031,13.95,-36.45,-37.05,19.12
7963,5.21,0.98,-30.27,451.172,-572.266,838.867,13.50,-37.20,-36.30,19.02
7972,8.89,6.46,-29.83,365.234,-492.187,488.281,14.10,-35.40,-38.85,18.92
7982,-4.94,11.44,-39.24,-326.660,184.082,662.109,14.10,-35.40,-38.85,18.92
7992,8.27,0.03,-29.76,-142.578,-352.539,1507.324,12.75,-36.75,-36.30,18.59
8002,28.02,9.04,50.89,532.715,-347.168,714.355,13.95,-35.55,-37.05,19.12
8014,13.45,0.67,-41.07,250.488,-824.707,64.453,13.20,-36.00,-37.05,18.88
8024,7.08,2.76,-31.45,529.297,-818.848,-34.668,12.45,-36.75,-36.30,19.07
8034,-15.27,-5.08,-23.02,-512.207,-269.531,1999.939,12.45,-36.75,-36.30,18.83
8044,8.22,-7.66,-33.13,831.543,-1109.375,706.055,13.50,-37.65,-36.30,18.83
8054,-14.47,-0.13,-32.48,-142.090,-64.941,940.918,13.50,-36.00,-37.80,18.88
8064,-6.75,-2.61,-32.27,-207.031,-563.477,1319.336,13.50,-36.00,-36.75,18.73
8074,13.85,-4.53,-35.18,367.187,-714.844,213.867,13.05,-35.40,-36.90,18.83
8091,19.54,-3.10,-33.29,510.254,-842.285,83.984,12.60,-36.15,-36.90,18.83
8100,-4.45,2.46,-38.94,-304.199,51.758,592.285,13.05,-36.15,-38.40,18.83
8110,3.55,-2.00,-31.52,-172.852,-530.273,1698.730,13.05,-36.15,-38.40,18.83
8120,-2.78,0.60,-33.26,42.969,-347.168,784.668,13.20,-36.45,-36.00,18.92
8130,1.34,3.08,-33.37,-49.316,-383.301,1334.473,13.80,-37.05,-37.35,19.02
8140,2.35,1.57,-34.44,-251.953,-1024.414,1655.273,13.80,-35.40,-38.40,18.68
8152,0.64,-1.05,-30.98,-155.762,-372.559,1685.547,13.35,-37.35,-37.35,19.02
8162,4.36,-0.41,-36.15,-219.238,-861.816,999.512,13.35,-37.35,-37.35,18.68
8172,-0.85,-1.20,-39.66,165.527,-634.277,923.828,12.45,-37.20,-37.05,18.92
8182,5.60,-6.32,-36.61,88.379,-312.988,1482.422,12.00,-36.45,-36.75,19.07
8192,9.47,-1.54,-37.21,-94.727,-520.508,1100.586,12.30,-36.15,-37.35,18.68
8202,2.23,0.44,-43.03,-16.113,-559.082,352.051,11.70,-36.45,-37.05,19.02
8214,-0.71,-4.59,-40.41,-62.012,-850.098,963.379,11.70,-36.45,-37.05,19.02
8224,-0.29,2.28,-45.40,-151.855,-247.070,1359.863,12.45,-35.55,-37.05,18.83
8234,9.20,0.98,-47.10,-147.949,-895.020,1252.441,11.85,-37.35,-37.35,18.92
8244,-1.53,1.59,-39.82,-160.645,-736.816,530.273,11.25,-36.45,-37.05,18.73
8254,-8.24,4.83,-44.22,-283.203,-201.172,916.016,12.00,-36.75,-36.30,19.02
8264,7.60,4.08,-46.60,-82.031,-284.668,914.062,12.00,-36.75,-36.30,19.07
8274,8.73,6.92,-36.03,267.578,-543.945,60.059,12.00,-36.45,-37.05,18.83
8286,7.43,2.86,-36.26,-117.188,-1048.828,440.430,11.85,-37.05,-37.35,18.92
8296,4.95,-2.30,-43.37,-217.285,-430.664,1306.641,11.85,-37.05,-37.35,18.92
8306,-2.85,4.61,-48.34,-281.738,-916.016,1409.668,12.75,-36.75,-35.55,19.07
8316,8.08,-0.36,-54.11,56.152,-617.187,479.980,11.10,-39.00,-36.90,18.83
8326,1.13,-4.21,-47.05,-336.914,-608.887,1414.063,11.25,-37.65,-37.50,18.68
8336,7.01,-2.69,-41.12,-545.898,-511.719,1916.504,11.40,-37.35,-35.70,18.88
8346,8.56,0.54,-48.72,-95.215,-621.094,1041.504,11.40,-37.35,-35.70,18.59
8358,6.38,0.45,-44.85,-254.883,-904.297,995.117,10.50,-37.95,-37.05,18.92
8368,2.94,4.85,-37.79,-4.883,-560.059,1108.398,11.25,-38.40,-36.00,19.07
8378,-3.66,1.38,-49.83,57.617,-611.816,1700.195,10.65,-38.55,-36.90,18.83
8388,6.37,4.12,-48.47,-48.828,-445.312,890.137,10.65,-35.85,-36.60,19.02
8398,4.90,2.10,-50.50,219.238,-721.191,171.875,10.65,-35.85,-36.60,18.83
8408,-1.49,-0.09,-48.40,-735.352,-442.871,1377.441,10.05,-37.95,-36.30,18.83
8418,-0.47,0.92,-46.02,-228.027,-186.035,1775.879,10.50,-37.20,-36.00,19.02
8430,-6.41,7.53,-40.41,-70.801,-1458.008,1437.500,10.05,-39.90,-36.00,18.88
8440,-18.82,-8.29,-49.19,-183.594,-938.477,1404.297,10.50,-37.95,-35.55,19.07
8450,-1.73,2.84,-45.02,-117.676,145.508,1662.109,10.50,-37.95,-35.55,18.92
8460,-6.35,1.63,-54.05,-454.590,92.285,1421.387,9.00,-40.35,-35.55,18.73
8470,3.47,-7.31,-52.16,226.562,-409.180,796.875,10.05,-37.20,-36.30,19.02
8480,-3.44,-2.31,-44.99,-135.254,-142.090,693.848,10.05,-37.20,-36.30,18.88
8492,3.27,-1.83,-45.63,245.605,-673.340,357.910,10.95,-37.95,-36.30,18.88
8502,-11.48,-3.65,-50.56,-541.992,12.695,1152.344,9.15,-39.30,-33.90,18.83
8512,16.31,-0.14,-47.11,-96.191,-460.937,753.418,9.75,-37.95,-36.30,18.83
8522,15.12,3.65,-44.96,-45.410,-787.598,1004.883,9.75,-37.95,-36.30,19.07
8532,7.60,1.59,-43.13,-98.633,-684.570,1843.262,9.75,-39.90,-35.25,19.07
8542,16.82,-2.38,-48.44,146.973,-921.875,971.191,9.00,-37.65,-36.30,19.02
8552,-0.40,1.19,-41.44,181.152,-396.484,524.414,8.55,-39.15,-36.30,18.88
8564,7.23,1.10,-48.72,113.281,-499.512,774.902,9.00,-39.15,-36.30,18.92
8574,-5.08,2.66,-45.01,-374.023,-374.023,1260.742,9.00,-39.15,-36.30,18.88
8584,0.50,-1.08,-41.94,-52.246,-300.293,1288.086,9.15,-41.40,-34.95,18.92
8594,6.70,-2.08,-44.94,127.441,-463.379,622.559,8.55,-37.65,-36.00,18.88
8609,-4.25,-4.28,-44.65,19.043,-331.055,560.059,7.95,-39.75,-34.20,18.83
8618,-4.91,-6.47,-36.52,-276.855,-625.977,1565.430,7.65,-40.20,-34.20,19.21
8628,8.50,-5.26,-53.66,30.273,-674.805,649.902,7.65,-40.20,-34.20,18.92
8638,-0.29,-6.99,-46.73,-185.059,-190.918,1481.445,9.00,-39.90,-34.05,18.83
8650,-2.87,1.92,-49.95,254.395,-308.594,561.523,7.95,-38.55,-35.40,18.92
8660,-7.10,-4.62,-52.19,-166.504,-292.969,1207.031,7.95,-38.55,-35.40,18.68
8670,8.31,-3.89,-42.66,393.555,-757.812,525.879,8.40,-40.50,-35.40,18.88
8680,3.56,6.85,-43.34,-64.941,-775.879,712.891,7.05,-39.60,-35.55,18.88
8690,-10.06,-0.27,-50.11,-295.410,-397.949,1964.844,6.30,-39.15,-34.05,19.02
8700,2.60,-3.56,-47.21,103.027,-684.082,471.191,6.90,-40.50,-34.95,19.02
8710,-0.17,9.02,-44.24,106.445,-104.980,1041.504,6.90,-40.50,-34.95,18.88
8722,12.39,7.07,-57.15,129.395,-783.691,101.563,7.20,-40.50,-35.40,19.07
8732,5.10,12.92,-44.95,-714.844,-178.711,841.797,7.20,-39.30,-33.45,18.88
8742,7.06,3.21,-44.50,415.039,-1159.668,1448.242,6.90,-40.95,-35.40,18.83
8752,1.34,3.47,-50.03,35.156,-137.695,671.387,6.90,-40.95,-35.40,19.02
8761,5.72,3.69,-43.16,287.109,30.762,1399.902,6.90,-40.95,-35.40,19.12
8771,15.05,-11.31,-41.69,782.227,-1286.621,1321.777,5.25,-39.30,-34.20,18.88
8781,-5.78,-5.40,-63.88,-56.641,-219.238,600.098,7.65,-40.20,-33.45,18.83
8793,-0.82,-3.38,-73.39,327.637,-869.629,-104.492,5.25,-40.20,-34.20,18.83
8803,-29.49,-7.60,-52.45,-697.754,548.828,1507.324,5.25,-40.20,-34.20,18.83
8813,5.29,-7.27,-41.41,473.633,-974.609,-1.953,4.80,-40.35,-35.25,18.54
8823,4.38,9.69,-43.93,-100.098,-221.191,654.297,5.25,-40.95,-33.45,19.02
8833,9.07,-5.77,-34.63,-254.395,-1306.152,1999.939,5.25,-40.95,-33.45,19.12
8843,8.11,0.82,-48.24,229.980,-593.750,416.016,4.35,-40.80,-33.75,18.83
8855,3.62,-6.38,-40.40,198.242,-1121.582,699.219,5.70,-41.40,-34.95,19.12
8865,-4.60,3.70,-41.47,105.469,-324.219,471.191,5.10,-41.10,-33.75,19.07
8875,-13.61,2.19,-39.89,-683.594,-304.687,1999.939,5.25,-41.40,-34.20,19.07
8885,4.27,-2.30,-45.61,144.531,-1216.309,744.141,5.25,-41.40,-34.20,19.07
8895,-11.85,3.85,-41.44,67.383,-441.895,1479.980,4.95,-40.50,-36.15,18.83
8905,-4.36,-1.17,-51.67,-616.699,-293.457,1999.939,4.35,-42.00,-33.00,18.92
8915,14.24,6.64,-51.02,645.508,-581.543,-220.215,5.25,-42.60,-34.65,19.07
8927,29.66,-2.78,-46.20,1090.332,-1169.922,-137.207,4.80,-41.55,-34.50,19.02
8937,-4.92,-1.50,-51.58,-192.383,-433.105,1165.039,4.80,-41.55,-34.50,19.12
8947,26.15,-15.00,-46.24,693.359,-1175.781,672.363,4.95,-42.15,-33.15,19.02
8957,-8.98,-9.95,-48.42,-754.883,-485.840,1677.734,3.90,-40.80,-35.55,18.88
8967,-0.66,-8.45,-50.60,-57.129,-836.426,1737.305,3.90,-40.80,-35.55,19.07
8977,5.95,-3.26,-50.37,584.961,-854.004,671.875,2.40,-42.30,-34.05,18.88
8987,-20.11,-11.95,-42.66,-611.328,-500.977,1681.641,2.10,-41.55,-34.50,19.07
8999,-14.92,-0.95,-46.51,-951.660,26.855,1288.574,1.65,-41.55,-33.75,18.83
9009,11.15,-3.88,-52.17,62.012,-393.555,1153.809,1.80,-40.95,-34.20,18.88
9019,9.69,7.30,-34.89,79.590,-188.477,1236.328,1.80,-40.95,-34.20,19.07
9029,-10.52,-4.89,-59.42,-283.691,-1282.227,1999.939,1.05,-42.60,-33.15,18.92
9039,-3.50,-6.11,-39.03,-262.207,-1125.488,868.652,2.40,-42.00,-34.05,18.92
9049,-13.29,0.37,-50.90,-299.316,-264.160,563.965,1.65,-41.10,-33.00,19.02
9059,-18.23,-4.88,-46.37,-521.973,-265.625,1593.262,0.90,-41.55,-33.75,18.92
9071,-18.32,-1.67,-29.46,-662.598,-565.918,1413.574,0.90,-41.55,-33.75,18.88
9081,6.82,2.72,-48.76,242.187,-891.113,208.984,1.20,-43.20,-33.30,18.88
9090,0.86,2.35,-48.61,-61.035,-212.891,858.398,1.05,-42.15,-34.65,19.07
9100,2.34,5.10,-41.99,77.637,-224.121,1025.879,0.30,-41.70,-34.65,19.02
9109,10.56,-1.54,-53.26,-461.426,-353.516,1122.070,-0.30,-42.60,-33.90,19.02
9126,8.89,4.73,-47.53,-137.695,-356.934,480.957,-0.30,-42.15,-34.20,18.83
9135,8.09,-2.60,-43.14,68.848,-981.934,1163.574,-0.30,-42.15,-34.95,19.07
9145,10.08,-3.71,-44.71,402.344,-1118.652,105.957,-0.30,-42.15,-34.95,19.07
9155,-22.13,-2.08,-63.53,-228.516,-55.664,882.812,0.45,-41.55,-33.30,19.02
9165,-8.78,-7.80,-39.14,-324.707,-490.234,1398.926,-0.75,-43.35,-34.20,18.83
9175,1.56,-6.56,-44.98,567.871,-257.324,375.000,-0.15,-41.10,-33.30,18.92
9185,-4.82,-1.97,-50.42,-980.957,201.172,688.477,-0.90,-42.30,-33.30,18.73
9197,7.01,-0.21,-43.19,-313.477,-179.199,857.422,-0.90,-42.30,-33.30,19.02
9207,18.65,-7.02,-46.56,-120.605,-489.258,680.664,-0.75,-42.60,-33.45,18.83
9217,16.22,0.51,-48.50,429.199,-904.785,524.902,-3.00,-43.80,-33.90,19.07
9227,-5.83,7.06,-50.36,281.250,-692.383,378.418,-1.80,-41.70,-34.20,19.07
9237,-16.17,0.53,-47.91,-372.559,-1082.520,1557.129,-1.65,-42.00,-33.00,19.07
9247,-19.40,3.26,-51.85,324.707,-757.812,521.484,-1.65,-42.00,-33.00,18.92
9257,-17.96,4.76,-45.85,-130.371,-483.887,1483.887,-1.50,-41.70,-33.15,19.02
9269,8.35,5.49,-46.80,-79.102,-373.535,643.066,-3.15,-43.20,-33.75,18.83
9279,6.32,6.08,-51.76,-836.426,530.762,1977.051,-3.45,-42.90,-34.95,19.07
9289,23.76,4.45,-40.82,177.734,-614.258,645.020,-3.75,-42.15,-33.90,18.68
9299,6.50,10.47,-47.46,289.551,-962.402,883.789,-3.75,-42.15,-33.90,19.07
9309,-5.47,-1.36,-46.32,-77.637,-855.469,913.574,-4.35,-41.55,-35.25,18.88
9319,5.58,-0.10,-49.56,328.613,-659.180,323.242,-3.75,-41.70,-33.15,19.02
9329,-5.60,1.21,-45.56,-388.184,-291.992,1018.555,-3.75,-41.70,-33.15,19.02
9341,-9.69,-5.74,-34.44,172.363,-380.859,1069.824,-3.75,-40.95,-33.45,18.88
9351,-0.84,-4.74,-40.56,-474.121,-899.414,1609.863,-4.50,-42.90,-32.40,19.12
9361,9.34,-6.18,-52.58,587.891,-899.414,472.168,-5.70,-40.95,-32.40,19.02
9371,0.96,7.76,-47.53,-244.629,33.691,1082.520,-3.75,-40.50,-33.15,18.68
9381,0.56,-0.49,-48.35,-516.113,-726.562,1031.738,-3.75,-40.50,-33.15,19.02
9391,21.64,-3.82,-49.53,506.348,-940.430,476.074,-4.35,-42.30,-33.30,19.07
9403,9.02,-9.01,-37.97,589.844,-1033.691,157.715,-4.95,-40.95,-32.70,18.92
9413,-4.43,1.57,-40.58,9.277,-26.855,791.992,-6.15,-42.90,-33.45,18.83
9423,-28.62,5.45,-47.21,-1210.449,-341.309,1705.078,-4.95,-41.70,-32.70,19.07
9433,21.49,-1.89,-44.81,666.016,-1286.621,335.937,-4.95,-41.70,-32.70,19.07
9443,-14.87,10.86,-45.67,-383.301,282.227,453.125,-6.90,-39.75,-32.70,18.83
9453,5.78,3.88,-41.33,-188.477,-463.867,1020.996,-6.90,-39.75,-33.15,18.68
9463,20.11,8.76,-44.29,116.211,-202.148,1302.246,-6.30,-42.75,-31.80,19.02
9475,19.11,3.92,-46.77,743.652,-1150.879,-255.371,-7.05,-42.30,-33.00,18.88
9485,-4.89,2.11,-56.06,-771.484,164.551,909.180,-6.30,-42.00,-32.55,19.07
9495,9.96,-0.88,-49.55,379.395,-1779.785,768.555,-8.40,-41.40,-33.45,18.83
9505,-4.74,10.39,-50.11,197.754,-186.035,1369.141,-8.40,-41.40,-33.45,18.92
9515,-9.21,5.05,-40.81,-839.844,-1080.566,1999.939,-7.95,-41.70,-32.70,19.07
9525,9.02,7.40,-45.53,510.742,-1225.586,713.379,-7.95,-41.40,-33.45,19.07
9535,-1.76,7.99,-45.67,-722.168,88.867,1999.939,-6.15,-39.00,-32.70,18.88
9547,7.10,5.00,-49.20,215.332,-344.238,509.277,-7.05,-42.30,-32.55,18.83
9557,-4.76,0.37,-56.53,-951.172,-720.703,1999.939,-7.05,-42.30,-32.55,18.83
9567,18.79,1.44,-44.00,366.699,-1082.031,913.574,-7.80,-39.90,-31.80,18.88
9577,-6.34,3.85,-51.78,-416.016,-854.492,1999.939,-7.80,-42.00,-32.55,18.73
9587,5.10,3.48,-50.70,182.617,-46.387,1715.332,-8.70,-39.00,-32.70,18.83
9597,7.67,3.25,-43.65,455.078,-641.113,437.012,-7.65,-41.40,-31.20,18.88
9607,-33.31,3.05,-44.53,-988.281,-215.332,1219.727,-7.65,-41.40,-31.20,19.12
9619,-17.40,3.89,-47.93,-677.734,-170.410,1628.906,-7.65,-39.00,-31.65,19.02
9629,4.52,5.71,-40.68,553.223,-302.246,931.641,-7.95,-42.15,-31.65,19.02
9643,10.02,1.15,-52.18,157.715,288.086,1999.939,-9.75,-41.10,-31.80,19.07
9653,-0.21,-9.55,-58.78,243.652,-1560.059,752.441,-8.25,-37.95,-31.80,18.83
9663,4.11,-8.71,-59.12,-461.426,116.699,985.840,-9.60,-40.95,-31.20,18.83
9673,12.08,-14.89,-45.63,732.422,-1648.438,1692.383,-10.50,-39.15,-32.25,18.83
9685,-2.46,-8.87,-50.02,256.836,-1773.926,1432.129,-10.35,-40.50,-31.95,19.02
9695,-11.01,2.47,-51.94,15.625,-249.512,324.219,-11.10,-39.00,-33.15,18.88
9705,-2.61,-9.88,-59.15,-708.008,-808.594,1999.939,-10.65,-38.25,-32.40,18.83
9715,10.54,-1.26,-43.39,-72.754,-538.086,697.266,-10.50,-39.90,-32.25,18.83
9725,-5.01,0.70,-46.02,-669.434,-261.230,1278.809,-10.50,-37.95,-32.25,18.88
9735,6.98,-0.51,-58.20,153.809,-709.473,330.566,-10.50,-37.95,-32.25,19.07
9747,9.73,4.76,-41.56,108.398,-916.504,167.969,-10.95,-36.75,-32.55,18.83
9757,0.13,8.89,-46.49,-226.562,-704.102,538.574,-10.95,-37.95,-32.25,18.83
9767,-6.84,5.33,-46.63,-512.207,-368.164,918.457,-11.10,-37.05,-33.15,18.92
9777,8.79,3.05,-46.40,-188.477,-773.437,1148.926,-10.35,-37.80,-31.95,19.07
9787,5.28,2.50,-38.50,-85.938,-748.047,1507.813,-10.35,-37.80,-31.95,18.73
9797,-0.28,8.40,-54.20,-124.512,-916.016,553.711,-11.85,-37.80,-32.70,18.92
9807,4.39,-2.37,-50.11,43.945,-604.004,1146.484,-12.00,-36.45,-32.25,18.73
9819,7.34,-2.17,-50.31,-157.715,-525.879,1104.492,-12.00,-36.45,-32.25,18.92
9829,11.95,-3.56,-52.33,-286.133,-335.449,1221.680,-11.70,-36.75,-32.25,18.83
9839,8.91,-7.87,-55.46,38.574,-941.406,1668.945,-12.00,-37.20,-32.25,19.12
9849,-9.48,-1.66,-51.11,-265.137,-838.867,862.793,-12.45,-36.00,-33.30,18.83
9859,-8.93,-4.23,-47.48,-691.895,-826.660,1579.590,-12.60,-36.60,-33.15,19.02
9869,-0.84,-3.04,-55.55,-351.074,-197.754,1565.918,-12.60,-36.60,-33.15,18.83
9879,0.13,-3.69,-50.19,-356.445,-467.773,1254.883,-12.75,-36.00,-34.05,18.88
9891,7.77,4.99,-41.35,-317.871,-931.641,1103.027,-13.50,-34.80,-34.50,18.54
9901,-6.39,4.99,-54.74,-301.758,-653.320,1029.297,-13.20,-35.55,-32.55,19.12
9911,0.63,2.44,-50.17,54.688,-563.477,-148.437,-12.60,-35.40,-32.70,18.88
9921,3.14,9.95,-52.85,-198.730,-372.070,692.871,-12.60,-35.40,-32.70,19.07
9931,8.79,5.30,-46.69,92.285,-714.355,635.742,-12.45,-34.35,-33.30,18.83
9941,-4.61,2.59,-55.66,-71.289,-536.133,877.930,-13.50,-34.80,-34.05,18.88
9954,-8.94,-1.40,-58.81,-60.547,-472.656,916.016,-13.95,-35.25,-32.55,19.02
9963,-3.71,0.10,-62.53,-162.109,-511.719,672.852,-13.35,-33.45,-33.15,18.92
9973,-0.73,-0.75,-56.05,-227.539,-49.316,787.109,-13.35,-33.45,-33.15,18.88
9983,6.27,-5.15,-46.46,-169.922,-331.055,1387.207,-14.55,-33.45,-33.90,18.88
9993,5.81,-5.38,-47.35,-103.027,-800.293,1278.320,-12.75,-33.15,-32.55,19.07
10003,0.27,8.35,-51.40,-146.484,-472.168,743.652,-12.75,-33.15,-32.55,18.92
10013,15.63,3.69,-55.92,34.668,-400.391,1269.043,-12.75,-32.85,-31.80,19.02
10025,14.15,7.22,-52.89,-268.555,-948.242,618.164,-14.70,-33.15,-33.00,18.92
10035,1.60,10.85,-39.86,-301.270,-828.125,845.215,-13.20,-33.15,-31.80,19.12
10045,-4.29,4.22,-49.05,-309.570,-713.867,1374.512,-13.20,-33.15,-31.80,18.88
10055,-1.90,7.45,-44.35,99.609,-512.207,1190.430,-13.50,-33.60,-31.05,18.83
10065,-17.25,9.79,-38.50,226.562,-141.602,841.309,-13.80,-31.80,-31.95,18.83
10075,-30.08,12.56,-74.77,-179.687,1213.379,1542.969,-13.80,-31.80,-31.95,18.92
10085,-12.58,7.04,-34.85,-76.660,638.672,1999.939,-13.05,-32.25,-32.40,18.88
10097,11.50,-4.86,-46.27,-248.047,-204.590,1308.105,-13.05,-32.25,-32.40,18.88
10107,8.66,4.66,-49.61,-42.480,-830.078,991.699,-13.50,-30.75,-31.50,18.92
10117,4.85,13.34,-43.12,-396.484,-340.332,847.656,-13.20,-31.65,-31.50,18.88
10127,10.56,10.08,-46.40,-476.074,-377.930,542.480,-13.50,-31.65,-29.85,19.02
10137,11.76,5.60,-47.73,66.406,-671.387,313.477,-13.20,-32.40,-31.05,18.83
10147,0.93,6.47,-24.82,-127.930,121.582,1381.836,-13.20,-32.40,-31.05,19.21
10164,-3.30,4.35,-43.85,-312.012,74.707,1999.939,-13.80,-31.05,-31.95,18.83
10173,24.18,-8.66,-36.66,379.883,-589.844,1710.938,-14.10,-30.60,-30.15,18.88
10183,32.47,-9.01,-44.64,-404.785,-697.754,1705.566,-14.10,-30.60,-30.15,18.92
10193,20.87,-16.09,-41.85,-51.270,-1026.855,1126.465,-14.85,-31.05,-30.45,19.07
10203,18.71,-24.34,-49.76,-145.508,-524.414,1999.939,-14.10,-31.05,-30.45,18.73
10213,10.58,-26.92,-44.43,-500.977,-1261.719,1668.457,-14.70,-30.45,-29.55,18.92
10223,-1.52,-23.92,-51.20,-408.691,-861.328,1713.867,-13.95,-29.25,-29.10,19.02
10235,4.57,-29.31,-111.74,-239.746,-1068.359,1999.939,-13.95,-29.25,-29.10,19.07
10245,-8.71,-27.89,-54.20,222.168,-572.754,1268.066,-15.75,-30.15,-28.95,18.88
10255,-14.07,-24.15,-46.57,325.195,7.812,202.637,-15.15,-29.25,-28.35,19.12
10265,-33.79,-31.56,-54.97,-274.902,-269.043,548.828,-16.05,-28.95,-27.45,18.92
10275,-18.74,-29.34,-50.89,-426.758,-239.746,29.297,-16.20,-29.25,-27.60,18.83
10285,-16.23,-22.02,-61.02,-409.668,145.996,1322.754,-16.20,-29.25,-27.60,18.83
10297,10.11,-6.37,-55.34,51.758,-673.828,784.668,-17.10,-30.00,-29.10,18.88
10307,11.70,-11.69,-50.26,143.555,-774.414,-452.637,-17.25,-29.40,-28.95,18.54
10317,-15.95,-14.92,-54.63,-86.914,-592.285,1054.688,-17.55,-28.95,-29.40,19.07
10327,-6.24,-7.18,-48.66,54.688,-21.484,446.777,-18.45,-28.20,-28.65,18.88
10337,-2.27,-19.18,-44.70,-64.453,-719.727,667.969,-18.75,-29.40,-28.20,19.12
10347,7.44,-21.52,-52.99,-298.340,-307.129,703.125,-19.20,-27.75,-28.95,19.02
10357,18.86,-4.33,-49.14,-339.844,133.301,595.215,-19.20,-27.75,-28.95,19.02
10371,45.01,-4.66,-46.54,-318.848,-213.867,921.387,-18.15,-28.05,-29.85,18.68
10380,39.60,1.26,-55.82,48.340,-1772.461,438.477,-19.20,-27.75,-29.40,18.83
10390,25.77,-0.44,-44.46,-302.246,-1459.961,640.137,-18.90,-27.15,-28.35,18.83
10400,17.50,4.12,-40.16,-374.023,-581.543,1845.703,-19.65,-28.05,-30.30,18.59
10410,9.17,16.77,-37.32,56.152,-1234.863,1628.418,-19.65,-28.05,-30.30,19.07
10420,-8.45,14.56,-38.06,-160.645,-678.223,745.117,-19.50,-27.00,-30.15,19.07
10432,-2.38,13.30,-59.99,-284.180,-428.711,875.488,-19.20,-26.25,-30.15,18.88
10442,17.40,6.05,-34.37,23.437,-680.664,1667.480,-18.90,-26.40,-29.10,18.83
10452,6.38,0.84,-39.63,474.121,-1135.254,1405.762,-18.90,-27.15,-31.80,18.92
10462,-9.69,-0.35,-47.11,121.094,-689.453,720.215,-18.90,-27.15,-31.80,19.07
10472,-3.56,-9.57,-40.27,20.508,-492.676,1999.939,-20.55,-26.40,-29.10,18.88
10482,-6.79,-6.59,-46.08,-99.609,-268.066,1999.939,-19.20,-27.00,-31.20,18.73
10492,8.95,-6.94,-45.00,91.797,-326.172,1485.352,-19.20,-27.00,-31.20,18.88
10504,18.31,-3.76,-41.89,56.641,-422.852,873.535,-21.30,-28.05,-29.85,18.73
10514,12.11,-12.41,-42.13,-59.570,-1300.293,1525.879,-20.25,-24.60,-30.90,18.83
10524,-1.72,-14.02,-42.85,-55.664,-992.187,687.012,-19.35,-27.60,-29.55,19.02
10534,-8.76,-9.60,-47.53,206.055,-805.176,611.816,-19.65,-24.90,-30.75,18.92
10544,-19.18,-3.99,-46.44,78.125,-386.230,759.277,-19.65,-24.90,-30.75,19.02
10554,-25.04,-4.38,-47.18,48.340,-245.605,790.039,-21.00,-27.00,-30.90,18.92
10566,-6.85,-8.48,-45.41,70.313,-146.484,943.359,-20.10,-25.65,-30.30,19.07
10576,-10.35,-4.49,-42.05,-163.574,-105.469,1028.809,-21.90,-27.75,-30.90,18.88
10586,2.07,-2.79,-40.19,133.789,-282.715,722.656,-19.95,-26.25,-28.95,18.59
10596,-3.26,-1.24,-46.76,-19.531,-62.012,554.199,-19.95,-26.25,-28.95,19.02
10606,2.48,-1.37,-41.59,152.832,-310.059,620.117,-22.20,-25.80,-29.70,19.02
10616,-4.08,-2.82,-36.48,26.367,-508.301,938.965,-20.85,-25.65,-29.55,19.12
10626,-3.18,-2.20,-38.66,205.566,-896.973,813.477,-21.60,-26.40,-29.10,18.92
10638,-3.42,0.64,-42.02,-281.250,9.277,673.340,-22.65,-25.50,-29.70,18.92
10648,3.61,2.21,-36.48,185.547,-176.270,847.168,-21.30,-25.20,-29.10,18.92
10658,10.97,1.67,-38.39,-4.395,-461.426,759.277,-20.55,-24.00,-28.80,18.88
10668,11.37,11.28,-41.15,-94.238,-447.266,542.969,-20.55,-24.00,-28.80,18.83
10690,19.85,9.73,-37.89,28.809,-592.773,1147.461,-20.25,-23.10,-28.65,19.07
10699,9.26,11.42,-39.70,-21.973,-349.121,680.664,-21.45,-25.05,-29.40,19.02
10709,5.24,4.05,-38.71,36.621,-228.027,1011.230,-22.65,-23.40,-28.20,18.88
10719,8.50,3.08,-30.47,-121.582,-612.793,1782.227,-22.65,-23.40,-28.20,19.07
10731,-2.08,2.38,-34.76,-217.285,-312.988,1228.516,-22.20,-23.40,-29.40,19.07
10741,2.81,-3.09,-31.95,74.707,-179.687,1540.527,-22.05,-24.00,-29.55,19.07
10751,6.30,-3.49,-41.11,15.625,-335.449,1354.980,-22.20,-23.85,-30.90,18.83
10761,6.02,-7.10,-42.18,17.578,-439.453,1544.922,-21.30,-22.05,-29.55,18.68
10771,6.01,-7.59,-42.42,-102.539,-542.480,712.402,-21.30,-22.05,-29.55,19.02
10781,-0.24,-10.64,-35.82,-226.562,-126.953,687.012,-22.95,-21.90,-29.40,19.21
10793,0.47,-7.17,-41.75,-32.227,-312.012,1045.898,-22.65,-23.40,-29.40,19.07
10803,-1.80,-7.98,-38.04,-133.301,-265.625,528.320,-22.95,-22.20,-30.15,18.92
10813,3.06,-5.69,-32.86,93.750,-233.887,823.730,-22.65,-21.45,-29.70,19.07
10823,-10.95,-2.87,-40.63,116.699,-456.055,1094.727,-22.65,-22.20,-30.90,19.02
10833,-11.77,-0.77,-30.27,-150.391,-276.855,1141.602,-22.20,-22.20,-30.45,19.02
10843,-17.31,-1.95,-35.34,-178.223,-183.105,819.336,-20.85,-22.80,-29.85,18.83
10853,-14.70,2.99,-35.67,-235.840,-79.102,534.668,-20.85,-22.80,-29.85,19.07
10865,-4.16,5.70,-37.06,-94.238,-169.922,702.637,-21.60,-22.50,-31.05,18.73
10875,6.10,8.18,-41.31,125.488,-7.324,610.352,-21.60,-22.80,-29.85,19.02
10885,7.27,5.79,-39.91,172.363,-22.461,568.848,-22.65,-22.65,-30.15,19.02
10895,13.08,-2.90,-41.52,258.789,-691.406,1923.340,-23.40,-23.10,-28.95,18.83
10905,26.13,-5.87,-40.66,256.836,-637.695,502.441,-23.40,-23.10,-28.95,18.92
10915,4.44,-2.68,-41.84,-242.676,-810.547,1267.090,-22.05,-21.60,-29.55,19.07
10925,-0.01,-8.78,-39.68,-314.453,-997.559,1228.516,-21.90,-22.20,-30.45,18.68
10937,-5.14,-2.15,-34.32,135.254,-320.312,1107.910,-24.00,-20.85,-30.75,19.07
10947,-4.89,1.48,-45.64,-92.285,-327.148,1183.105,-21.60,-21.30,-29.10,18.88
10957,1.85,1.27,-40.88,48.340,-487.793,623.535,-21.60,-21.30,-29.10,18.92
10967,5.66,3.53,-36.12,-80.078,-476.562,1140.137,-21.00,-20.25,-31.20,19.02
10977,-0.37,11.29,-33.09,-534.668,-295.410,1699.707,-22.95,-21.45,-30.90,18.92
10987,8.54,17.95,-40.24,91.797,-259.766,946.777,-22.95,-21.45,-30.90,18.92
10999,-9.23,8.02,-30.02,212.402,-230.469,275.391,-22.80,-21.30,-31.50,18.83
11009,-10.37,7.73,-33.61,508.789,-494.141,964.355,-22.95,-21.00,-30.15,18.88
11019,-10.76,0.16,-35.82,48.340,-709.473,1422.852,-21.90,-22.65,-30.45,19.02
11029,-9.82,-4.83,-36.60,-135.742,-418.457,1135.254,-21.90,-22.65,-30.45,18.59
11039,-2.34,-2.73,-34.69,424.805,-615.234,53.711,-22.95,-21.90,-30.15,19.07
11049,-7.26,-0.06,-36.88,108.398,-217.773,736.816,-22.80,-22.50,-30.75,18.83
11059,-16.05,-6.44,-34.17,-479.004,-253.418,1801.758,-22.65,-20.25,-28.65,18.92
11072,-12.29,-1.13,-47.65,-182.617,-56.641,989.746,-24.15,-22.65,-28.20,18.92
11081,1.76,-7.09,-36.21,213.867,-634.277,876.953,-24.15,-22.65,-28.20,18.88
11091,0.62,-0.31,-40.00,-6.836,-356.934,987.793,-21.60,-21.30,-28.80,18.92
11101,-3.32,2.77,-33.38,10.254,-226.562,375.000,-23.70,-19.80,-30.15,19.12
11111,-1.12,12.44,-31.93,-169.922,-47.852,618.164,-22.95,-18.30,-30.15,18.83
11121,0.79,5.77,-40.29,-393.066,-211.426,1112.305,-23.40,-21.00,-30.15,18.92
11133,0.11,6.65,-39.10,-14.648,-573.730,1693.359,-23.40,-21.00,-30.15,18.88
11143,-4.20,4.22,-35.56,83.984,-617.676,1999.939,-22.20,-19.80,-29.70,18.88
11153,-7.19,1.12,-37.80,31.250,-397.461,1229.004,-23.55,-18.00,-29.85,19.07
11163,-2.63,0.73,-30.32,335.937,-494.629,245.117,-23.55,-18.00,-29.85,18.88
11173,2.21,-0.68,-36.07,79.102,-84.961,625.977,-22.65,-18.30,-29.70,19.07
11183,12.15,-6.90,-43.09,-51.758,-127.930,1802.734,-23.40,-18.30,-29.40,19.07
11193,16.07,-7.73,-37.53,243.164,-553.711,1535.645,-22.05,-19.65,-29.10,18.73
11211,2.20,-7.02,-40.14,-478.516,-331.543,1999.939,-24.15,-19.05,-29.70,18.73
11220,4.33,-4.42,-46.65,100.586,-337.891,643.066,-22.35,-18.00,-28.80,18.73
11230,4.24,-5.76,-35.39,403.320,-502.441,959.961,-21.60,-17.25,-29.55,19.12
11240,-1.56,-10.24,-36.85,-36.621,-121.094,1551.270,-21.60,-17.70,-28.80,18.88
11250,1.16,-9.05,-35.17,-282.227,-256.836,1595.703,-22.65,-17.85,-28.95,19.07
11263,-19.81,-3.52,-33.53,-686.523,-64.453,1595.215,-22.65,-17.85,-28.95,19.12
11272,-2.24,-4.27,-36.31,24.902,-750.488,500.000,-22.35,-18.45,-28.80,19.07
11282,-19.24,2.54,-32.52,-93.750,151.855,587.402,-21.45,-17.40,-28.95,19.02
11292,-17.96,4.09,-32.21,93.750,-681.641,1104.004,-23.25,-16.50,-29.10,18.83
11302,-13.87,-0.47,-38.36,-322.266,-255.859,1331.055,-21.60,-18.90,-29.55,18.88
11312,-5.54,1.48,-32.39,222.168,-598.633,365.723,-22.95,-17.10,-30.15,18.88
11322,-2.15,6.55,-28.82,370.117,-93.750,401.367,-22.65,-17.40,-28.20,19.02
11334,11.87,0.05,-33.08,287.109,-400.879,520.996,-22.05,-18.90,-30.75,19.02
11344,-7.73,4.13,-33.70,-243.652,-188.477,1539.551,-22.05,-18.90,-30.75,19.07
11354,2.26,-4.49,-32.89,-484.375,-510.742,1762.207,-22.65,-17.40,-29.70,19.02
11364,-3.59,4.51,-39.64,23.926,-548.340,351.562,-22.80,-15.60,-31.80,19.07
11374,4.22,0.65,-35.59,285.645,-287.109,376.465,-22.65,-16.20,-29.70,18.73
11384,2.32,-1.82,-36.09,-477.539,-44.434,1589.844,-23.25,-17.25,-29.85,18.83
11394,16.32,-12.57,-40.76,573.730,-792.969,899.414,-23.25,-17.25,-29.85,18.92
11406,1.13,-6.05,-30.74,-535.156,-234.375,1654.785,-21.90,-15.90,-28.20,18.92
11416,12.02,-3.92,-30.44,-29.785,-344.727,1163.574,-22.20,-14.70,-30.90,19.12
11426,1.46,2.88,-45.69,-87.402,-89.355,896.973,-22.20,-13.05,-29.40,19.07
11436,-9.56,2.53,-25.88,-345.703,210.937,1474.609,-22.80,-16.05,-29.55,18.92
11446,-0.74,-10.98,-31.08,526.367,-953.613,242.676,-22.80,-16.05,-29.55,18.83
11456,-11.69,-4.22,-31.81,644.531,203.613,1157.715,-21.30,-14.40,-28.35,18.88
11468,7.58,-7.93,-28.83,568.359,-155.273,212.402,-21.45,-15.90,-29.40,19.07
11478,-1.65,-7.81,-38.25,5.371,83.984,1250.977,-21.45,-15.90,-29.40,18.92
11488,1.16,-10.80,-31.18,155.762,-351.074,1872.070,-22.95,-15.00,-29.40,18.83
11498,16.37,-9.53,-36.56,423.828,-360.352,729.004,-24.15,-14.25,-29.70,19.07
11508,-6.33,1.40,-25.51,-158.691,-202.637,1766.113,-22.35,-13.20,-29.55,19.12
11518,6.87,-2.34,-24.11,39.551,-852.539,906.738,-23.55,-15.60,-29.85,19.07
11528,3.61,-0.70,-33.28,-5.859,-435.547,8.301,-23.55,-15.60,-29.85,19.07
11540,7.68,0.27,-27.85,362.305,-630.859,445.801,-23.40,-13.05,-31.95,19.07
11550,-9.24,5.98,-25.68,41.504,-195.801,846.680,-21.90,-11.55,-32.40,19.07
11560,-3.85,5.67,-30.89,-319.336,-313.477,1971.191,-21.60,-13.65,-30.75,18.68
11570,8.68,-0.74,-33.40,280.762,-677.246,542.480,-21.60,-13.65,-30.75,18.73
11580,7.24,-0.46,-33.80,529.297,-499.512,534.668,-22.80,-12.90,-31.50,18.88
11590,-7.69,-6.02,-29.06,-354.004,-234.863,1999.939,-22.35,-14.40,-30.75,19.07
11602,-2.84,-1.00,-34.06,573.730,-102.539,1058.594,-19.65,-11.70,-31.05,19.07
11612,1.84,-9.48,-39.24,-363.281,-180.664,1498.535,-20.55,-13.65,-30.75,18.92
11622,18.82,-3.83,-40.25,435.059,-735.352,614.258,-21.30,-12.90,-31.05,19.02
11632,11.06,0.31,-33.59,-250.488,-287.109,750.488,-19.50,-12.75,-31.20,18.83
11642,5.64,-5.07,-37.29,22.461,-446.289,661.133,-20.85,-12.90,-29.85,18.88
11652,22.89,-1.85,-33.65,652.832,-516.602,456.055,-20.85,-12.90,-29.85,19.07
11662,-29.70,4.56,-34.62,-842.285,-1005.371,1867.188,-21.30,-12.15,-29.85,18.92
11674,-40.93,3.22,-30.02,-707.031,304.199,963.867,-20.10,-12.90,-29.85,19.07
11684,-15.34,2.40,-32.50,-353.516,-579.590,1242.188,-19.50,-12.75,-31.65,19.07
11694,7.82,-2.30,-43.38,687.988,-502.930,359.375,-20.70,-12.30,-29.40,19.07
11704,-19.03,-1.11,-37.27,-995.117,554.199,1999.939,-20.70,-12.30,-29.40,18.83
11714,18.68,-9.48,-38.39,354.492,-1181.152,-28.809,-20.70,-11.85,-30.90,19.07
11729,5.32,5.58,-51.26,139.648,-690.918,722.656,-21.00,-13.50,-28.95,19.02
11738,-2.55,-7.41,-41.76,-246.582,-821.777,1999.939,-21.45,-12.75,-31.20,19.07
11751,-12.40,-2.58,-44.35,-888.184,-65.430,1309.570,-19.65,-12.45,-31.05,19.02
11760,4.88,-1.92,-44.76,124.512,-817.871,232.910,-20.85,-11.25,-29.55,18.88
11770,5.89,2.08,-37.55,323.730,-422.852,766.113,-19.50,-9.90,-28.65,18.88
11780,-13.33,4.20,-46.60,-1177.246,-328.125,1999.939,-19.50,-9.90,-28.65,18.92
11790,6.82,8.89,-45.43,298.828,-867.676,-125.000,-21.45,-10.35,-30.45,18.83
11800,-0.58,14.79,-46.15,-472.656,63.477,823.242,-22.05,-10.50,-29.85,18.59
11810,15.86,9.24,-44.00,-628.418,-257.324,1999.939,-21.00,-10.35,-30.45,19.07
11822,-4.60,2.42,-54.15,-642.578,-762.695,1951.660,-20.25,-9.15,-30.15,19.07
11832,21.69,-5.81,-31.00,1010.742,-1027.344,557.617,-20.25,-9.15,-30.15,18.88
11842,-28.66,-6.23,-47.47,-1050.781,-559.082,1971.191,-20.55,-10.05,-30.75,19.07
11852,1.94,-13.76,-47.79,813.965,-1061.523,-383.789,-20.25,-8.70,-30.15,19.07
11862,-33.40,-7.89,-43.79,-818.359,233.887,855.957,-19.35,-8.55,-30.75,18.92
11872,17.37,-10.92,-42.34,1415.039,-932.129,-891.113,-18.90,-10.95,-31.05,18.73
11884,14.30,-3.60,-43.05,617.676,-691.895,1026.855,-18.90,-10.95,-31.05,18.92
11894,-13.11,-1.48,-59.12,-1458.984,180.664,1496.094,-18.90,-8.85,-30.75,18.88
11904,15.60,-3.43,-39.06,425.781,-864.746,-423.340,-19.35,-8.85,-31.80,18.73
11914,-0.85,8.14,-39.74,-1171.875,395.996,1354.004,-18.90,-7.35,-31.50,18.92
11924,6.82,3.15,-37.05,-92.773,-538.574,1657.227,-17.85,-8.55,-30.30,19.07
11934,-2.24,8.97,-42.62,273.437,-555.176,351.562,-17.85,-8.55,-30.30,18.88
11944,-23.44,9.37,-34.79,-1161.621,-159.180,1999.939,-18.60,-5.70,-32.25,18.88
11956,-12.30,7.48,-45.37,-452.148,12.207,1452.637,-18.00,-9.15,-30.90,18.73
11966,6.89,-5.93,-36.52,1011.230,-478.516,287.598,-18.00,-9.15,-30.90,18.92
11976,-2.63,0.17,-37.69,-155.273,286.133,1413.574,-17.10,-6.45,-30.30,18.92
11986,16.59,-15.59,-44.44,1069.824,-1288.086,636.719,-17.85,-8.55,-30.30,18.73
11996,-0.08,-0.73,-31.69,84.473,-141.113,-421.875,-19.20,-7.95,-29.40,19.21
12006,14.34,-14.69,-34.12,1173.828,-1238.770,-280.762,-18.45,-6.30,-28.20,19.02
12018,-5.09,-11.56,-35.05,795.410,-945.312,1143.555,-18.45,-6.30,-28.20,18.83
12028,-5.28,5.79,-49.94,-749.023,194.336,461.426,-18.45,-8.70,-29.40,18.88
12038,9.86,-4.07,-34.65,538.086,-1779.785,400.879,-18.00,-6.75,-28.95,18.83
12048,-22.35,7.70,-37.86,129.883,-162.109,487.793,-18.15,-9.75,-29.10,18.92
12058,-8.64,-3.85,-31.47,-97.656,-866.699,1458.984,-18.60,-6.90,-29.55,19.02
12068,0.67,5.92,-46.27,587.891,-432.129,712.402,-18.60,-6.90,-29.55,18.54
12078,-4.92,1.03,-28.53,-791.992,-881.836,1999.939,-17.55,-9.15,-30.90,18.88
12090,-6.98,-0.60,-38.14,-1385.254,307.617,1999.939,-18.15,-7.35,-31.05,19.07
12100,23.06,-3.58,-37.60,563.477,-741.211,196.289,-17.40,-6.45,-31.05,18.83
12110,-22.03,2.10,-43.89,-1221.191,450.684,1118.164,-18.15,-6.15,-30.75,19.07
12120,19.13,-8.54,-40.31,750.488,-1196.777,192.383,-18.15,-6.15,-30.75,19.02
12130,-20.96,0.84,-45.62,-709.961,506.348,885.742,-17.10,-6.45,-31.05,19.02
12140,12.15,-6.95,-32.89,1043.945,-1045.898,240.234,-16.65,-6.15,-31.50,18.83
12152,11.44,-1.98,-47.79,937.988,-619.141,374.023,-16.50,-5.10,-31.20,18.83
12162,12.93,9.37,-36.12,93.262,-114.258,919.922,-16.65,-7.65,-30.30,18.92
12172,3.63,-6.73,-36.31,106.445,-702.637,1677.734,-18.00,-3.90,-31.20,19.02
12182,10.31,5.22,-39.52,607.910,-589.844,1257.324,-16.80,-5.10,-29.70,19.12
12192,-30.02,-10.11,-43.66,-842.773,-1362.793,1999.939,-16.80,-5.10,-29.70,18.88
12202,-3.19,-5.53,-44.02,657.227,-480.469,250.488,-17.25,-4.35,-28.95,19.02
12212,-9.70,-3.70,-49.43,49.805,-1175.781,1999.939,-15.90,-4.05,-28.35,18.92
12224,6.90,-14.23,-28.63,1395.508,-273.926,1009.766,-15.75,-4.35,-28.65,19.02
12234,-16.09,1.59,-49.84,-824.219,71.289,587.891,-15.45,-4.50,-28.05,18.88
12249,20.93,-8.79,-36.49,1184.570,-560.059,800.781,-15.45,-4.50,-28.05,18.83
12258,-22.24,1.65,-31.14,-1766.113,843.262,852.539,-17.25,-5.85,-29.70,19.12
12268,23.16,0.60,-32.90,736.328,-832.520,-768.555,-17.55,-5.85,-29.70,19.02
12278,-28.33,-1.64,-44.95,-1579.590,926.758,105.469,-17.55,-5.85,-29.70,19.07
12290,-31.87,2.27,-24.59,-1399.414,614.258,569.824,-16.65,-4.50,-28.05,18.83
12300,17.98,8.78,-21.73,923.340,-717.285,-803.711,-16.80,-4.35,-30.45,18.88
12310,-20.07,1.40,-27.68,-1080.078,204.102,1999.939,-15.90,-3.30,-29.10,19.07
12320,14.24,0.28,-39.43,1065.430,-621.094,-522.461,-15.90,-5.25,-30.30,18.73
12330,-8.18,0.34,-37.73,-560.547,163.086,1905.273,-15.90,-5.25,-30.30,18.83
12340,15.90,-4.35,-36.42,839.844,-604.492,151.367,-15.45,-4.50,-32.55,19.07
12352,21.56,-7.27,-34.40,1061.035,-1016.113,-152.344,-14.10,-3.45,-31.20,18.83
12362,-22.63,-11.18,-38.56,-1075.195,-1347.656,1999.939,-16.20,-3.30,-32.25,18.88
12372,1.82,-13.37,-41.40,1170.898,-683.594,61.035,-16.20,-3.30,-32.25,19.02
12382,-41.36,-4.73,-25.95,-1411.133,26.367,1755.859,-13.35,-3.45,-30.45,18.92
12392,5.58,-4.92,-38.36,1465.820,-404.785,-210.937,-13.05,-1.95,-29.70,18.83
12402,-30.54,-9.11,-31.65,-1059.570,-45.898,897.949,-13.05,-1.95,-29.70,18.59
12412,26.79,0.50,-41.52,436.523,-666.992,-466.797,-14.55,-4.35,-29.70,19.02
12424,19.66,8.05,-29.99,114.746,122.559,1999.939,-13.95,-2.85,-29.55,18.68
12434,-5.84,2.39,-41.71,-649.902,-916.992,1999.939,-13.05,-3.15,-30.15,19.07
12444,15.16,8.63,-47.28,-58.594,-296.387,1999.939,-14.10,-3.45,-30.15,19.02
12454,-11.08,4.21,-34.93,118.164,-843.750,1999.939,-14.10,-3.45,-30.15,19.07
12464,2.98,4.37,-40.89,-109.375,-338.867,1999.939,-13.80,-3.15,-29.40,18.92
12474,1.66,-1.43,-33.98,969.238,-773.926,1479.004,-12.45,-3.75,-31.05,19.02
12486,14.76,-8.81,-33.77,881.348,-1000.488,1284.180,-13.50,-1.65,-30.30,19.02
12496,-3.29,8.66,-34.47,-978.516,222.168,1049.316,-13.50,-2.85,-30.30,19.07
12506,23.95,-3.82,-44.57,567.871,-1329.590,-72.266,-13.50,-2.85,-30.30,18.73
12516,-1.47,-0.35,-46.85,-793.945,-370.605,1999.939,-13.35,-2.70,-31.20,19.07
12526,7.78,-1.69,-41.11,850.098,-1307.129,465.820,-13.20,-2.85,-31.05,19.12
12536,-42.40,3.15,-45.30,-607.910,157.715,164.062,-13.35,-3.90,-32.40,18.88
12546,-4.66,-2.16,-38.53,1194.824,-1113.281,-948.730,-12.75,-1.65,-31.50,19.07
12558,11.06,-10.47,-41.77,349.121,-328.613,495.117,-12.75,-1.65,-31.50,18.83
12568,-14.81,-3.43,-38.53,78.613,-500.977,1999.939,-12.75,-3.75,-30.30,19.02
12578,15.37,4.71,-37.51,74.219,-448.242,66.406,-13.05,-2.25,-31.65,19.21
12588,-6.07,8.36,-29.47,116.211,-472.656,1482.422,-13.05,-2.25,-31.65,18.73
12598,11.53,1.82,-42.66,-842.773,827.637,1999.939,-13.50,-3.30,-30.30,19.02
12608,18.21,7.37,-42.60,292.969,-956.055,1293.945,-13.05,-1.95,-31.20,19.12
12618,-13.88,-5.89,-35.92,-425.293,-742.187,1999.939,-11.85,-1.50,-30.45,18.92
12630,-14.75,1.18,-33.73,-155.762,-1147.461,1006.836,-11.25,-2.10,-30.30,19.07
12640,6.36,-2.69,-55.51,-412.598,-528.320,328.613,-11.25,-2.10,-30.30,18.83
12650,-15.34,1.48,-46.48,304.199,-871.094,1587.891,-11.70,0.15,-30.75,18.92
12660,-7.65,2.13,-41.15,-716.797,74.219,1660.645,-10.50,-3.75,-31.50,19.07
12670,8.32,-0.23,-34.21,303.711,-1303.711,1738.770,-11.10,-1.95,-29.70,18.73
12680,-6.43,5.16,-47.37,-1051.758,262.695,1772.461,-9.90,-1.05,-31.95,18.88
12692,-6.57,5.39,-51.12,-590.332,-129.395,1142.578,-10.05,-0.45,-32.25,18.83
12702,23.40,2.60,-52.67,298.828,-1044.922,467.773,-9.90,0.00,-31.95,19.07
12712,-10.75,5.74,-48.30,-662.598,-137.695,914.551,-9.90,0.00,-31.95,18.88
12722,13.81,2.23,-46.71,896.973,-1554.688,106.934,-9.00,0.15,-33.30,19.02
12732,-28.34,3.51,-46.34,-650.391,-578.125,1757.813,-9.15,-0.75,-31.95,19.07
12742,-1.44,1.81,-41.84,281.250,-1090.332,98.145,-9.15,-0.75,-31.95,19.12
12752,-26.24,1.21,-53.22,-434.570,-194.336,1741.699,-9.15,0.00,-32.70,18.83
12769,-11.47,-0.08,-60.50,-217.773,-610.352,1507.813,-9.15,0.00,-32.70,18.92
12778,10.64,-3.19,-36.80,54.199,-65.918,1230.957,-10.35,0.75,-31.95,19.07
12788,10.10,-5.49,-38.40,292.969,-1578.125,1651.367,-8.70,-1.05,-32.70,19.07
12798,-2.69,-6.08,-54.18,-433.105,101.563,1100.586,-6.60,-1.35,-31.50,18.83
12808,13.47,-1.92,-53.19,348.145,-1168.945,944.824,-7.95,0.30,-31.95,18.92
12818,7.78,-0.44,-45.63,-363.770,-646.973,922.363,-7.95,0.30,-31.95,18.83
12828,14.44,-4.76,-52.13,191.895,-1294.434,1008.789,-9.00,0.45,-32.25,19.07
12840,11.16,4.47,-52.68,-218.262,-1115.234,631.348,-7.65,0.00,-33.15,18.83
12850,2.44,5.50,-44.66,-448.242,-657.227,1788.574,-7.80,-0.45,-34.05,18.92
12860,6.66,5.64,-52.31,-150.879,-701.172,1121.094,-7.65,0.75,-33.15,19.02
12870,-2.18,6.92,-45.01,-397.461,-538.086,853.027,-7.65,0.75,-33.15,18.88
12880,5.35,8.89,-52.73,-328.125,-496.094,1004.395,-5.70,1.05,-33.15,19.07
12890,12.58,1.49,-47.09,390.625,-964.844,1222.656,-6.30,0.90,-33.30,18.83
12899,-2.39,1.98,-53.73,-515.137,-462.891,1180.664,-6.30,0.90,-33.30,19.12
12911,1.40,-3.27,-55.26,-170.898,-722.168,1091.797,-5.55,-0.15,-33.75,18.73
12921,1.47,-12.13,-49.95,2.441,-582.520,1237.305,-5.70,1.50,-32.70,18.88
12931,0.46,-4.46,-45.85,60.547,-410.156,1149.902,-6.30,1.65,-31.50,19.02
12941,2.56,-11.14,-55.31,-211.914,-770.996,1353.516,-5.85,0.45,-33.00,19.02
12951,3.08,-5.11,-54.27,-175.781,-453.125,554.687,-5.85,0.45,-33.00,19.07
12961,0.29,-2.66,-53.38,-301.758,-821.289,1061.523,-5.55,2.10,-33.00,18.92
12971,11.81,3.86,-57.39,-419.434,-941.895,1021.484,-8.25,1.65,-33.00,18.83
12983,0.34,2.45,-48.08,-347.656,-515.137,1360.352,-4.80,1.35,-34.05,19.02
12993,-1.61,8.54,-38.43,-441.406,-364.746,1207.520,-4.80,1.35,-34.05,18.73
13003,1.66,8.81,-53.57,106.445,-892.090,1461.914,-3.75,1.95,-33.45,19.02
13013,-2.29,9.94,-53.63,-249.512,-43.945,1241.211,-3.75,1.50,-34.65,18.88
13023,10.40,7.54,-53.03,103.516,-573.730,495.605,-2.85,1.65,-34.65,19.02
13033,8.70,5.63,-55.15,-72.754,-750.000,705.566,-3.60,1.35,-33.75,18.83
13043,-3.26,-3.79,-44.53,-101.563,-821.777,797.852,-3.15,1.65,-34.50,18.92
13055,-4.95,-7.76,-44.08,-160.156,-863.281,1442.871,-2.40,1.35,-33.30,19.12
13065,-8.21,-10.61,-52.47,-56.641,-763.672,1267.578,-2.55,3.15,-33.45,18.92
13075,-12.31,-8.91,-54.97,-218.750,-394.531,1165.527,-2.55,3.15,-33.45,18.88
13085,-12.82,-19.89,-55.79,-564.453,-395.996,1585.938,-3.00,1.95,-34.20,19.07
13095,8.32,-13.64,-40.84,24.902,-665.039,1224.609,-2.25,2.70,-35.70,18.92
13105,-0.07,-7.21,-53.61,-267.578,-696.777,1302.734,-2.25,1.50,-34.95,19.02
13117,6.70,-3.56,-48.76,-262.207,-479.492,1378.906,0.15,3.30,-34.80,18.88
13127,14.82,0.73,-44.56,-79.102,-668.457,680.176,0.15,3.30,-34.80,19.07
13137,4.68,4.02,-50.00,-348.633,-416.992,853.027,0.00,2.25,-33.45,18.92
13146,5.53,2.49,-47.60,-219.238,-939.941,1282.715,-0.15,0.45,-33.75,18.73
13156,1.74,6.42,-45.11,-59.570,-643.555,1014.648,0.45,0.45,-34.50,18.92
13166,-5.69,-2.82,-45.16,-225.586,-845.703,1270.996,0.00,1.50,-32.40,18.88
13176,0.13,-3.56,-47.33,-105.957,-520.020,717.285,0.00,1.50,-32.40,18.92
13188,6.55,1.81,-42.79,-61.523,-452.148,459.961,0.15,0.45,-33.30,19.02
13198,4.31,5.02,-48.91,-294.922,-566.895,700.684,-0.30,1.05,-33.45,18.83
13208,12.49,-1.66,-44.40,-229.492,-735.352,1595.215,-0.30,1.05,-33.45,19.07
13218,10.91,4.01,-49.15,-287.109,-656.250,867.676,1.05,1.95,-32.40,19.07
13228,-7.37,2.11,-43.21,-297.852,-376.465,1510.254,0.45,1.35,-31.50,18.73
13238,-8.02,-0.38,-52.79,-85.449,-632.812,391.602,0.45,0.45,-32.55,19.07
13248,-25.82,1.80,-47.67,-229.492,-368.164,1200.684,0.75,1.95,-32.40,19.02
13260,-18.57,4.06,-50.21,16.113,-648.437,1319.336,0.75,1.95,-32.40,19.07
13270,-10.98,2.32,-44.46,-321.777,-504.395,1999.939,0.90,-0.15,-33.75,19.07
13285,-1.19,2.35,-46.36,-256.836,-493.164,1233.398,1.65,0.90,-32.55,18.83
13294,0.72,4.16,-49.92,-50.293,-873.047,1627.930,1.50,1.50,-32.40,18.83
13304,4.75,4.76,-51.40,-90.820,-1002.441,371.094,1.50,1.50,-32.40,19.02
13313,-6.12,1.12,-54.42,113.281,-438.477,970.703,1.50,1.50,-32.40,19.07
13325,-25.94,-7.46,-59.34,198.730,-500.977,1163.574,2.40,2.10,-33.30,19.02
13335,-16.66,-9.14,-44.76,173.340,318.359,1792.969,2.40,2.10,-33.30,18.92
13345,5.46,-9.95,-46.47,-226.562,-156.738,1330.078,2.85,2.10,-32.25,19.07
13355,23.25,-18.91,-45.73,-173.340,-429.199,1769.043,2.40,0.90,-32.55,19.07
13365,21.75,-11.04,-48.18,-301.758,-953.125,1491.211,2.25,0.30,-33.90,18.68
13375,9.99,-13.00,-46.19,177.734,-855.957,1342.773,1.80,2.25,-33.45,19.07
13384,3.05,-12.15,-54.79,103.027,-275.879,774.902,1.80,2.25,-33.45,18.92
13396,-5.53,-16.20,-47.31,33.203,-922.363,371.582,4.35,1.65,-33.30,19.02
13406,-17.95,-19.95,-40.49,517.090,-659.668,389.160,3.00,1.50,-33.15,19.02
13416,3.95,-40.19,-47.96,590.820,-635.254,1326.172,2.55,0.30,-31.95,19.02
13426,4.16,-32.06,-49.98,-132.812,-967.285,1418.457,3.15,-0.15,-33.00,18.88
13436,-1.19,-28.93,-42.82,-2.441,-984.863,640.137,3.15,-0.15,-33.00,18.68
13446,-2.89,-32.57,-44.17,-194.336,-1148.926,1999.939,3.45,-0.75,-31.95,18.88
13456,16.82,-23.56,-46.09,629.395,-1295.410,19.043,3.00,0.75,-34.65,18.88
13468,3.00,-20.21,-44.74,289.551,-280.762,442.871,2.85,0.90,-33.00,18.92
13478,-16.11,-21.38,-46.89,-430.664,-652.344,1048.828,3.45,1.05,-32.40,18.92
13488,-9.05,-18.70,-34.66,664.062,-1191.895,741.211,3.45,1.05,-32.40,19.02
13498,-31.54,-12.62,-40.17,-33.691,-25.391,1999.939,2.25,1.05,-31.95,18.92
13508,-11.62,-15.50,-57.36,-937.500,-155.273,1898.926,2.55,0.30,-33.45,19.02
13518,9.44,4.24,-40.15,-155.273,-359.375,1152.832,2.55,0.30,-33.45,18.68
13530,-14.66,21.46,-39.18,-770.508,-546.387,1498.535,3.00,0.75,-33.45,18.83
13540,10.05,26.24,-40.82,-438.477,-231.445,-99.121,3.60,-0.45,-34.05,18.83
13550,-29.39,22.88,-27.08,363.281,1190.918,329.590,2.85,0.90,-34.05,19.02
13559,0.83,15.31,-47.85,-80.566,-553.711,1996.094,3.15,0.15,-33.30,19.07
13569,6.15,14.95,-51.06,-51.758,-1000.977,339.844,3.15,0.15,-33.30,18.88
13579,19.16,43.63,-42.88,97.656,-610.352,924.316,4.20,3.15,-29.70,18.73
13588,18.95,40.03,-48.33,83.008,-98.145,1638.184,5.10,2.55,-32.55,18.92
13600,9.39,16.62,-55.00,544.434,-1061.035,593.750,4.80,1.35,-33.75,19.07
13609,3.49,6.21,-41.05,259.766,-1332.520,628.906,5.85,0.90,-33.75,19.12
13619,-6.88,-0.34,-60.63,-107.910,-943.359,1216.797,5.85,0.90,-33.75,18.83
13629,-3.55,-6.42,-59.33,378.418,-668.457,663.086,6.15,1.50,-33.45,19.02
13639,-3.05,-10.78,-40.66,7.812,-505.371,927.734,6.15,-1.50,-33.90,18.83
13649,-4.72,-17.64,-58.07,-273.926,-47.852,1999.939,6.15,-1.50,-33.90,18.88
13659,8.05,-10.83,-46.21,25.879,-708.496,444.336,6.15,1.50,-33.45,18.92
13670,5.98,-8.80,-55.71,-279.297,-633.301,1371.094,6.90,0.00,-33.45,18.83
13680,12.07,-8.58,-46.79,-84.473,-522.461,634.766,6.30,0.15,-34.80,18.88
13690,2.08,0.81,-46.62,-454.102,-314.453,576.660,5.70,0.00,-32.70,18.73
13700,3.05,-2.76,-38.69,-5.371,-1035.645,1097.656,5.70,0.00,-32.70,18.92
13710,-4.27,6.55,-46.82,-252.930,-325.195,1062.988,7.35,0.90,-33.75,18.68
13720,-8.40,3.79,-37.50,52.734,-831.055,1254.395,6.90,0.00,-33.15,19.02
13729,-18.08,11.26,-37.56,-312.012,83.984,1436.523,8.55,0.45,-34.80,18.88
13740,-10.78,7.71,-34.54,30.273,-312.988,1000.488,8.25,-0.15,-34.05,19.07
13750,-0.82,6.64,-34.53,-294.922,-382.812,1046.387,8.25,-0.15,-34.05,18.83
13760,-0.11,6.68,-41.13,-362.305,-429.199,937.500,8.40,0.30,-34.95,18.83
13770,3.50,0.67,-41.05,134.766,-159.668,1109.863,8.55,0.45,-34.80,18.73
13779,15.02,-0.56,-28.47,199.707,-679.687,1081.055,9.00,0.15,-36.00,19.07
13793,-2.08,1.01,-36.08,115.234,-348.145,1095.703,7.95,0.75,-35.70,19.02
13803,-2.03,-1.07,-46.68,-678.711,-477.051,957.520,7.95,0.75,-35.70,18.83
13815,-11.50,-3.18,-51.07,-229.492,-455.078,1999.939,9.90,0.00,-34.95,18.92
13825,-1.02,-3.15,-46.68,-58.594,-593.750,1137.207,9.90,0.00,-34.95,18.73
13835,-6.45,-2.27,-41.01,-25.391,-473.633,451.660,9.90,0.00,-34.65,19.12
13845,-3.25,3.31,-40.63,-203.613,-474.609,764.648,9.30,-1.35,-33.30,19.07
13855,8.32,-4.86,-43.16,-416.016,-603.516,1703.125,9.75,-1.35,-33.30,19.07
13865,3.34,2.89,-43.16,-259.277,-440.430,1315.918,9.90,0.00,-34.65,19.02
13874,4.36,5.11,-38.71,14.648,-611.328,759.766,9.90,0.00,-34.65,18.83
13886,-5.51,6.95,-41.85,-312.500,-461.426,1041.504,11.25,1.35,-35.25,19.07
13896,-5.03,3.61,-51.26,103.516,-464.844,449.707,10.95,-0.45,-34.80,18.83
13906,0.00,2.50,-41.05,147.949,-433.594,836.914,9.60,-1.05,-35.40,18.92
13915,-4.10,3.57,-39.26,-259.766,-300.781,1137.207,11.10,0.00,-34.95,19.12
13925,-0.83,-1.95,-42.12,-431.641,-334.961,1856.445,11.10,0.00,-34.95,18.92
13935,-2.91,3.17,-40.09,92.285,-665.039,880.371,11.10,0.00,-34.95,18.83
13944,-1.69,-5.02,-46.72,108.887,-293.945,1005.371,11.10,-1.50,-35.40,18.88
13956,0.97,-8.31,-43.23,6.348,-727.051,1040.039,13.05,-0.30,-35.40,18.83
13966,-5.20,-9.80,-52.76,195.801,-740.234,483.398,11.40,0.00,-34.95,19.12
13976,-3.40,-8.09,-44.64,-490.234,-124.512,845.703,12.30,-2.25,-34.65,18.88
13986,6.31,-8.50,-43.11,116.699,-117.188,1245.117,12.00,-2.10,-34.80,19.02
13996,9.92,2.50,-46.34,195.312,-448.242,132.324,13.20,-1.35,-34.80,18.83
14006,-1.27,-7.11,-38.84,-139.160,-197.754,692.383,13.20,-1.35,-34.80,18.83
14016,5.75,-4.87,-40.82,64.941,-597.656,791.016,13.80,-0.30,-35.40,18.83
14028,-1.92,-6.78,-39.41,-511.719,-331.543,1098.633,12.30,-2.25,-34.65,18.92
14038,2.76,-6.11,-35.70,-353.516,-301.758,684.082,12.75,-2.85,-34.05,18.83
14048,1.74,0.70,-31.35,-75.195,-291.992,1738.770,12.75,-0.45,-34.50,19.07
14058,3.86,4.76,-45.86,351.074,-748.047,990.723,12.75,-0.45,-34.50,19.02
14067,-4.27,0.50,-37.55,-329.590,-777.344,1999.939,12.75,-1.65,-34.50,18.92
14077,-3.74,-3.34,-44.53,67.871,-548.340,951.660,13.80,-0.75,-34.20,19.07
14089,-6.68,-1.18,-39.69,-449.219,-407.227,1184.570,14.10,-1.95,-34.20,19.07
14099,2.69,-0.79,-47.95,187.012,-285.156,715.332,14.40,-0.90,-34.50,18.88
14109,-2.66,-2.07,-41.98,38.574,-169.922,944.824,14.40,-0.90,-34.50,18.73
14119,-2.47,1.10,-43.62,-81.055,-395.996,1750.977,14.40,-2.55,-35.25,19.07
14129,7.69,-0.67,-49.23,-64.941,-562.012,625.977,14.55,-2.25,-33.90,18.88
14139,2.95,1.76,-42.48,-73.730,-470.703,459.961,14.55,-2.25,-33.90,18.88
14149,0.31,5.42,-40.57,-342.773,-349.121,1015.625,15.15,-2.55,-34.50,19.07
14161,2.31,11.18,-49.53,-97.168,-507.812,849.121,14.55,-1.95,-34.20,18.92
14171,-4.39,8.57,-41.98,-249.023,-317.871,1308.594,16.50,-1.95,-34.95,19.12
14181,4.20,3.55,-38.23,147.949,-849.121,1216.309,17.10,-0.90,-34.80,18.88
14190,-2.44,6.68,-41.11,-104.492,-698.730,253.906,17.10,-0.90,-34.80,19.02
14200,1.37,3.19,-40.87,-307.129,48.340,1527.344,15.45,-3.75,-36.00,18.92
14210,18.58,8.09,-39.45,-602.539,-210.937,1799.316,16.80,-1.95,-35.70,18.83
14220,10.92,2.44,-44.62,-39.551,-696.289,437.012,17.10,-3.30,-34.80,19.12
14231,-12.46,2.74,-39.05,405.273,-877.930,637.695,16.80,-2.70,-36.15,19.12
14241,-8.04,1.37,-44.90,-663.086,-379.395,1592.285,16.80,-2.70,-36.15,18.92
14251,0.35,-5.66,-49.31,537.598,-492.187,-33.691,15.75,-3.45,-35.40,18.59
14261,-2.05,1.02,-49.12,-33.203,72.266,627.930,16.50,-4.35,-34.20,19.21
14271,1.63,-11.02,-46.44,121.582,-138.672,417.969,16.80,-3.45,-35.70,19.07
14281,2.87,-0.82,-44.66,90.820,-465.820,589.844,16.05,-3.15,-36.15,19.07
14291,3.66,-6.51,-36.69,307.129,-1012.207,1280.762,17.25,-3.45,-34.65,19.07
14308,-2.33,-0.21,-42.23,34.180,-274.902,1021.484,17.25,-2.70,-36.15,18.68
14317,-4.24,6.13,-47.84,-36.133,-103.516,587.891,17.25,-2.70,-36.15,18.54
14327,-3.25,3.60,-49.40,-100.098,-818.848,390.137,17.85,-5.25,-34.80,19.07
14337,-3.42,-1.92,-44.24,96.191,-1171.387,147.949,17.25,-3.90,-35.40,19.02
14347,-4.81,3.63,-45.48,-385.254,-236.816,1139.160,16.20,-4.95,-36.00,18.92
14357,8.28,6.32,-51.40,-444.336,-157.715,1507.813,18.00,-4.65,-36.15,18.88
14367,16.11,7.08,-42.40,327.637,-543.457,922.363,18.00,-4.65,-36.15,18.88
14379,-0.27,8.61,-52.40,-480.469,-99.609,1121.094,17.40,-5.70,-36.00,18.68
14389,7.66,1.50,-49.30,-15.625,-398.437,562.500,18.00,-4.65,-35.70,19.07
14399,3.92,8.66,-46.37,-42.480,-645.020,1631.348,18.15,-6.15,-34.80,18.54
14409,1.89,4.27,-46.43,-351.074,-883.301,1270.508,18.75,-5.55,-36.60,19.07
14419,8.05,5.35,-37.74,-20.508,-626.953,327.148,18.75,-5.55,-36.60,19.07
14429,6.79,2.43,-46.75,168.457,-587.402,1532.715,18.15,-6.90,-36.00,18.92
14438,-3.21,-3.83,-49.18,270.508,-1101.074,1508.789,18.60,-5.25,-36.30,19.26
14450,-5.27,-5.98,-50.11,520.996,-506.348,673.340,18.60,-5.25,-36.30,18.88
14460,-2.96,-8.78,-42.77,-737.793,-578.613,1491.699,19.50,-5.55,-36.60,19.02
14470,8.53,-12.24,-45.87,-44.922,-549.805,1445.313,19.35,-4.05,-36.00,18.83
14480,-1.28,-3.18,-49.41,374.023,-340.820,650.391,18.60,-7.65,-36.00,19.02
14490,6.54,-4.06,-42.88,89.355,-1038.574,1332.520,18.90,-6.45,-35.25,19.21
14500,-8.23,-8.41,-54.50,-283.203,-595.703,1527.832,18.90,-6.45,-35.25,19.07
14510,3.32,-3.84,-45.32,131.348,-432.129,230.469,20.10,-7.65,-36.00,19.02
14522,9.26,-9.73,-49.77,149.414,-853.516,979.004,19.50,-6.75,-36.90,19.02
14532,-0.97,-1.01,-41.92,158.691,-439.941,853.027,20.85,-10.50,-36.00,19.07
14542,-0.17,-5.35,-44.24,-133.789,-111.816,1306.152,21.00,-7.95,-36.15,18.88
14552,3.51,-8.45,-41.82,27.832,-531.250,773.437,21.00,-7.95,-36.15,18.73
14562,11.89,-2.98,-46.92,259.277,-441.895,149.414,19.95,-7.05,-35.70,19.07
14572,-13.72,-4.95,-44.88,-376.465,-100.098,800.781,20.55,-7.65,-37.05,19.12
14584,6.33,1.54,-46.95,241.699,-259.766,366.211,21.60,-7.65,-35.25,19.07
14594,7.28,-3.28,-43.14,-98.633,-666.992,1010.254,20.25,-7.95,-36.90,19.07
14604,16.18,0.50,-44.60,185.547,-657.227,-89.355,20.25,-7.95,-36.90,19.21
14614,7.65,2.48,-40.00,5.859,-581.055,451.660,20.85,-8.85,-36.00,19.02
14624,11.56,0.31,-37.18,-516.113,-1050.781,1932.617,19.50,-8.70,-36.90,18.83
14634,11.29,1.13,-38.09,116.211,-703.613,1182.129,19.50,-8.70,-36.90,18.73
14644,-11.76,8.99,-45.10,212.402,-581.543,672.852,20.55,-8.85,-36.30,19.02
14656,-17.00,10.10,-42.79,23.437,-653.809,583.496,21.00,-7.50,-37.35,18.92
14666,-13.08,14.03,-46.17,-331.055,-530.762,1559.570,21.00,-9.15,-37.35,19.02
14676,-7.06,4.15,-44.80,-528.809,-181.152,1655.762,21.45,-9.45,-36.90,18.92
14686,3.63,4.54,-44.73,268.066,-397.461,1139.648,21.45,-9.45,-36.90,19.02
14696,1.89,2.03,-43.70,294.434,-840.820,1667.969,20.70,-10.35,-36.60,19.12
14706,-11.12,9.66,-41.48,-435.059,-488.770,1673.340,20.70,-9.15,-38.10,18.73
14716,6.39,1.69,-44.23,397.461,-830.566,204.590,22.20,-8.70,-37.65,18.73
14728,-3.87,-4.33,-46.64,-292.969,-551.758,1999.939,21.30,-10.05,-36.75,18.68
14738,-5.08,-2.40,-53.08,50.781,-468.262,589.844,22.05,-9.30,-37.05,18.88
14748,-13.05,-3.11,-51.85,-692.871,-30.762,1498.047,22.20,-11.55,-37.35,19.07
14758,2.40,0.14,-42.51,-139.648,-972.656,547.852,22.20,-11.55,-37.35,19.07
14768,6.21,3.12,-47.11,90.332,-911.621,-139.648,21.90,-11.85,-35.40,18.83
14778,-11.36,3.44,-46.73,-644.043,-56.152,1450.195,22.35,-10.95,-37.80,18.92
14788,11.36,-3.45,-46.45,-267.578,-662.598,1070.801,23.25,-11.70,-37.05,18.88
14802,6.71,-1.91,-40.66,148.437,-999.023,-66.406,21.00,-12.75,-38.10,19.07
14811,-7.49,6.54,-48.73,-34.180,65.430,313.965,21.00,-12.75,-38.10,19.07
14832,5.58,13.89,-42.52,394.043,-303.223,508.789,22.95,-12.30,-38.85,18.73
14842,-12.32,9.85,-54.66,-375.977,-809.082,1831.543,22.65,-10.65,-37.35,18.73
14852,-2.29,3.47,-42.90,270.508,-1089.355,329.590,23.25,-13.20,-37.80,19.02
14862,-5.24,3.15,-44.55,458.984,-1079.102,266.113,23.25,-13.20,-37.80,19.07
14873,-12.89,-4.87,-46.54,-5.371,-1008.789,935.059,23.40,-11.55,-37.65,18.88
14883,-19.03,-8.50,-72.85,651.367,-506.836,156.250,22.95,-15.00,-39.15,19.07
14893,-20.89,-6.21,-60.17,-1013.184,154.785,1653.809,23.25,-12.90,-38.55,18.92
14903,15.35,-9.65,-40.13,454.102,-447.754,16.113,24.00,-12.90,-37.80,18.83
14913,-3.11,-5.21,-57.52,-979.492,-125.977,1040.039,24.00,-12.90,-37.80,18.83
14923,31.03,-1.70,-58.32,651.367,-985.840,385.254,23.25,-14.40,-38.25,19.07
14935,23.31,-5.25,-53.04,36.133,-790.039,-94.238,24.75,-14.10,-37.80,19.07
14945,7.62,7.18,-52.64,-413.086,49.805,1035.645,24.75,-14.10,-37.80,19.07
14955,3.47,0.12,-35.85,-148.926,-1367.188,1054.199,23.40,-14.25,-39.15,19.07
14965,10.07,5.50,-45.92,257.812,-648.437,657.227,24.15,-15.45,-37.65,19.12
14975,-10.06,7.82,-41.47,-432.129,-465.332,1428.223,23.25,-14.85,-37.80,19.07
14985,5.98,1.49,-42.63,115.723,-1337.402,866.211,23.55,-15.30,-38.25,18.83
14994,-20.32,7.56,-40.34,-181.641,-808.105,1321.777,23.55,-15.30,-38.25,19.07
15006,-16.36,0.20,-42.00,-249.023,-215.820,1946.777,24.75,-15.30,-39.00,18.73
15016,-4.84,-4.38,-45.84,329.590,-213.379,582.031,24.75,-16.50,-37.50,19.02
15026,4.20,-0.92,-43.95,-148.437,-51.758,1204.590,22.20,-17.40,-38.10,19.07
15036,7.92,-5.05,-45.40,-81.543,-425.293,1236.816,24.15,-15.00,-38.85,19.07
15046,22.95,-0.46,-44.10,150.391,-686.035,544.922,24.15,-15.00,-38.85,18.83
15056,-7.63,2.27,-51.73,-806.152,-32.715,1430.664,24.00,-16.80,-37.80,18.88
15066,14.21,-3.94,-52.01,-615.723,-771.973,1022.949,25.35,-15.45,-38.85,18.88
15078,-5.29,-2.54,-33.02,-769.531,-1402.344,1999.939,24.15,-15.90,-38.10,18.83
15088,9.28,-5.12,-46.93,465.332,-905.762,510.254,24.15,-15.90,-38.10,18.88
15098,-20.62,1.52,-39.36,-524.902,-134.766,814.453,24.15,-15.90,-38.10,19.12
15108,-5.74,-3.60,-42.69,-159.668,-742.676,728.516,24.00,-16.80,-1.65,19.12
15118,2.50,0.17,-33.48,299.805,57.617,960.937,24.00,-16.80,-40.05,19.07
15128,-2.79,-0.47,-39.84,-192.383,-283.691,1829.590,24.00,-16.80,-40.05,19.02
15140,-2.50,7.21,-47.15,-432.129,-68.359,871.582,23.55,-16.80,-39.00,19.02
15150,2.37,-6.41,-44.88,-195.312,-1092.773,1999.939,25.05,-18.45,-38.25,18.92
15160,7.35,-6.07,-48.59,534.668,-355.957,940.918,24.75,-18.00,-39.00,18.73
15170,-11.31,-3.85,-52.47,-404.297,-239.258,1999.939,24.75,-18.00,-39.00,18.83
15180,5.58,-7.37,-30.00,223.145,-1057.617,365.723,25.35,-19.80,-37.65,19.07
15190,1.93,-0.02,-39.04,225.098,-315.430,410.156,24.00,-20.10,-38.25,19.07
15200,-17.65,0.27,-46.41,-636.230,-499.512,1999.939,24.00,-18.00,-39.30,19.07
15212,-24.23,-0.19,-76.77,-967.773,112.305,1999.939,24.60,-19.50,-39.15,19.12
15222,10.92,2.28,-40.53,-72.754,-976.562,311.523,24.60,-19.50,-39.15,19.12
15232,4.67,8.34,-35.19,97.656,-311.035,323.730,25.35,-19.50,-38.40,18.92
15242,3.91,10.63,-52.59,-735.840,-717.285,1999.939,25.35,-20.70,-37.35,19.07
15252,12.12,7.03,-49.94,115.723,-795.898,247.070,25.35,-19.50,-39.15,18.92
15262,3.69,18.55,-39.27,-69.824,-381.836,1682.129,25.65,-19.50,-37.65,19.07
15272,3.94,2.73,-32.85,271.973,-1236.816,980.957,25.65,-19.50,-37.65,19.07
15284,-22.19,2.15,-39.95,-431.641,-546.875,1999.939,24.75,-19.65,-39.00,19.02
15294,6.88,1.24,-48.40,678.711,-1019.531,551.758,24.00,-21.30,-38.25,18.88
15303,-13.61,1.73,-46.79,-246.582,425.293,1274.902,24.00,-21.30,-38.25,19.07
15313,9.98,-6.89,-44.56,726.562,-1322.266,522.949,25.05,-20.40,-38.55,18.83
15323,-1.79,1.40,-38.73,-841.309,18.066,630.371,24.90,-22.20,-36.90,19.07
15333,21.55,-12.47,-48.37,1029.785,-1365.723,-206.543,24.15,-22.20,-39.15,18.92
15350,7.88,5.25,-33.51,202.148,-546.875,900.879,24.60,-21.90,-39.90,19.07
15360,-38.79,0.58,-51.44,-1317.871,459.473,1743.652,24.30,-23.25,-38.55,19.02
15370,3.50,0.60,-53.71,644.043,-847.168,86.914,23.70,-22.65,-39.60,19.07
15379,9.21,2.53,-39.44,104.492,-540.039,1029.785,23.70,-22.65,-39.60,18.88
15389,-23.42,3.45,-37.39,-1013.184,-415.527,1999.939,23.55,-22.80,-39.00,18.83
15399,6.17,3.08,-46.82,432.617,-1092.285,-186.523,23.55,-22.80,-39.00,19.02
15409,-9.74,9.22,-47.37,-203.613,288.574,484.863,24.00,-22.80,-39.00,18.92
15421,5.04,7.36,-42.58,27.344,-578.613,1280.273,24.00,-24.45,-39.00,19.07
15431,-1.46,0.06,-46.37,752.930,-1137.207,1215.820,24.00,-24.45,-39.00,18.88
15441,-8.04,0.84,-53.89,-279.297,269.043,785.645,24.00,-24.00,-39.00,19.07
15451,15.78,-10.71,-58.38,830.078,-1188.965,-163.086,24.75,-23.25,-40.80,18.88
15461,-12.79,2.66,-54.64,-630.859,565.918,554.199,23.70,-23.85,-39.60,18.83
15471,7.66,-8.21,-45.85,768.555,-1492.676,890.137,22.80,-25.95,-38.55,18.73
15481,-25.56,2.27,-48.60,-1163.086,835.449,1437.500,22.80,-25.95,-38.55,18.83
15493,-30.32,-1.55,-45.06,-1291.504,581.055,646.484,24.60,-25.05,-39.15,19.02
15503,21.76,-9.84,-39.31,1182.617,-1131.348,-903.320,22.95,-26.25,-38.40,19.21
15513,-29.44,-2.16,-43.91,-925.293,964.355,540.527,22.65,-25.50,-39.60,19.21
15523,8.97,-10.27,-40.93,381.348,-1171.875,-853.027,23.25,-25.20,-39.75,19.07
15533,0.45,7.60,-52.56,32.227,-654.297,783.203,23.25,-25.20,-39.75,19.02
15543,-3.08,-0.39,-34.43,-668.945,-1379.395,1999.939,22.95,-26.25,-40.35,18.92
15555,-14.84,9.77,-34.80,-835.449,-615.234,1999.939,24.90,-24.60,-38.40,18.88
15565,24.29,-5.69,-44.66,1116.699,-1147.461,-105.469,23.55,-26.40,-38.55,18.92
15575,-0.47,1.43,-49.58,-708.984,370.117,328.125,22.65,-27.45,-40.35,18.54
15585,2.14,-0.69,-37.15,427.734,-1140.137,1431.641,22.65,-27.45,-40.35,19.02
15595,0.97,-1.18,-34.55,-163.086,41.992,1999.939,23.40,-27.00,-38.40,18.83
15605,-9.21,-3.68,-43.08,-143.555,-864.258,1999.939,23.55,-25.20,-40.05,18.92
15615,8.31,2.82,-40.66,-5.371,-642.090,983.398,23.55,-25.20,-40.05,18.92
15627,10.17,0.76,-43.89,846.191,-771.973,431.641,22.80,-28.35,-40.50,18.88
15637,-19.44,-6.47,-44.15,-858.398,416.992,1683.105,22.35,-25.65,-38.55,19.02
15647,15.63,-5.09,-41.98,364.258,-894.043,122.559,22.65,-27.75,-40.65,18.83
15657,-12.38,9.80,-47.24,-20.508,-2.930,788.086,22.65,-29.40,-39.60,18.73
15667,-4.66,-6.36,-37.76,-24.414,-936.523,1285.645,22.65,-29.40,-39.60,19.02
15677,10.67,5.98,-45.75,627.441,-791.992,739.258,22.95,-28.95,-39.15,19.21
15686,-5.18,9.48,-45.13,-170.898,-190.430,1017.090,22.80,-28.35,-39.75,19.07
15698,-1.45,1.89,-40.18,-132.324,-92.773,80.566,22.65,-26.55,-40.35,19.21
15708,-4.92,2.15,-38.31,-302.246,-945.801,1999.939,24.00,-29.25,-39.75,18.92
15718,15.84,-4.73,-49.27,390.137,-795.898,554.199,24.00,-29.25,-39.75,18.83
15728,0.32,-11.63,-51.74,-504.883,-1341.309,1999.939,22.35,-27.60,-40.50,19.07
15738,19.58,-5.22,-41.14,275.391,-529.785,637.695,22.35,-30.75,-40.05,19.12
15748,-12.71,-5.43,-46.10,-729.004,-966.309,1999.939,22.65,-28.65,-39.15,18.88
15760,-19.06,-0.65,-40.91,-1150.879,-200.195,1290.039,22.35,-30.00,-39.75,19.12
15770,8.31,-10.21,-46.56,776.367,-1059.570,-1506.348,22.20,-30.00,-39.75,19.07
15780,-19.85,-1.18,-53.24,-505.371,406.250,-153.320,22.95,-29.85,-38.85,19.21
15790,3.30,-5.89,-24.90,807.129,-1114.258,-205.078,22.95,-29.85,-38.85,19.07
15800,-1.02,2.68,-41.61,125.488,-313.477,815.430,20.70,-31.05,-38.85,18.88
15810,-2.95,-5.18,-50.91,-1110.352,-1342.773,1999.939,22.05,-29.25,-38.25,18.92
15820,16.53,-0.68,-48.63,-24.414,-834.961,981.934,22.05,-29.25,-38.25,19.02
15832,19.26,0.54,-29.40,506.348,-811.523,638.184,20.70,-31.05,-41.10,19.07
15842,-25.25,-4.86,-44.55,-888.184,-57.617,1494.141,20.70,-31.05,-41.10,19.07
15852,3.94,-10.78,-41.36,283.203,-1315.430,46.875,21.30,-30.45,-38.55,19.07
15867,-7.04,3.93,-44.95,-338.867,71.289,1435.547,19.95,-28.95,-40.65,18.83
15876,3.53,-6.50,-41.95,-229.004,-1249.512,1999.939,21.90,-30.15,-39.15,18.83
15886,9.73,3.71,-34.55,-251.953,-461.426,599.121,20.10,-30.75,-39.75,19.02
15896,8.27,-2.27,-47.58,182.129,-556.152,1999.939,20.10,-30.75,-39.75,19.26
15908,4.07,0.02,-30.15,-265.625,-838.867,1999.939,20.25,-31.35,-38.85,18.88
15918,26.95,0.98,-40.55,612.305,-859.375,711.914,20.85,-31.20,-39.75,19.12
15927,8.19,0.33,-43.12,332.031,-327.637,1176.758,20.85,-31.20,-39.75,19.02
15937,-5.12,-5.40,-43.56,-591.309,-710.937,1999.939,18.45,-33.45,-38.10,18.73
15947,10.56,1.78,-39.37,476.562,-83.984,1725.586,19.95,-32.55,-39.60,18.92
15957,-11.35,3.79,-33.53,-114.746,-1335.938,1999.939,18.75,-31.35,-39.15,19.12
15969,-30.46,0.34,-34.21,-1067.383,-310.059,1967.285,19.35,-33.60,-38.25,19.07
15979,13.60,-0.86,-37.30,1091.309,-871.582,389.648,19.35,-33.60,-38.25,19.07
15989,-21.46,4.92,-29.05,-1075.684,-312.988,1999.939,18.90,-32.85,-39.00,19.07
15999,23.36,2.92,-31.50,1043.457,-779.785,-463.867,19.95,-32.25,-38.85,19.07
16009,-20.43,-1.28,-32.46,-840.332,-411.621,1999.939,19.50,-33.45,-39.15,18.92
16019,21.28,-1.37,-38.73,671.875,-844.727,228.027,19.65,-31.65,-39.00,18.88
16029,-23.54,-2.91,-39.95,-883.301,-91.309,1765.625,19.65,-31.65,-39.00,18.73
16041,-25.16,-4.05,-39.92,-1273.438,457.520,1008.301,18.15,-32.40,-39.00,18.83
16051,12.15,-11.85,-39.05,812.988,-852.539,-184.570,19.35,-34.35,-38.55,18.68
16061,-11.14,3.01,-37.34,-883.301,509.766,592.773,18.90,-34.35,-40.05,19.12
16071,13.66,-9.53,-33.39,701.172,-1009.766,-241.699,18.90,-34.35,-40.05,19.02
16081,-8.83,2.15,-35.56,-1210.938,278.809,645.996,18.45,-35.40,-39.15,18.92
16091,9.50,-2.18,-40.72,1185.059,-746.582,88.867,17.85,-33.60,-40.05,19.12
16103,25.85,-5.49,-27.63,1110.840,-1338.867,-893.555,17.85,-33.60,-40.05,19.12
16113,7.70,4.88,-52.46,-582.031,114.746,473.633,18.15,-34.05,-38.25,19.12
16123,13.10,2.33,-15.39,937.500,-1629.395,490.723,17.55,-34.95,-39.15,18.83
16132,13.60,-4.51,-33.36,667.480,-627.441,586.426,18.90,-33.60,-39.75,19.07
16142,-9.00,-5.57,-52.01,-136.719,-822.754,1384.766,18.90,-34.35,-39.00,19.07
16152,-1.75,1.15,-26.84,-110.352,-251.953,519.043,18.90,-34.35,-39.00,19.12
16162,-4.75,-7.27,-38.89,251.465,-1061.523,1999.939,18.00,-32.55,-38.85,19.02
16174,15.06,-2.27,-29.21,403.809,-1555.664,775.879,18.00,-36.60,-37.35,19.02
16184,-0.54,3.15,-39.80,-1046.387,189.453,1280.762,17.85,-35.55,-39.00,19.07
16194,1.20,-5.56,-30.63,836.914,-1145.020,1293.945,17.40,-33.15,-38.55,18.83
16204,-6.90,10.18,-41.46,-353.027,-53.223,981.934,17.40,-33.15,-38.55,19.07
16214,11.54,-6.13,-34.21,690.430,-1156.738,-138.672,18.75,-35.85,-39.15,18.88
16224,-0.60,4.65,-45.33,-454.590,41.504,783.203,16.80,-33.75,-38.40,18.88
16234,9.19,-0.06,-18.53,1381.348,-1319.336,-156.738,17.40,-35.55,-37.80,19.02
16246,13.69,-6.61,-46.99,980.469,-1358.887,239.746,17.40,-36.45,-38.25,19.12
16256,-5.37,1.76,-40.86,-693.359,150.391,1381.348,17.10,-33.15,-38.55,18.88
16266,8.18,-3.16,-27.50,973.145,-1171.387,794.922,18.45,-34.65,-36.60,18.88
16276,-17.70,1.69,-39.21,-787.109,-36.133,22.461,15.75,-36.15,-39.60,19.12
16286,15.16,-2.98,-39.44,605.957,-826.660,-135.742,15.75,-36.15,-39.60,19.02
16296,-18.56,4.69,-39.24,-736.328,-458.984,1424.805,15.90,-34.80,-37.80,19.02
16308,-20.89,-2.82,-32.32,-404.297,-624.023,1657.227,16.05,-37.05,-36.90,19.02
16318,3.07,-2.57,-47.68,-67.871,-211.914,-37.598,15.45,-34.35,-38.55,19.12
16328,-6.89,3.85,-26.53,126.953,-674.316,1576.172,15.75,-35.85,-37.35,19.12
16338,5.97,9.65,-33.56,-227.051,-145.996,806.152,15.75,-35.85,-37.35,19.02
16348,2.43,-1.40,-39.81,343.262,-1323.242,1579.590,15.15,-34.35,-37.80,19.12
16358,5.99,6.34,-41.84,-374.023,-307.617,1353.027,16.65,-35.55,-37.80,18.92
16368,10.55,-2.73,-32.63,574.707,-1518.066,1999.939,14.10,-37.05,-37.35,19.02
16385,13.98,-8.47,-25.91,753.906,-1147.461,1212.891,15.30,-36.15,-38.40,19.21
16394,-18.73,-1.15,-38.40,-965.820,408.691,1825.195,14.70,-36.45,-37.50,18.92
16404,6.21,-9.96,-44.63,634.277,-1368.652,-78.613,14.70,-35.55,-39.00,19.07
16414,-14.05,5.23,-40.18,-799.805,495.605,925.293,14.70,-35.55,-39.00,19.07
16424,28.18,-2.39,-31.02,961.914,-762.695,-799.316,15.15,-37.65,-39.00,18.92
16436,25.66,-3.76,-46.21,488.770,-353.516,76.172,14.85,-34.65,-37.65,19.02
16446,-21.06,4.95,-44.65,-702.637,-96.680,413.086,13.80,-36.60,-37.35,19.07
16456,17.50,-1.71,-35.00,866.699,-1275.879,-804.687,13.50,-37.20,-37.50,18.92
16466,-36.10,0.06,-35.27,-855.469,-55.176,1195.313,13.50,-37.20,-37.50,18.88
16476,21.23,-1.11,-46.82,636.230,-671.387,-1028.809,13.50,-35.55,-37.80,19.12
16486,4.84,-1.94,-19.63,822.266,-1219.238,1673.340,14.10,-36.15,-37.35,18.88
16496,-10.62,8.97,-48.60,-527.832,-447.266,1556.641,14.85,-36.60,-36.90,19.07
16508,-13.17,-8.12,-39.65,-1164.063,-188.477,1999.939,13.80,-36.15,-37.35,19.21
16518,20.79,4.42,-23.94,681.152,-665.527,265.625,13.80,-36.15,-37.35,19.07
16528,-26.55,-1.27,-26.75,-1123.535,-188.477,1714.355,13.95,-36.00,-36.75,18.92
16538,23.11,5.52,-37.50,194.824,-691.895,242.676,13.35,-36.15,-37.65,18.68
16547,-4.34,4.21,-37.77,-710.937,162.109,1135.254,14.40,-36.00,-36.30,18.92
16557,16.66,0.45,-34.27,730.469,-1371.582,688.477,13.80,-36.60,-38.10,18.92
16566,6.43,2.08,-39.60,-120.605,-5.371,1449.707,13.80,-36.60,-38.10,18.73
16578,5.08,6.18,-38.63,-401.367,-124.023,1199.707,14.40,-36.45,-36.00,19.02
16588,-1.33,-1.16,-41.10,149.902,-941.895,1999.939,13.50,-37.95,-37.50,18.83
16598,2.53,2.03,-37.54,243.652,-628.418,793.945,13.50,-37.95,-37.50,18.83
16608,-4.33,-3.05,-35.73,-212.891,-583.008,1968.262,13.05,-37.05,-38.10,19.07
16618,6.60,3.87,-31.52,-144.531,-191.895,1405.762,13.35,-37.05,-38.40,19.07
16628,3.12,-7.98,-42.92,741.211,-1064.941,1905.273,12.30,-36.15,-38.40,18.88
16640,2.11,-10.11,-38.18,361.328,-804.199,1023.926,13.20,-36.00,-36.75,19.07
16650,-4.76,-4.82,-38.22,-993.164,287.109,1470.215,13.20,-36.00,-36.75,18.88
16660,-1.86,-7.56,-45.73,661.133,-974.121,1015.625,12.60,-35.85,-38.10,19.07
16670,-1.98,-3.92,-32.50,-648.926,203.613,1042.969,12.60,-36.60,-38.10,18.92
16680,16.67,-8.33,-40.44,789.551,-2000.000,323.242,12.60,-36.15,-36.15,18.83
16690,-22.18,1.24,-50.77,-1008.301,405.273,660.645,11.10,-37.05,-37.65,19.07
16700,17.67,-3.32,-31.10,495.605,-549.316,518.066,11.10,-37.05,-37.65,19.12
16713,-13.54,0.98,-47.92,-605.957,304.687,730.469,10.95,-37.65,-37.50,19.02
16723,20.12,-4.42,-37.80,1121.094,-1408.203,645.996,11.70,-36.00,-36.75,19.07
16733,-4.52,3.43,-51.72,-629.395,574.219,1999.939,11.85,-38.55,-36.90,19.02
16743,20.68,-6.17,-40.08,423.340,-604.980,545.410,11.85,-38.55,-36.90,19.07
16753,-3.08,-2.95,-36.23,-1088.867,184.082,605.469,13.20,-36.45,-36.00,18.88
16763,28.35,-5.16,-43.47,1036.621,-1208.496,790.527,12.60,-39.30,-37.65,18.83
16775,25.31,-2.60,-31.12,377.930,-824.219,-62.988,12.60,-39.30,-37.65,19.21
16785,-16.97,0.82,-40.96,-208.008,62.988,1120.117,10.95,-36.00,-37.05,19.02
16795,6.11,-9.66,-37.24,831.543,-1007.324,1174.805,11.40,-38.25,-35.70,18.73
16805,-12.92,4.79,-47.41,-583.008,146.973,458.496,12.00,-37.95,-36.75,19.21
16815,24.50,-6.24,-35.93,782.227,-678.711,212.891,10.50,-36.45,-37.80,18.92
16825,-2.46,-5.47,-38.78,-580.078,-1080.566,1999.939,10.50,-36.45,-37.80,19.02
16835,26.95,-7.57,-44.18,-150.391,-781.738,1011.230,10.35,-37.35,-36.60,19.07
16847,14.65,-3.02,-40.89,-344.238,-296.387,1002.441,10.95,-36.75,-37.50,19.02
16857,2.14,2.73,-41.93,-37.109,-861.816,1999.939,10.05,-38.70,-36.75,19.02
16867,2.19,8.23,-37.58,-783.203,749.023,1999.939,10.35,-38.55,-36.15,18.83
16877,12.63,-1.49,-32.18,348.633,-1236.328,434.570,10.35,-38.55,-36.15,18.83
16887,-15.92,11.64,-38.72,-1009.277,223.145,1492.676,10.05,-38.40,-35.25,18.92
16901,11.79,0.62,-42.78,437.012,-532.227,350.098,10.05,-38.40,-37.50,19.07
16911,-14.71,11.48,-44.67,-892.090,-295.898,1402.832,10.65,-37.05,-36.60,19.12
16923,-11.89,5.05,-41.11,-635.254,-1036.621,1820.313,11.70,-38.40,-36.30,19.02
16933,28.85,3.65,-43.19,517.578,-601.074,148.437,11.70,-38.40,-36.30,19.07
16943,-17.79,9.29,-42.94,-570.312,-566.406,1617.676,11.25,-37.65,-36.30,18.88
16953,27.49,7.15,-36.97,345.215,-1121.094,775.879,11.25,-37.65,-36.30,19.07
16962,-6.54,11.05,-39.05,-409.180,-110.352,802.734,11.25,-37.65,-36.30,18.73
16972,25.36,-1.09,-41.88,569.336,-1534.180,-195.312,9.15,-38.55,-36.15,19.12
16982,-0.05,11.30,-50.39,-1146.973,334.473,685.059,9.30,-37.65,-34.50,19.26
16994,-18.64,1.21,-35.16,-682.129,-81.055,698.242,10.95,-36.45,-37.50,18.92
17004,19.33,1.33,-45.56,1081.543,-1599.121,-1047.852,10.95,-36.45,-37.50,19.02
17014,-37.35,4.10,-56.46,-842.773,814.453,583.008,9.15,-40.20,-36.15,19.12
17024,9.92,-6.84,-34.79,543.945,-623.047,196.777,11.10,-38.55,-36.15,19.07
17034,-24.00,5.31,-45.04,-791.016,270.020,1144.531,9.60,-38.55,-36.90,18.88
17044,14.95,3.63,-50.30,154.297,-409.668,1132.324,9.60,-39.75,-35.40,19.07
17056,1.33,-1.56,-34.18,148.926,-160.156,790.527,9.60,-39.75,-35.40,19.07
17066,6.59,-10.15,-37.15,454.590,-1580.566,1736.328,9.15,-37.05,-36.15,19.12
17076,-0.99,-0.73,-38.33,-730.957,-15.137,999.023,9.90,-40.20,-34.95,19.12
17086,11.11,0.65,-37.28,218.262,-867.676,1144.043,9.90,-40.20,-34.95,19.07
17096,2.06,3.35,-63.34,-723.145,-218.262,1999.939,9.30,-37.95,-35.25,18.92
17106,19.04,4.29,-37.03,634.277,-1194.824,403.809,9.60,-38.55,-34.95,19.07
17115,-2.15,6.24,-43.02,70.801,-292.969,781.250,8.55,-39.90,-35.25,19.26
17127,2.87,0.57,-57.05,-678.711,346.191,1457.031,9.30,-38.40,-36.30,19.02
17137,12.75,1.89,-48.93,643.066,-1130.859,996.094,9.30,-38.40,-36.30,18.92
17147,-9.06,5.35,-41.15,-807.129,7.324,1359.375,9.15,-39.00,-35.40,18.73
17157,16.08,-7.65,-50.76,633.789,-1756.836,291.016,8.40,-39.00,-35.40,19.02
17167,-21.82,-8.18,-49.12,-682.129,340.820,1437.988,8.70,-39.00,-34.95,18.83
17177,19.73,-5.96,-51.54,962.402,-1063.477,-829.590,7.95,-40.20,-36.60,19.07
17187,-24.92,-6.12,-32.11,-601.074,-291.016,1578.613,7.95,-40.20,-36.60,19.36
17199,-14.73,-4.86,-46.50,27.832,-537.109,724.121,7.35,-39.15,-34.50,19.12
17209,16.18,-7.19,-48.66,-336.426,-332.520,1332.031,7.05,-39.90,-33.30,19.07
17219,-13.96,-8.31,-45.47,23.437,-1118.164,1999.939,7.05,-38.70,-35.55,19.12
17229,-5.92,6.19,-50.56,-207.520,50.293,1313.965,6.60,-39.60,-34.50,18.92
17239,15.05,-9.18,-46.85,742.676,-1364.746,1555.664,6.60,-39.60,-34.50,18.54
17249,-22.11,-1.36,-48.15,-1015.137,86.426,1573.730,6.90,-38.25,-35.70,19.12
17261,-9.63,7.47,-39.26,-756.348,-80.566,644.043,7.95,-40.20,-35.40,18.83
17271,16.90,4.29,-44.93,191.895,-895.508,13.672,7.95,-40.20,-35.40,18.83
17281,7.17,10.60,-42.19,-739.746,-290.039,1216.797,7.05,-40.35,-34.80,19.07
17291,21.15,7.57,-41.03,527.344,-1188.477,734.863,7.05,-37.95,-35.55,19.12
17301,-17.46,9.44,-59.98,-617.187,180.176,1459.961,7.05,-40.35,-34.50,19.12
17311,8.51,8.00,-50.99,492.676,-666.992,458.008,5.55,-39.90,-34.80,19.02
17320,17.11,9.37,-41.37,328.613,-822.266,14.648,5.55,-39.90,-34.80,19.07
17332,6.00,0.79,-51.40,216.797,-511.230,977.051,6.90,-40.50,-35.40,18.83
17342,-11.57,-2.92,-51.64,-395.996,-804.687,870.117,5.85,-39.90,-35.55,19.02
17352,4.98,-3.83,-40.69,-139.160,-338.379,679.199,5.10,-39.90,-35.55,19.02
17362,5.74,-15.71,-44.22,55.664,-799.316,1610.352,6.90,-41.40,-35.40,19.07
17372,1.97,-0.81,-42.87,-330.078,76.172,978.516,6.90,-41.40,-35.40,19.02
17382,14.53,-2.35,-53.90,178.223,-1081.055,1017.090,5.85,-39.60,-35.25,19.02
17392,-0.15,-2.87,-47.85,-608.887,-166.504,1383.789,6.15,-40.95,-35.70,18.83
17404,-13.82,2.79,-40.28,-284.668,-125.000,913.574,5.70,-41.70,-34.95,19.26
17419,-0.34,-1.08,-38.34,-42.969,-1712.891,1999.939,4.35,-39.90,-36.00,19.02
17428,-13.06,1.75,-42.50,-199.707,-356.934,1116.211,4.50,-40.95,-35.40,18.92
17438,-13.21,-1.22,-47.30,-97.656,-0.977,771.973,5.55,-41.10,-35.25,19.12
17448,-0.73,9.70,-49.25,-228.516,211.426,1999.939,5.55,-41.10,-35.25,19.21
17458,14.98,6.02,-38.42,59.570,-320.312,1143.555,4.95,-40.50,-35.40,18.83
17467,15.10,2.48,-43.28,-157.227,-218.750,672.363,3.75,-40.20,-36.60,19.07
17479,20.33,1.32,-50.87,-47.363,-780.762,270.996,4.50,-40.20,-36.15,19.07
17489,7.19,-4.34,-44.10,297.363,-1042.480,1024.414,3.90,-41.10,-37.05,18.88
17499,3.56,-4.85,-37.79,-286.621,-841.309,728.027,3.90,-41.10,-37.05,19.07
17509,-9.48,-11.69,-48.97,327.637,-827.148,1447.266,3.15,-40.80,-35.25,19.12
17519,-10.95,-9.79,-45.54,-150.391,-430.176,904.297,2.40,-42.00,-34.50,18.92
17529,-11.69,-8.40,-49.42,-335.937,-619.629,1124.023,2.40,-42.30,-35.55,18.83
17541,2.23,-6.69,-49.06,-166.016,-371.094,1610.840,2.85,-41.10,-33.30,19.07
17551,11.34,-6.20,-50.16,-593.750,-398.926,985.352,2.85,-41.10,-33.30,18.92
17561,9.95,-3.63,-30.77,398.437,-751.465,1021.484,3.00,-42.90,-33.15,18.83
17571,-9.68,-7.67,-37.86,-155.273,-627.441,1385.254,2.85,-42.30,-33.75,19.07
17581,-4.42,-1.96,-31.51,-118.164,-712.402,950.684,2.85,-42.30,-33.75,19.07
17591,-17.18,-7.05,-51.98,-92.285,-34.180,1583.496,2.25,-42.60,-34.20,19.07
17601,-4.72,1.99,-41.95,-36.621,-371.094,282.227,1.05,-42.15,-35.40,18.88
17613,1.72,5.03,-42.37,-180.176,-721.680,320.312,1.50,-42.90,-34.65,19.07
17623,-8.44,6.18,-45.76,-399.414,-81.543,1157.227,0.45,-41.55,-34.80,19.07
17633,15.80,-0.34,-39.68,-285.645,-656.738,1367.676,0.45,-41.55,-34.80,18.68
17643,18.61,5.56,-48.02,-145.996,-655.273,903.320,0.30,-42.60,-34.65,19.02
17653,8.62,5.93,-50.00,319.336,-367.676,576.660,-0.30,-42.90,-34.95,18.83
17663,5.02,-3.56,-42.76,43.945,-647.949,1527.832,-0.15,-41.55,-35.25,19.07
17673,6.40,-4.79,-49.15,325.195,-1191.895,454.590,0.90,-42.30,-35.25,19.02
