Time_ms,GyroX_degps,GyroY_degps,GyroZ_degps,AccelX_g,AccelY_g,AccelZ_g,MagX_uT,MagY_uT,MagZ_uT,Temp_C
1308,0.5,-0.38,-1.78,-1.953,23.437,1011.719,-18.75,-19.8,-24.9,14.08
1317,-1.27,-0.81,-1.51,-7.324,27.344,1013.184,-18.15,-18,-26.1,13.75
1327,1.43,-0.65,1.46,-11.719,26.855,1010.254,-20.1,-19.65,-25.35,13.99
1336,0.01,-0.58,1.6,-5.859,13.184,1016.602,-19.2,-18.6,-24.45,14.08
1345,0.55,-1.01,-0.21,-7.812,40.039,1011.23,-18.9,-18.9,-25.05,13.99
1355,0.99,1.39,1.4,-7.812,26.855,1014.16,-18.9,-18.9,-25.05,13.75
1364,-0.83,-0.54,-1.36,-2.93,34.18,1021.973,-19.65,-18.45,-23.85,13.84
1374,-1.34,-0.56,0.76,-19.531,50.293,1021.973,-18.75,-19.05,-25.65,14.08
1384,-1.73,-3.89,0.52,-6.348,38.086,1022.949,-18.75,-19.05,-25.65,14.08
1394,0.54,0.4,-0.45,-15.625,36.621,1023.437,-19.2,-19.05,-24.9,13.8
1403,0.09,-1.57,-0.66,-15.137,33.691,1015.625,-19.65,-19.65,-24.3,13.84
1413,0.37,0.94,-0.5,-9.766,27.344,1023.926,-19.2,-19.05,-24.45,13.99
1422,1.2,0.76,-0.64,-9.277,27.344,1019.531,-19.35,-19.05,-24.45,13.75
1431,-2.62,-0.08,-0.04,-7.324,26.367,1016.113,-19.35,-18,-24.3,13.94
1441,-1.18,-0.95,-0.75,-14.648,36.621,1004.395,-19.35,-18,-24.3,13.84
1451,0.3,3.02,1.92,-2.93,36.133,1013.184,-19.35,-17.7,-25.05,13.99
1460,-1.95,-0.93,0.71,-12.695,28.809,1007.812,-19.5,-18.6,-24.45,13.84
1470,-1.27,-0.55,-1.34,-20.02,34.668,1005.859,-19.5,-18.6,-24.45,13.8
1480,1.11,-2.94,2.71,-18.066,39.063,1011.719,-19.2,-18.6,-24.9,14.08
1489,1.28,-0.66,1.24,-16.113,30.762,1020.996,-18.9,-18,-24.6,13.84
1498,-0.12,-1.93,0.8,-3.906,32.715,1021.484,-18.6,-18.45,-26.1,13.99
1508,-1.1,-1.91,-1.63,-11.23,23.437,1014.16,-18.15,-18.9,-24.6,14.08
1518,-1.56,-0.19,-3.92,-10.254,24.414,1015.625,-18.75,-17.85,-25.2,14.18
1528,-0.55,0.43,1.84,-2.93,23.926,1011.23,-19.65,-18.9,-25.05,14.13
1537,1.1,-0.51,-0.99,-15.137,32.715,1021.484,-18.9,-18.45,-25.35,13.99
1547,-0.99,-0.74,2.13,-4.883,36.133,1023.437,-18.9,-18.45,-25.35,13.75
1557,-0.47,-1.19,0.84,-4.395,33.203,1017.578,-18.9,-17.7,-25.35,14.08
1567,-1.49,1.66,-1.58,-5.859,17.09,1020.02,-19.35,-18.45,-25.8,13.84
1577,0.83,-0.62,-0.02,-13.184,39.063,1019.043,-19.35,-18.45,-25.8,13.94
1587,-0.21,-0.79,-0.47,-3.906,32.715,1032.715,-18.9,-19.65,-25.05,13.8
1597,-0.66,-1.29,0.41,-12.695,35.645,1013.184,-19.95,-17.4,-25.2,14.08
1607,-0.09,-1.95,1.65,-6.836,31.738,1015.625,-19.5,-18.6,-24.45,13.65
1617,2.12,0.52,0.13,-1.465,33.691,1015.137,-18.6,-18.9,-23.85,14.08
1626,0.01,1.83,-0.6,-13.672,38.086,1022.949,-18.6,-18.9,-23.85,14.13
1635,-0.93,0.28,3.28,-25.391,26.367,1025.879,-18.9,-17.25,-24.3,14.13
1644,-1.65,-2.56,-3.02,-18.555,25.391,1020.02,-18.75,-19.5,-25.2,14.08
1654,1.76,-2.36,-2.22,-8.301,36.621,1017.578,-18.75,-19.5,-25.2,14.18
1664,1.47,-0.72,-0.27,-15.625,32.227,1019.531,-19.2,-18.3,-25.65,14.18
1674,-0.03,-0.84,-1.82,-6.348,27.344,1015.625,-18.6,-18.9,-25.35,14.18
1684,-0.48,1.96,0.98,-13.672,34.18,1011.23,-18.6,-18.9,-25.35,13.84
1693,-0.19,2.28,1.05,-18.066,38.574,1030.762,-18.75,-17.85,-24.15,14.18
1702,-1.26,-0.42,-1.19,-1.953,31.25,1021.973,-19.2,-19.5,-24.15,14.13
1712,0.1,-0.54,-1.52,-10.254,27.832,1010.742,-19.2,-19.5,-24.9,14.18
1722,-1.69,-0.79,-0.03,-14.16,19.043,1010.742,-19.35,-18.9,-24.6,13.84
1732,2.68,-1.44,1.16,-17.578,32.715,1025.879,-19.5,-19.05,-25.95,14.13
1741,2.6,0.27,0.08,-3.906,31.738,1017.578,-19.5,-19.05,-25.95,14.13
1750,1.82,2.53,1.52,-3.418,23.926,1024.414,-18.75,-18.6,-24.9,13.8
1759,-0.52,-3.37,-1.58,-3.418,27.832,1013.184,-19.65,-18,-24.6,14.08
1769,0.53,-1.92,0.62,-18.066,35.156,1020.508,-19.65,-18,-24.6,14.18
1778,1.01,-2.66,3.18,-5.859,26.367,1006.836,-20.25,-17.85,-25.65,14.08
1831,-1.46,1.63,-3.13,-9.766,28.809,1010.254,-18.75,-18.6,-24.45,14.37
1840,0.98,-1.45,-0.2,-14.648,29.297,1023.437,-19.35,-18,-25.05,14.28
1850,0.9,1.83,-0.02,-17.09,36.621,1004.883,-19.35,-18,-25.05,14.32
1859,0.92,-0.53,1.43,-14.16,26.855,1019.531,-18.9,-17.7,-24.3,13.84
1868,0.78,-0.31,2.57,-22.461,36.621,1023.437,-18.9,-18.9,-25.05,14.28
1877,-0.47,1.01,1.08,-12.207,28.809,1020.02,-18.9,-18.9,-25.05,14.08
1886,-0.67,-1.97,-0.44,-13.672,26.855,1014.648,-19.5,-18.6,-25.65,14.18
1896,-0.04,0.56,-1.79,-8.301,42.48,1018.066,-19.35,-18.9,-25.05,13.99
1906,0.16,-0.78,0.79,-10.742,32.715,1017.09,-18.6,-18.45,-25.05,14.13
1915,-0.85,0.87,-2.62,-4.395,30.762,1026.367,-19.2,-17.1,-25.2,14.08
1925,-1.37,0.4,-0.36,-3.906,33.691,1024.414,-19.2,-17.1,-25.2,13.84
1935,-1.53,-0.31,-0.18,-13.184,34.668,1016.113,-18.6,-19.2,-25.35,14.28
1945,-0.79,-0.82,0.48,-14.16,27.344,1020.508,-19.5,-18.3,-24.9,14.13
1955,-1.13,0.45,-0.97,-8.301,34.18,1013.672,-19.5,-18.3,-24.9,13.99
1965,1.44,0.82,1.25,-14.648,24.414,1021.484,-19.65,-19.2,-25.05,14.08
1974,-0.72,-0.75,-3.84,-15.625,38.574,1022.949,-19.5,-17.85,-25.65,14.08
1984,-1.26,-0.29,0.85,-4.883,33.691,1022.461,-18,-18.6,-25.65,14.18
1994,-1.54,-2.29,-2.15,-7.812,30.762,1015.625,-19.35,-18.45,-25.05,14.28
2004,0.69,-0.69,-0.34,-14.648,29.785,1014.648,-19.2,-18.6,-25.2,14.28
2014,-1.08,-0.21,0.84,-16.602,28.32,1016.113,-19.2,-18.6,-24.9,14.08
2024,-1.24,0.34,0.35,-10.742,33.203,1021.484,-19.5,-18.6,-25.2,13.8
2033,-0.5,2.69,0.57,3.906,29.297,1023.437,-19.5,-18.6,-25.2,14.18
2042,1.87,1.4,0.15,-13.184,31.25,1013.184,-19.5,-18.6,-25.2,14.13
2051,-2.95,-0.42,-2.89,-17.09,28.809,1016.602,-19.35,-18,-26.1,13.99
2061,0.27,-3.02,3.16,-11.719,33.691,1011.719,-20.25,-19.05,-24.45,14.28
2070,1.48,-1.7,-1.95,-11.719,34.18,1023.926,-20.25,-19.05,-24.45,14.18
2080,-1.11,1.4,-0.68,-18.555,27.832,1016.602,-18.45,-17.4,-25.95,14.28
2090,0.56,-1.75,-1.31,-3.906,37.598,1034.668,-20.25,-17.4,-24.45,14.28
2100,-0.34,2.15,-0.81,4.883,38.086,1006.348,-19.2,-18.6,-24.45,13.84
2109,0.15,-1.21,-3.17,-15.137,22.949,1014.648,-18.75,-17.1,-24.9,14.08
2119,0.04,-1.31,-0.18,-28.32,29.297,1026.367,-18.75,-17.1,-24.9,14.13
2129,-0.56,0.93,-1.91,-9.766,29.785,1016.113,-19.2,-18.3,-25.2,14.28
2139,-0.22,-1.35,0.69,-3.418,37.598,1033.691,-18.6,-19.65,-23.1,14.08
2149,2.1,-1.72,1.33,-5.371,29.297,1004.395,-18.6,-19.65,-23.1,14.32
2158,-2.17,-0.71,-1.89,-16.602,22.949,1019.531,-18.6,-18,-25.35,14.18
2168,-0.59,-1.02,-0.42,-19.043,34.18,1015.137,-18.9,-19.2,-25.35,14.13
2178,-2.48,0.38,-1.43,-11.719,32.715,1010.254,-18.9,-18.9,-24.3,14.37
2188,-0.33,-4.42,0.33,-15.137,21.484,1014.16,-18.75,-18.6,-24.9,13.99
2198,-1.4,2.6,1.6,-6.348,36.621,1032.715,-19.5,-17.85,-24.45,14.32
2207,-1.66,-0.66,-0.36,-19.531,26.855,1022.949,-19.65,-18.45,-25.8,14.28
2217,-1.08,2.77,-0.53,-0.488,29.297,1017.578,-20.1,-18.9,-24.6,14.13
2227,0.73,0.61,-0.72,-4.883,25.879,1030.762,-20.1,-18.9,-24.6,14.18
2236,-0.92,-0.61,-2.95,-14.16,20.508,1016.113,-18.9,-18,-23.55,14.13
2246,-0.95,0.54,-1.26,5.859,21.484,1017.578,-19.65,-18.45,-24.3,14.18
2255,0.36,-2.65,-0.15,-3.418,25.879,1020.508,-19.65,-18.45,-24.3,14.13
2265,0.41,2.23,1.1,-13.184,47.852,1014.648,-20.25,-18.6,-24.45,13.65
2274,-0.53,0.14,-2.6,-17.09,40.039,1010.742,-18.75,-18.3,-23.7,14.08
2284,-1.1,-0.94,-3.23,-9.766,31.738,1009.277,-19.35,-18.9,-23.55,14.18
2294,1.18,-0.89,-0.65,-16.113,47.852,1019.531,-18.75,-19.8,-24.9,14.13
2304,1.1,-2.63,0.53,-18.555,39.063,1015.137,-18.75,-19.8,-24.9,14.28
2330,1.2,-0.07,-0.85,-13.184,34.18,1024.414,-18,-17.85,-26.4,14.28
2339,2.11,0.89,-1.88,-14.648,26.855,1019.043,-18,-17.85,-26.4,14.28
2348,1.61,2.64,0.75,-17.09,40.527,1008.301,-19.95,-19.5,-25.2,14.47
2357,0.54,-0.68,0.6,-18.066,25.391,1020.02,-20.55,-19.65,-24.3,14.28
2366,0.31,1.38,1.56,-7.324,21.973,1019.531,-18,-19.5,-25.65,14.18
2375,-0.29,0.57,-1.31,-0.977,20.996,1016.113,-18.75,-17.85,-24.45,14.08
2385,2.05,-0.49,3.34,0,14.16,1022.949,-18.75,-17.85,-24.45,14.28
2394,-0.9,0.64,-0.41,-15.625,17.09,1027.832,-18.75,-18.3,-24.9,14.28
2404,0.18,0.26,-4.31,-14.648,12.695,1018.066,-18.9,-18.9,-25.35,13.99
2413,0.02,2.87,-2.29,-9.766,28.809,1022.461,-18.9,-18.9,-25.35,14.08
2422,-0.74,0.05,1.4,-12.695,12.207,1023.926,-18.9,-18.9,-25.35,14.28
2431,0.71,-0.92,-0.46,-8.301,36.133,1026.367,-20.1,-18.9,-25.35,14.47
2441,0.77,-0.92,-0.7,-9.277,33.203,1012.695,-18.6,-17.25,-24.6,14.28
2451,-0.53,0.78,2.08,-4.883,39.551,1020.996,-18.15,-18.45,-24.6,14.13
2460,1.99,-0.5,0.79,1.465,19.531,1017.578,-18.75,-19.5,-25.2,14.28
2469,-1.01,0.73,1.02,-8.301,44.434,1020.508,-19.65,-18.45,-25.35,14.18
2478,-0.74,1.56,0.19,-20.996,33.691,1021.484,-19.2,-18.3,-24.15,13.84
2487,-1.12,1.2,0.87,-18.555,37.598,1023.437,-19.65,-19.65,-24.6,14.52
2496,-1.17,-2.16,-0.21,-1.953,38.574,1022.949,-19.65,-19.65,-24.6,14.18
2506,-0.68,-1.31,-1.43,-13.672,35.156,1013.672,-19.95,-19.05,-24.45,13.99
2516,-1.34,0.48,0.21,-9.277,39.551,1018.066,-19.2,-17.85,-25.2,14.28
2525,1.19,-0.99,-1.6,-12.695,32.227,1020.508,-19.2,-17.85,-25.2,14.37
2535,-0.5,0.17,0.79,-13.184,30.762,1017.09,-19.65,-18.45,-25.35,14.37
2544,-1.84,3.11,-0.6,-21.484,21.484,1009.277,-19.95,-18.6,-23.7,13.99
2554,1.53,-2.83,0.12,-5.371,22.949,1014.16,-19.5,-18.6,-24.9,14.37
2563,0.36,1.05,-1.4,-9.277,22.949,1027.344,-18,-18.6,-24.9,14.28
2572,-3.15,0.98,-2.53,-20.02,28.32,1021.484,-18,-18.6,-24.9,14.32
2582,0.1,-0.92,-2.17,-13.184,26.855,1023.437,-18,-18.6,-24.9,14.18
2592,0.52,-0.32,-2.25,-12.695,31.738,1022.949,-18.75,-17.85,-24.45,14.37
2602,-0.2,2.4,2.37,-14.16,29.785,1019.043,-19.65,-18.45,-24.3,14.52
2611,0.63,1.06,2.76,0.488,38.086,1022.461,-19.65,-18.45,-24.3,14.08
2620,-0.84,0.15,0.1,-9.766,24.902,1024.414,-19.35,-16.8,-25.05,14.13
2629,-1.45,1.62,-0.87,-13.184,18.066,1017.09,-20.1,-19.2,-23.85,14.18
2639,0.35,0.11,0.95,-7.812,34.18,1020.996,-19.2,-18.3,-25.2,14.18
2648,0.34,0.02,-0.37,-9.277,26.855,1026.855,-19.5,-19.8,-24.45,13.99
2657,2.06,0.33,1.27,-15.625,36.621,1027.344,-18.15,-18.9,-25.05,14.28
2666,0.82,-1.03,2.79,-23.437,31.738,1027.832,-18.9,-18,-24.3,14.37
2675,0.05,1.27,-3.18,-12.207,38.086,1015.625,-19.65,-17.7,-25.8,14.13
2684,-1.05,1.51,-0.4,-17.09,31.738,1014.648,-19.65,-17.7,-25.8,14.28
2694,-0.92,0.99,0.1,0.977,31.738,1010.742,-19.35,-16.8,-24.3,14.28
2703,0.6,-1.71,-1.69,-16.113,28.809,1007.324,-18.75,-19.05,-24.45,14.08
2713,-0.21,0.41,-2.29,-5.371,36.621,1016.113,-18.75,-19.05,-24.45,14.28
2723,1.64,1.6,0.04,-29.297,32.227,1032.227,-18.75,-19.05,-24.45,14.18
2732,-0.88,-2.06,-1.77,-8.789,37.109,1028.809,-19.2,-18.6,-25.2,14.32
2742,1.4,-0.94,2.75,-16.602,23.926,1018.555,-18,-17.85,-24.45,14.28
2751,1.5,0.42,-0.95,-24.902,33.691,1026.367,-19.2,-18.3,-25.2,14.32
2760,-0.31,-0.2,0.85,-13.672,25.879,1016.113,-19.35,-18.45,-24.3,14.08
2770,0.82,-1.34,-3.64,-13.672,36.133,1017.09,-19.35,-18.45,-24.3,14.28
2780,-0.76,-0.32,0.18,-9.766,23.926,1016.113,-19.35,-18.9,-24.6,14.18
2790,0.64,1.4,-0.96,-14.16,24.902,1031.738,-20.1,-19.65,-25.05,14.18
2815,-0.08,-1.79,0.08,4.883,40.527,1017.578,-19.65,-18.45,-23.85,14.28
2824,-0.83,0.53,-0.2,-14.648,23.437,1014.16,-20.85,-18.45,-25.35,14.28
2834,1,-0.44,0.54,-2.93,32.227,1016.602,-20.25,-18.6,-25.2,14.18
2843,-0.76,-0.98,0.74,-18.066,28.809,1027.832,-18.75,-17.85,-24.9,14.13
2853,0.24,0.07,-1.08,-11.719,20.996,1025.391,-18.75,-17.85,-24.9,14.28
2862,0.68,-0.77,0.65,-13.184,29.785,1022.949,-18.9,-18.9,-25.35,14.13
2871,-1.6,1.91,0.65,-8.301,28.32,1034.18,-18.15,-19.2,-25.35,14.47
2880,0.62,-0.24,-0.18,-7.324,34.668,1024.414,-18.15,-19.2,-25.35,14.18
2890,-0.68,-0.82,-1.5,-9.277,25.391,1025.879,-18.9,-20.1,-25.8,14.37
2900,2.08,-2.57,-2.02,-5.859,33.203,1031.738,-19.2,-18.6,-25.2,14.08
2910,-0.76,0.01,0.15,-3.906,38.086,1018.555,-19.2,-18.6,-25.2,14.28
2919,-0.22,0.95,-0.31,-0.488,32.227,1020.02,-18.15,-19.2,-23.85,14.37
2929,-0.11,-1.18,1.02,-3.906,30.762,1004.395,-19.2,-17.4,-24.15,14.18
2939,-1.83,-2.21,-0.93,-1.465,30.762,1014.16,-19.2,-18.6,-24.15,14.13
2949,-0.88,0.52,-1.93,-7.324,43.457,1011.23,-19.5,-18.6,-24.9,13.94
2959,1.51,1.35,0.18,-3.906,27.832,1022.949,-19.5,-18.6,-24.9,14.28
2968,-1.24,-2.66,-0.41,-19.043,14.648,1021.973,-19.35,-18,-25.8,14.18
2978,-0.13,-0.21,0.98,-14.648,33.203,1024.902,-19.65,-19.2,-24.6,14.37
2988,0.36,0.04,1.27,-22.461,26.367,1029.785,-19.65,-19.2,-24.6,14.18
2997,0.58,0.35,0.91,-7.324,27.832,1023.437,-19.2,-18.3,-25.65,14.28
3006,0.11,-2.76,-0.11,-17.578,33.691,1015.625,-18.6,-17.7,-24.6,14.37
3016,-0.46,-2.02,0.8,-25.879,23.437,1029.297,-18.9,-18,-25.05,14.37
3026,-0.02,-0.55,1.69,0.977,26.855,1030.273,-18.75,-18.6,-25.65,14.18
3035,-1.93,0.23,0.21,-11.719,31.25,1031.25,-18.75,-18.6,-25.65,14.47
3044,-0.08,-1.37,-2.44,2.441,22.949,1025.391,-18.6,-18,-25.05,14.37
3054,-0.44,2.38,-0.5,-14.16,25.879,1024.414,-20.1,-19.2,-25.05,14.08
3064,0.11,0.01,-1.87,5.371,30.762,1024.902,-20.1,-19.2,-25.05,14.08
3073,-0.06,-0.04,0.05,1.465,28.809,1016.113,-20.1,-19.2,-25.05,14.18
3082,0.89,0.14,1.08,-9.277,37.109,1014.648,-19.65,-19.2,-25.05,14.37
3091,0.56,-2.08,-2.04,-6.348,31.25,1020.02,-19.65,-18.45,-24.6,14.37
3101,-1.67,-0.66,0.99,-12.695,36.133,1020.508,-20.1,-18.45,-24.6,14.37
3111,0.69,-1.61,1.66,-12.207,40.527,1042.969,-18.75,-16.2,-25.2,14.37
3120,-1.26,-0.81,0.03,0,34.668,1017.578,-19.35,-18.9,-24.6,14.18
3129,0.16,0.66,-2.8,-6.348,41.992,1029.297,-18.45,-19.05,-24.9,14.47
3138,-0.82,2.31,-0.21,-3.418,29.785,1027.832,-19.95,-19.05,-26.4,14.47
3148,-1.31,-0.1,1.46,-13.672,34.668,1019.531,-19.95,-19.05,-26.4,14.37
3158,-1.94,0.52,-2.36,0.488,24.902,1024.902,-18.6,-18.9,-24.3,14.13
3167,-1.58,1.4,-0.44,-9.766,30.273,1020.02,-19.65,-18,-24.3,14.37
3177,-0.31,2.21,-0.51,-15.625,36.621,1014.16,-19.65,-18,-24.3,14.47
3187,-1.17,-1.58,0.86,2.93,36.133,1013.184,-18.6,-18.9,-26.1,14.52
3196,-0.24,0.69,-1.61,-13.672,35.645,1015.137,-18.6,-17.7,-25.35,14.13
3206,-1.9,2.11,1.74,-12.695,40.527,1012.207,-18.75,-19.8,-25.2,14.37
3215,-0.52,-0.92,-0.77,-22.949,25.879,1021.484,-19.95,-19.05,-24.9,14.37
3225,1.03,-1.5,1.28,-13.672,17.578,1016.113,-19.95,-19.05,-24.9,14.28
3234,-1.66,-1.85,-2.48,-13.184,41.992,1030.762,-19.2,-18.6,-24.15,13.99
3244,-0.55,0.51,-1.52,-19.531,35.156,1041.504,-19.2,-18.6,-24.9,14.37
3254,-0.35,-1.33,0.11,-8.789,17.09,1041.504,-19.2,-18.6,-24.9,14.32
3264,-0.31,0.27,2.41,-19.531,21.973,1031.738,-20.1,-18.45,-25.8,14.37
3273,2.42,-1.69,0.94,-24.414,26.855,1034.18,-20.1,-18.45,-25.8,14.13
3282,-2.12,0.98,-0.76,-18.555,38.574,1018.066,-18.9,-18.45,-25.05,14.66
3307,-1.02,-0.19,-1.32,-17.09,28.809,1029.297,-19.2,-18.6,-24.9,14.37
3316,2.33,-0.24,1.76,-15.137,36.621,1030.273,-18.75,-19.05,-24.9,14.37
3325,1.97,-2.14,-3.03,-16.602,30.762,1016.602,-19.35,-18.45,-24.6,14.28
3335,-1.79,-0.19,-0.74,-3.418,32.227,1024.902,-19.35,-18.45,-24.6,14.28
3345,1.79,-2.49,0.66,-25.391,31.738,1032.227,-18.9,-19.65,-24.3,14.52
3354,0.89,-1.92,-2.19,-3.418,37.598,1015.625,-18.75,-18.6,-24.9,14.28
3364,-0.39,-2.66,-1.15,-5.371,41.504,1021.973,-18.75,-18.6,-24.9,14.37
3374,-0.37,-2.27,1.89,-21.973,27.832,1035.645,-19.2,-17.85,-25.95,14.52
3384,-1.51,1.31,0.76,-0.488,36.621,1020.508,-18.9,-17.25,-23.85,14.28
3393,0.08,0.43,0.8,-14.648,25.879,1034.18,-18.9,-17.25,-23.85,14.13
3402,-1.33,-2.14,-2.21,-12.695,27.344,1010.254,-19.2,-18.3,-24.9,14.37
3412,-0.85,1.54,0.02,0.977,21.484,1019.531,-18.6,-19.2,-24.6,14.28
3421,-1.18,2.26,1.39,-4.395,41.016,1036.133,-18.6,-19.2,-24.6,14.08
3430,-0.64,-0.04,-1.04,-0.977,31.738,1022.461,-20.55,-17.7,-23.55,14.52
3440,-0.94,1.92,1.8,-20.02,28.809,1016.602,-18.75,-18.3,-25.65,14.66
3449,-2.67,-0.54,-0.37,-4.395,23.437,1020.02,-18.75,-18.3,-25.65,14.37
3459,-1.35,-1.69,-1.9,-20.02,31.25,1024.414,-18,-19.05,-24.15,14.32
3469,-2.58,-2.08,1.6,-19.531,26.855,1029.297,-19.5,-17.4,-24.45,14.28
3479,-0.85,1.15,-2.05,-14.648,35.645,1027.832,-20.1,-18.45,-25.8,14.61
3489,-1.37,2.41,-0.54,-25.879,38.086,1021.484,-18.45,-17.4,-25.2,14.47
3499,-0.4,1.65,1.2,-4.395,43.945,1011.23,-17.4,-18,-25.35,14.28
3508,-1.46,1.21,0.59,-10.254,27.344,1017.578,-18.9,-19.2,-24.6,14.18
3517,0.67,-0.32,-1.44,-18.066,29.785,1014.648,-19.35,-18,-24.3,14.37
3527,-0.69,-0.09,0.05,-20.996,47.363,1014.648,-19.35,-18,-24.3,14.37
3537,-0.41,0.96,-0.47,-9.766,20.508,1018.555,-19.95,-18.3,-24.15,14.18
3547,2.08,-2.15,1.28,-8.301,39.063,1015.137,-19.2,-19.05,-24.9,14.28
3556,-0.37,1.65,-0.88,-1.953,36.133,1021.973,-19.2,-19.05,-24.9,14.61
3566,0.05,-0.44,-1.79,-11.719,28.809,1012.207,-19.2,-18.6,-25.2,14.66
3576,-1.45,1.47,-1.42,-19.043,35.645,1035.156,-21,-18.6,-24.15,14.37
3586,-1.61,0.98,1.2,-14.648,30.762,1029.785,-18.45,-18.6,-24.15,14.37
3595,0.14,-0.47,-2.79,-8.301,28.32,1025.391,-19.65,-18.9,-26.1,14.28
3605,-3.23,3.24,0.93,-7.812,24.414,1031.738,-19.65,-18.9,-26.1,14.52
3614,2.38,-3.65,1.66,-18.555,23.437,1022.461,-19.65,-18.9,-26.1,14.37
3623,1.41,-0.5,-0.46,-1.953,33.203,1017.578,-18.75,-18.3,-25.65,14.18
3633,0.18,0.43,-1.07,6.836,35.156,1030.273,-19.35,-18.45,-25.05,14.47
3642,0.26,-0.74,0.55,-8.301,23.926,1005.859,-19.35,-18.45,-25.05,14.37
3651,-0.39,0.68,-2.34,-10.742,35.645,1023.926,-18.75,-17.85,-24.9,14.13
3661,0.02,3.49,-0.82,-10.742,34.18,1015.625,-18.15,-19.2,-25.35,14.37
3670,-1.78,-0.17,-2.8,-11.23,17.09,1025.879,-19.35,-18.9,-24.6,14.37
3680,-0.21,-1.53,-1.93,-10.742,32.715,1014.648,-18.75,-18.3,-26.4,14.18
3690,-1.24,-0.2,-1.58,-8.789,29.785,1032.227,-18.75,-18.3,-26.4,14.61
3700,-0.56,1.7,-0.39,-11.23,28.809,1028.809,-20.55,-18,-24.6,14.28
3710,-0.57,-0.82,-0.88,-4.395,20.508,1026.367,-18.75,-18.3,-24.15,14.37
3720,-0.93,-2.18,2.68,-14.16,32.715,1025.391,-18.75,-18.3,-24.15,14.66
3730,-1.78,0.63,-0.79,-15.625,28.32,1014.648,-19.35,-17.7,-25.05,14.47
3740,0.79,2.15,0.26,-11.719,39.063,1026.855,-18.75,-19.05,-24.9,14.37
3749,0.07,0.77,-0.13,-14.16,32.227,1023.437,-18.45,-18.6,-24.45,14.18
3758,0.3,-0.72,0.34,-2.441,35.156,1019.043,-20.25,-19.8,-25.2,14.47
3767,-0.5,-1.38,-0.46,-10.742,42.969,1021.484,-18,-17.85,-26.4,14.47
3777,1.01,-2.05,1.02,-1.465,26.855,1027.344,-19.2,-19.05,-24.45,14.18
3801,0.61,1.58,2.51,-12.207,40.039,1017.09,-19.35,-18,-24.6,14.37
3811,-1.23,-0.82,-1.38,-6.348,30.762,1024.902,-20.1,-19.2,-24.3,14.37
3821,1.34,1.56,0.22,-11.719,18.066,1028.32,-20.85,-18.45,-25.05,14.28
3830,-1.71,-0.38,1.25,-8.789,33.691,1014.16,-20.85,-18.45,-25.05,14.37
3840,1.72,0.15,1.73,-12.695,41.016,1031.738,-19.35,-18.9,-25.05,14.66
3849,-1.43,-0.78,0.15,-6.348,23.926,1034.18,-18.15,-18.9,-25.8,14.13
3859,3.6,0.22,-3.21,5.371,35.645,1016.113,-18.75,-18.3,-25.65,14.61
3868,-0.39,0.55,-1.62,0.977,26.855,1030.762,-19.95,-17.85,-24.15,14.61
3877,0.07,-2.15,1.21,-20.508,19.043,1009.766,-19.95,-17.85,-24.15,14.47
3886,1.79,-1.92,0.32,-16.113,19.531,1026.855,-20.25,-18.3,-24.9,13.84
3895,-0.27,0.27,-0.11,5.371,24.414,1017.578,-18.6,-18.9,-25.05,14.37
3904,0.47,-0.01,0.76,-1.953,38.086,1019.531,-18.6,-18.9,-25.05,14.52
3913,0.73,1.49,-1.65,-4.883,24.414,1023.926,-18.6,-18.9,-25.05,14.37
3922,0.65,0.22,0.73,0.977,20.996,1030.762,-19.5,-18.3,-24.45,14.37
3931,-0.56,-0.56,-1.32,-5.371,27.832,1033.203,-18.9,-18,-23.85,14.52
3941,-1.38,1.17,0.97,-12.207,32.227,1022.949,-19.95,-19.05,-24.9,14.52
3950,-0.96,1.95,2.21,-11.23,23.437,1023.926,-19.95,-18.3,-23.7,14.47
3959,0.51,-1.47,-0.36,-18.066,27.832,1028.32,-20.1,-19.65,-24.3,14.37
3969,0.29,-1.72,1.44,-22.949,31.738,1025.879,-19.2,-18.6,-25.65,14.37
3978,-0.02,0.65,-0.17,-23.437,25.391,1024.414,-19.5,-19.8,-25.2,14.37
3988,-1.45,-0.34,2.54,-6.836,21.484,1022.949,-19.5,-19.8,-25.2,14.61
3998,-0.43,-0.89,0.1,-15.625,29.297,1018.555,-19.2,-18.6,-25.2,14.52
4008,-1.46,0.32,0.75,-6.348,34.18,1028.809,-18.6,-19.65,-25.05,14.37
4017,-1.16,-0.17,0.81,-8.789,31.738,1029.785,-18.6,-19.65,-25.05,14.52
4027,0.37,0.41,1.38,-17.09,25.879,1025.391,-18.75,-17.4,-24.45,14.37
4036,0.5,1.62,-0.46,-17.09,23.437,1008.789,-17.55,-18.6,-24.9,14.37
4045,-0.23,-1.98,-1.73,-16.602,33.691,1012.207,-18.9,-19.2,-24.6,14.08
4055,1.11,-2.1,-0.18,-14.648,26.855,1019.531,-18.9,-19.2,-25.05,14.37
4065,-1.55,-0.24,0.11,-5.859,36.133,1023.437,-18.9,-19.2,-25.05,14.37
4075,0.53,-0.32,1.53,-18.066,26.855,1027.344,-19.35,-18.9,-25.35,14.52
4084,-2.35,0.29,-0.86,-5.371,27.344,1032.227,-19.35,-18.9,-25.35,14.37
4094,0.62,1.09,2.69,-19.531,21.973,1022.461,-19.2,-17.85,-25.95,14.18
4103,-0.93,-0.92,0.65,-2.93,34.668,1026.855,-19.2,-17.85,-25.95,14.8
4113,0.41,1.09,-1.35,-13.672,31.25,1016.113,-20.55,-19.2,-25.35,14.52
4122,-0.32,2.04,-0.38,-10.254,31.25,1020.996,-19.95,-17.4,-24.9,14.18
4132,-1.15,0.76,0.95,-19.531,25.879,1030.273,-19.2,-19.5,-24.9,14.32
4141,0.47,0.02,-0.94,-0.977,34.18,1019.043,-19.5,-18.3,-25.2,14.61
4150,-0.91,0.39,-0.63,-3.906,25.391,1016.113,-19.5,-18.3,-25.2,14.52
4160,1.27,-0.46,2.93,3.906,42.48,1016.113,-18.9,-16.8,-24.6,14.18
4169,-0.34,2.15,0.98,-13.184,38.574,1019.531,-19.65,-18,-25.35,14.85
4178,0.17,-2.05,-1.08,-9.277,36.621,1018.066,-19.65,-18,-25.35,14.52
4188,-1.08,3.21,0.98,-16.602,33.203,1014.16,-19.5,-18.6,-24.15,14.28
4197,-0.58,-2.5,0.32,-14.648,26.855,1025.391,-19.2,-18.3,-25.95,14.52
4207,-0.6,1.78,-0.15,-9.277,9.277,1026.367,-18.75,-17.85,-26.4,14.66
4217,0.5,1.97,-0.69,-18.066,23.926,1026.367,-19.35,-18.45,-25.05,14.61
4226,0.07,-0.03,1.11,-12.207,29.785,1020.02,-18.45,-19.8,-25.2,14.32
4235,-0.32,-0.53,-1.76,-16.113,26.367,1025.879,-18.75,-17.85,-25.2,14.66
4245,-0.96,-2.1,-1.97,-7.812,21.484,1026.855,-19.35,-18.9,-24.3,14.52
4255,-0.92,0.16,0.44,-21.973,25.879,1022.949,-19.35,-18.9,-24.3,14.37
4264,0.26,2.5,0.22,-14.16,24.902,1021.484,-19.35,-18.9,-24.3,14.08
4292,1.37,0.31,-0.48,-8.301,24.414,1019.043,-19.5,-18.3,-25.65,14.66
4301,0.05,0.63,-0.6,-11.23,41.992,1015.625,-20.85,-18,-25.05,14.66
4310,0.8,-0.65,0.82,-13.184,41.504,1019.043,-18.9,-18.45,-24.6,14.61
4319,1.07,0.89,2.56,-7.324,19.531,1022.949,-19.95,-18.3,-25.2,14.13
4328,0.5,-1.34,0.19,-9.277,27.344,1020.996,-18.45,-18.3,-24.9,14.37
4337,-0.53,-0.62,-0.38,-15.625,20.02,1024.414,-18.45,-18.3,-24.9,14.61
4347,-2.08,0.16,-2.35,-0.488,38.574,1039.063,-18.9,-20.1,-25.35,14.66
4357,1.51,0.23,0.65,-11.23,36.133,1010.742,-19.5,-19.8,-24.15,14.18
4366,-1.23,0.8,-0.02,-3.418,29.785,1020.508,-19.5,-19.8,-24.15,14.52
4376,-0.98,-0.04,0.52,-0.977,33.203,1026.367,-19.5,-19.5,-25.95,14.52
4386,-2.81,3.06,0.91,-14.648,27.832,1017.578,-18.75,-18.6,-24.45,14.52
4395,1.37,-1.5,-0.69,-5.859,33.691,1020.508,-19.65,-18.9,-24.45,14.37
4405,-1.96,0.76,1.05,-13.672,30.273,1023.926,-19.35,-16.05,-24.3,14.52
4414,0.45,0.4,3.18,-23.437,19.043,1031.738,-19.35,-16.05,-24.3,14.37
4423,0.34,-1.71,-1.55,-12.207,35.156,1021.484,-18.9,-19.2,-25.35,14.28
4433,0.34,-2.45,0.23,-20.996,13.184,1012.695,-20.25,-18.6,-24.45,14.47
4442,1.53,0.14,-0.44,-10.254,29.785,1020.996,-19.65,-18.45,-24.3,14.52
4451,-1.58,-1.14,1.86,0.977,32.227,1030.273,-19.65,-18.45,-24.3,14.28
4460,0.92,-0.4,-0.23,-22.949,29.297,1017.578,-19.2,-18.6,-24.9,14.47
4470,0.05,-0.05,-1.04,-4.883,39.551,1020.02,-19.2,-17.85,-25.2,14.47
4480,1.41,-0.06,0.81,-16.113,29.785,1020.02,-19.2,-17.85,-25.2,14.52
4489,-0.17,-0.05,-1.85,-19.531,38.574,1030.273,-19.65,-18.45,-25.8,14.18
4499,-0.91,-0.13,0.97,-20.508,29.297,1041.504,-20.25,-18.3,-25.65,14.52
4509,0.93,2.07,-0.74,-6.348,41.504,1024.902,-19.5,-17.85,-25.2,14.61
4518,0.91,-0.01,-0.07,-26.855,35.156,1021.484,-18.6,-18.9,-25.05,14.47
4528,-1.31,-1.24,0.37,-13.672,37.598,1017.578,-18.6,-18.9,-25.05,14.66
4538,-0.04,0.53,-1.32,-22.949,24.414,1009.766,-18.9,-19.2,-24.6,14.28
4548,0.91,-0.08,2.62,-7.324,21.484,1016.113,-20.25,-17.85,-25.65,14.52
4557,-0.95,-0.21,-1.21,-17.09,38.574,1020.996,-20.25,-17.85,-25.65,14.37
4567,0.03,-0.11,0.56,-10.742,35.156,1025.391,-19.35,-18.45,-26.1,14.52
4576,-0.52,-1.64,-1.44,-9.277,31.25,1024.414,-19.65,-19.65,-25.8,14.13
4586,-2.25,-0.34,-0.77,0,31.738,1027.344,-19.35,-17.25,-24.3,14.47
4596,1.37,0.6,2.85,-12.695,27.344,1035.156,-18.45,-19.05,-25.65,14.61
4605,-0.38,0.17,0.98,-8.301,30.273,1021.484,-18.45,-19.05,-25.65,14.52
4614,-1.19,0.34,0.23,-13.184,22.461,1018.555,-18.45,-19.05,-25.65,14.37
4623,-1.08,1.27,-0.96,0,24.414,1024.902,-19.2,-19.05,-25.2,14.37
4632,-0.12,0.1,-0.4,-18.066,24.902,1009.766,-19.2,-19.5,-25.65,14.47
4642,-0.18,-0.85,-1.21,-16.602,38.574,1017.09,-19.2,-19.5,-25.65,14.28
4652,-1.22,0.42,-0.93,-22.461,40.039,1022.461,-19.5,-19.05,-24.15,14.47
4662,-1.24,2.87,0.96,-2.93,34.668,1016.602,-18.45,-18.6,-24.45,14.47
4671,1.61,-3.09,-0.18,-12.695,32.715,1003.906,-19.35,-18.9,-23.85,14.47
4681,-0.86,-0.09,-1.16,-17.09,29.785,1018.066,-19.5,-18.6,-26.4,14.37
4691,-0.15,-2.04,-2.25,-8.301,34.668,1028.32,-18.6,-20.1,-25.05,14.37
4701,0.63,0.18,-0.79,-12.207,33.203,1024.414,-18.9,-19.2,-24.6,14.37
4710,0.37,-2.03,-2.14,-3.418,38.574,1025.879,-18.75,-17.4,-24.9,14.37
4720,-1,-2.12,0.07,-6.348,26.855,1024.414,-18.75,-17.4,-24.9,14.47
4730,-0.01,0.1,-0.87,-7.324,24.902,1030.273,-18.6,-18.45,-23.1,14.32
4740,-0.57,-2.26,-0.1,-12.207,39.551,1017.578,-17.55,-19.05,-24.9,14.52
4750,0.63,-2,-0.52,-2.441,19.531,1027.832,-17.55,-19.05,-24.9,14.52
4760,0.15,-0.38,-0.59,-5.859,37.109,1024.902,-19.35,-17.7,-25.8,14.47
4784,0.53,0.37,1.33,-5.859,31.738,1023.926,-19.35,-16.8,-24.3,14.52
4794,-0.01,0.4,-0.21,-13.184,19.531,1013.672,-18.15,-18,-23.85,14.47
4804,0.54,0.94,-0.5,-10.742,26.855,1010.742,-18.15,-18,-23.85,14.47
4813,1.43,0.64,0.23,-6.836,25.391,1008.789,-18.9,-18.45,-23.85,14.52
4822,0.01,-1.71,0.94,-17.578,24.902,1021.973,-19.95,-17.1,-25.2,14.52
4831,0.58,-0.56,1.05,-17.09,32.715,1023.926,-19.95,-17.1,-25.2,14.47
4840,-1.04,1.42,-3.28,-11.719,30.273,1035.645,-18.75,-18.6,-25.2,14.47
4850,-1.52,-1.71,-2.74,-11.23,30.762,1026.855,-18.9,-17.25,-25.35,14.32
4860,-0.38,-0.31,-0.45,-25.879,30.273,1028.32,-18,-17.85,-24.9,14.61
4870,1.83,-2.07,0.44,-14.648,40.039,1030.762,-17.55,-18.3,-25.2,14.61
4879,0.24,-0.48,-0.37,-21.973,39.063,1015.137,-18.75,-17.1,-24.15,14.18
4889,-1.48,1.05,-2.47,-11.719,31.738,1025.391,-19.95,-18.3,-25.65,14.32
4899,-1.64,0.44,-0.02,-3.906,37.598,1021.973,-20.7,-17.85,-24.9,14.47
4909,0.11,2.2,1.87,-15.137,30.273,1011.23,-20.7,-17.85,-24.9,14.52
4918,1.43,-1.65,-1.76,-16.602,38.086,1010.254,-18.9,-18.9,-25.05,14.37
4928,-1.52,2.6,-0.19,4.883,25.391,1020.02,-18.15,-18.9,-25.05,14.66
4937,-1.49,-0.64,-1.37,-26.367,55.664,995.605,-18.15,-18.9,-25.05,14.47
4947,-0.73,-1.02,0.17,-17.578,31.25,1026.855,-18.9,-19.2,-24.3,14.52
4957,-1.65,-0.31,-0.05,18.555,42.48,1028.32,-18.9,-18,-25.05,14.61
4967,1.49,-0.21,0.76,11.719,48.34,1000.977,-18.15,-17.25,-25.8,14.66
4976,0.5,-1.21,-1.58,9.766,26.367,1033.203,-19.2,-19.05,-24.9,14.37
4985,-1.88,-0.66,1.39,-0.488,29.785,1037.109,-19.2,-19.05,-24.9,14.32
4995,-0.57,-0.52,0.92,-11.23,32.715,1016.113,-19.2,-19.05,-24.9,14.47
5005,-1.57,-0.6,0.1,3.906,29.297,1040.039,-19.2,-18.6,-25.2,14.52
5014,-0.43,-2.18,-2.24,-22.461,35.156,1015.625,-18.9,-19.65,-24.6,14.47
5024,1.37,0.06,1.62,-15.625,31.738,1022.949,-18.9,-19.65,-24.6,14.52
5033,-0.84,1.49,-0.4,-18.555,32.715,1027.832,-19.5,-19.05,-25.2,14.37
5043,-0.26,-1.65,0.76,-14.648,36.621,1017.09,-19.95,-18.3,-24.9,14.52
5053,-1.22,-2.55,-1.35,-16.113,27.832,1010.742,-19.95,-19.5,-24.9,14.37
5063,1.02,1.59,-0.4,-12.207,31.25,1015.137,-19.5,-18.6,-24.15,14.52
5072,0.18,-0.05,-2.22,-19.531,44.434,1013.672,-19.5,-18.6,-24.15,14.52
5082,0.22,1.37,0.67,-17.578,35.156,1026.367,-19.2,-17.85,-24.15,14.37
5091,0.1,-0.95,-0.87,-8.301,31.25,1028.32,-20.7,-18.3,-24.45,14.28
5101,-0.48,-1.14,-1.58,-11.719,53.711,1025.391,-20.7,-18.3,-24.45,14.52
5111,-0.37,0.83,-0.33,7.812,46.387,1034.18,-19.5,-18.3,-24.9,14.37
5120,-0.38,-0.47,-0.67,-5.859,45.898,1033.691,-18.75,-18.3,-25.65,14.61
5130,-0.95,-0.11,0.61,-2.93,47.363,1032.227,-20.25,-18.6,-25.65,14.47
5140,0.38,2.28,1.23,2.93,37.598,1017.09,-20.1,-18.45,-24.6,14.47
5149,0.34,0.31,-1.05,-13.672,35.156,1026.855,-18.45,-17.4,-25.2,14.66
5158,-0.24,0.56,-2.05,-6.348,36.133,1020.02,-18.9,-18,-25.35,14.66
5168,2.05,-0.91,0.13,-12.207,17.578,1018.555,-20.1,-18.45,-24.6,14.37
5177,0.66,0.82,-0.48,-19.531,23.437,1037.109,-20.1,-18.45,-24.6,14.66
5186,1.15,1.06,0.99,-9.766,10.742,1023.926,-19.2,-18.3,-25.2,14.52
5195,-1.66,1.47,-2.34,-13.184,16.602,1037.109,-19.2,-18.3,-25.2,14.32
5205,2.65,-1.03,0.85,-6.836,23.437,1027.344,-19.65,-18,-25.35,14.37
5214,-0.56,-0.9,1.77,-20.508,23.437,1025.879,-19.65,-18,-25.35,14.61
5224,-0.05,1.18,0.45,-10.254,14.648,1031.25,-18.9,-18,-26.1,14.66
5233,-0.86,3.08,-0.7,-10.742,31.738,1023.437,-19.2,-17.4,-24.45,14.61
5243,0.41,0.46,3.75,-13.672,40.039,1019.531,-19.65,-18,-25.35,14.52
5252,-0.34,2.76,-0.91,-14.16,31.738,1018.066,-19.35,-18.45,-24.3,14.61
5277,-0.04,1.56,-1.75,-5.859,40.039,1030.273,-19.5,-19.05,-25.2,14.61
5286,0.47,-1.15,-0.35,-4.883,28.809,1026.855,-19.5,-19.05,-25.2,14.52
5296,-0.9,1.81,3.25,0.488,33.691,1021.484,-19.95,-18.6,-25.2,14.66
5305,0.95,0.95,-0.76,-4.883,30.273,1026.855,-19.95,-18.6,-25.2,14.18
5314,-1.9,1.41,-2.62,-8.301,35.156,1034.668,-19.95,-19.5,-24.9,14.37
5324,0.49,3.5,-0.46,0,27.344,1028.32,-19.35,-18.45,-25.05,14.66
5333,-0.1,-2.48,-0.59,-6.836,31.25,1013.184,-20.25,-17.85,-25.65,14.37
5343,0.72,-2.84,-0.36,-6.348,27.832,1028.809,-18,-18.6,-24.45,14.37
5353,-1.29,-0.5,0.4,3.906,26.855,1022.461,-19.2,-18.3,-25.2,14.32
5362,-1.58,-0.93,-1.53,-2.93,35.156,1015.625,-19.65,-18.9,-24.6,14.37
5372,-0.05,-2.21,-0.07,-14.16,29.297,1000.488,-19.65,-18.9,-24.6,14.52
5382,0.27,-0.33,0.65,-11.23,26.855,1030.273,-18.6,-18.45,-25.05,14.37
5391,0.17,-1.6,0.58,-13.672,23.437,1014.16,-18.6,-18.45,-24.6,14.66
5400,-0.69,-0.44,-1.68,-10.742,27.832,1020.996,-20.1,-18,-24.3,14.66
5410,1.69,0.6,0.78,-2.93,28.32,1032.227,-18.9,-17.7,-26.1,14.37
5419,-1.55,-0.19,0.78,-5.371,27.832,1030.273,-19.5,-18.3,-24.9,14.61
5429,-1.11,2.69,-0.96,-16.602,23.437,1013.184,-18.75,-18.3,-24.9,14.61
5439,-1.21,2.86,-1.98,-12.695,32.715,1030.273,-19.35,-18.9,-25.05,14.61
5449,-0.01,1.95,-3.18,-17.578,27.832,1022.949,-19.35,-18.9,-25.05,14.61
5459,2.31,-1.74,1.66,-18.555,39.551,1025.879,-18.75,-17.4,-25.2,14.61
5468,0.19,0.79,-0.9,-15.137,35.645,1021.973,-19.2,-19.05,-24.9,14.47
5477,3.06,-1.45,-0.53,-13.184,39.063,1015.625,-19.2,-19.05,-24.9,14.32
5487,0.75,0.97,0.88,-9.766,47.852,1025.879,-19.65,-17.7,-25.05,14.61
5496,-0.08,-0.76,-1.08,-20.02,28.32,1021.973,-19.95,-17.4,-25.65,14.37
5506,-0.88,0.18,2.5,-5.859,22.461,1005.859,-18.75,-19.5,-25.65,14.66
5515,-0.12,-1.56,-1.17,-4.883,47.363,1017.09,-18.75,-19.5,-25.2,14.47
5525,-0.39,1.55,1.3,-16.602,25.879,1028.32,-19.5,-18.6,-25.2,14.52
5534,0.64,-0.86,0.34,-23.926,28.809,1032.227,-19.5,-18.6,-25.2,14.52
5543,-0.6,0.92,1.12,-10.742,20.996,1020.996,-19.65,-18.45,-25.8,14.52
5552,-0.33,-2.24,-0.61,-7.324,34.668,1021.484,-19.35,-18,-25.8,14.28
5562,1.31,-1.27,0.68,-19.043,32.715,1025.879,-19.35,-18,-25.8,14.08
5571,-1.13,1.7,-1.54,10.742,31.25,1026.367,-18.15,-19.65,-23.1,14.47
5580,-0.61,-0.76,1.18,-5.859,28.32,1027.832,-18.75,-18.6,-24.45,14.66
5590,-0.68,-0.58,-1.31,-18.066,23.926,1022.949,-19.5,-19.05,-24.9,14.37
5600,0.99,0.01,-0.5,-14.16,32.227,1018.066,-19.95,-18.3,-25.65,14.61
5609,1.4,0.39,2.14,-10.254,31.738,1025.879,-20.25,-17.85,-25.2,14.66
5618,-2.79,-0.68,1.69,-0.488,45.41,1028.809,-18,-18.3,-24.15,14.71
5628,-1.69,0.08,-1.73,-1.465,27.344,1017.578,-20.1,-18,-24.6,14.28
5638,0.56,-0.45,-1.81,-11.23,34.668,1017.578,-20.1,-18,-24.6,14.37
5648,0.53,-1.66,-0.47,-11.719,29.785,1018.066,-18.6,-18.9,-23.85,14.66
5658,-0.56,-0.59,-3.14,-6.348,39.551,1000,-18.9,-18.9,-24.3,14.61
5668,-0.69,1.05,-1.91,-2.93,41.504,1008.789,-18.9,-18.9,-24.3,14.47
5678,-0.23,3.19,0.24,18.066,35.156,1013.184,-20.55,-18.45,-24.6,14.37
5687,0.53,1.14,-2.89,13.184,30.762,1031.738,-20.25,-20.25,-24.45,14.47
5696,-0.03,1.26,-0.52,5.371,29.297,1046.875,-20.25,-20.25,-24.45,14.66
5705,-1.12,-3.03,1.37,13.672,41.504,1024.414,-19.65,-18.45,-24.6,14.32
5714,0.26,-1.08,2.15,-4.883,14.16,1006.836,-20.1,-19.65,-25.35,14.85
5723,0.21,-1.67,-0.54,0.977,30.762,1037.598,-20.1,-19.65,-25.35,14.66
5732,-1.05,-0.76,-1.8,2.93,36.133,1029.297,-18.45,-18.6,-24.9,14.32
5742,0.5,-2.8,-0.14,1.465,20.02,1025.391,-19.35,-19.2,-25.35,14.52
5775,0.66,0.29,-1.44,-5.859,33.691,1010.742,-20.55,-19.2,-25.35,14.52
5784,-1.42,-2.15,0.87,-11.719,22.949,1008.789,-19.5,-19.8,-23.7,14.61
5794,-1.28,-1.43,-2.01,-13.184,29.297,1010.742,-20.55,-20.1,-24.6,14.61
5804,-1.59,-0.85,2.49,-3.906,36.133,1026.367,-20.55,-19.2,-25.05,14.32
5814,0.15,1.44,3.87,-2.441,39.063,1026.367,-20.1,-20.1,-25.35,14.37
5823,0.17,0.09,0.24,0,30.273,1034.18,-19.5,-19.8,-24.45,14.37
5832,1.18,-0.56,0.92,4.395,30.273,1023.926,-19.5,-19.8,-24.45,14.37
5841,1.85,0.32,-0.31,-0.488,35.156,1023.926,-18.9,-19.65,-25.8,14.66
5850,0.29,0.73,1.16,7.324,28.809,1022.949,-19.65,-20.4,-25.8,14.52
5859,-1.03,-0.54,-0.05,3.418,29.785,1023.926,-19.65,-20.4,-25.8,14.66
5869,-0.77,0.25,-1.44,5.371,28.809,1024.902,-20.25,-20.25,-24.15,14.28
5878,-0.86,-0.11,-2.82,30.273,33.203,1032.715,-20.55,-20.1,-24.6,14.61
5888,0.3,-0.01,-2.47,13.184,18.555,1026.855,-19.2,-18.6,-25.2,14.47
5897,-3.03,-0.4,1.7,14.16,26.855,1024.902,-19.95,-19.8,-24.15,14.52
5906,0.47,-2.84,-1.37,7.812,36.621,1022.949,-19.95,-19.8,-24.15,14.66
5915,0,-0.73,-2.66,11.719,28.809,1019.531,-19.95,-19.8,-24.15,14.52
5924,-0.98,-0.32,-1.44,8.301,25.391,1022.949,-18.45,-20.7,-24.9,14.52
5934,-1.94,0.73,-0.68,17.09,16.602,1020.996,-19.5,-19.8,-24.45,14.37
5943,-0.97,0.02,0.85,16.113,16.602,1026.855,-19.5,-19.8,-24.45,14.47
5952,-1.79,0.81,-2.15,15.137,37.109,1019.531,-19.35,-19.65,-24.3,14.37
5961,0.57,-1.5,-0.16,10.254,32.715,1022.461,-18.9,-19.65,-25.05,14.52
5970,0.01,0.15,-1.03,9.766,34.668,1019.531,-20.7,-18.6,-25.65,14.61
5979,-0.34,-1.26,-0.02,18.555,29.785,1026.367,-19.95,-19.8,-24.9,14.52
5989,-1.44,-0.52,1.22,27.344,32.227,1026.367,-19.95,-19.8,-24.9,14.66
5998,0.37,-0.63,-1.41,24.414,21.484,1009.766,-19.2,-19.05,-24.45,14.61
6007,0.35,0.43,-3.33,26.855,36.621,1015.625,-19.5,-19.8,-24.45,14.47
6016,0.69,1.33,-1.35,14.16,38.086,1019.531,-19.5,-19.8,-24.45,14.52
6025,0.11,-0.47,0.26,9.766,38.086,1024.414,-19.5,-19.8,-24.45,14.85
6034,-1.29,0.03,2.16,14.648,32.227,1029.297,-18.9,-20.1,-26.1,14.37
6043,-2.71,2.43,-0.07,10.742,19.531,1016.602,-19.65,-18.9,-26.1,14.52
6052,-2.31,-3.53,-1.63,17.09,28.32,1036.133,-18.9,-17.25,-25.8,14.61
6062,0.63,-1.44,-2.17,22.949,41.016,1008.789,-18.15,-17.7,-25.8,14.61
6071,0.93,-1.16,-1.1,13.672,36.133,1017.09,-19.35,-18.45,-25.8,14.66
6080,-1.78,-1.27,0.81,35.645,34.18,1041.016,-19.5,-18.6,-25.65,14.52
6089,0.31,-1.15,-0.44,47.852,3.906,1025.391,-20.25,-18.3,-27.15,14.66
6098,0.04,-0.66,0.31,43.457,15.625,1027.344,-20.25,-18.3,-27.15,14.66
6107,0.03,2.5,-2.41,46.875,38.086,1019.531,-20.25,-17.1,-26.4,14.47
6116,0.08,1.9,-0.62,55.176,15.625,1030.762,-20.25,-17.1,-26.4,14.47
6125,-0.37,1.94,-0.88,50.293,34.18,1017.09,-21,-17.85,-24.9,14.71
6134,1.53,2.05,-0.93,59.57,40.039,1033.691,-21,-17.85,-24.9,14.66
6143,-1.08,0.56,1.5,51.758,8.789,1011.719,-20.1,-18.45,-26.55,14.52
6152,-0.1,1.81,0.32,43.457,32.715,1031.738,-21.45,-18.3,-25.65,14.52
6161,2.32,-0.5,-1.8,32.227,9.277,1027.832,-21.6,-17.7,-25.35,14.52
6170,1.14,-0.03,-2.78,14.16,20.508,1027.832,-21.45,-17.4,-25.65,14.66
6179,-0.58,1.02,-0.76,19.531,14.16,1037.598,-21.45,-17.4,-25.65,14.66
6188,-0.85,0.86,-0.53,14.16,11.719,1019.043,-21.6,-18,-25.05,14.52
6197,0.11,1.16,-0.17,9.277,20.508,1040.039,-20.25,-19.8,-26.7,14.71
6206,-1.42,1.05,2.09,9.277,43.945,1034.18,-20.25,-19.8,-26.7,14.85
6215,-0.18,0.72,-0.68,69.824,11.719,993.652,-20.25,-19.8,-26.7,14.47
6224,-1.56,1.84,-2,6.348,43.945,1019.531,-19.35,-19.65,-23.85,14.52
6249,-1,3.08,1.85,32.715,33.203,1008.789,-19.65,-18,-24.6,14.66
6259,-0.43,-1.05,-2.56,9.277,39.063,993.164,-20.85,-19.65,-24.6,14.61
6269,0.18,0.12,-0.87,11.719,49.316,992.676,-20.7,-19.5,-24.9,14.37
6278,-1.26,2.27,-1.49,-0.977,52.246,980.957,-20.85,-18.9,-25.05,14.61
6288,1.08,0.59,0.93,-13.184,20.508,977.539,-20.85,-18.9,-25.05,14.66
6297,0.63,1.82,1.07,-10.742,26.367,1045.898,-19.95,-19.5,-24.45,14.37
6306,-0.67,0.73,-0.82,-13.672,27.832,1049.805,-19.95,-19.5,-24.45,14.37
6316,0.08,0.66,-0.03,-11.23,16.113,1038.574,-19.65,-19.2,-24.6,14.66
6325,-0.13,0.3,-1.49,-6.348,20.508,1064.941,-19.65,-19.2,-24.6,14.47
6335,-0.11,0.08,0.96,20.996,32.227,1062.012,-18.6,-18.45,-24.3,14.28
6344,1.52,-2.77,-1.75,32.715,21.973,1025.879,-18.6,-18.45,-24.6,14.66
6353,1.46,-0.79,-1.03,31.738,17.578,1031.25,-19.65,-16.8,-23.55,14.66
6362,0.49,-0.72,-2.27,76.66,30.273,990.234,-18,-18.3,-23.25,14.52
6371,0.56,0.12,-0.22,103.027,2.93,1017.09,-18,-18.3,-23.25,14.71
6380,1.24,-2.78,-0.2,36.621,35.156,1034.668,-18.6,-18.9,-23.55,14.85
6389,-0.15,-3.11,0.19,56.152,16.113,995.605,-18.45,-18.6,-22.95,14.61
6398,-0.2,0.26,-0.28,12.207,42.48,977.051,-18.45,-18.6,-22.95,14.47
6407,-1.63,3.21,-0.5,-22.461,45.41,999.512,-19.95,-20.25,-24.15,14.66
6417,0.01,1.87,-1.62,15.625,52.246,1062.5,-18.75,-19.8,-22.5,14.52
6426,0.88,1.02,1.05,95.703,34.18,979.004,-18.75,-19.8,-22.5,14.66
6435,1.37,0.21,1.69,51.27,54.688,1050.781,-18.6,-20.4,-22.35,14.52
6444,-1.25,-1.09,-1.22,104.98,5.859,1030.762,-17.4,-19.65,-24.3,14.47
6454,0.76,-1.6,0.69,89.355,24.414,1019.043,-17.4,-19.65,-24.3,14.52
6463,-0.79,-3.71,-0.3,32.715,35.645,1040.527,-17.1,-18.9,-23.1,14.37
6473,-0.44,-0.79,2.14,57.129,15.625,1023.926,-17.4,-18.9,-22.35,14.66
6482,-2.4,-1.23,-1.6,16.602,45.41,1022.949,-17.4,-18.9,-22.35,14.85
6492,-0.83,-0.57,1.73,70.313,26.855,1022.949,-16.65,-18.9,-25.05,14.52
6501,-1.08,-1.63,-3.6,64.453,26.367,1018.066,-18,-19.05,-23.25,14.61
6511,-2.44,-2.08,-1.21,113.281,12.695,1041.016,-17.55,-18.6,-23.7,14.66
6521,-1.89,-0.63,-2.06,77.637,34.18,973.145,-18.45,-17.85,-23.7,14.37
6531,1.89,-0.38,1.93,56.152,21.484,1066.406,-18.45,-18.6,-24.45,14.71
6540,-0.9,-1.24,-0.84,47.363,22.949,962.402,-18.75,-19.8,-23.25,14.71
6550,-1.77,-0.69,-1.07,39.063,19.043,1071.777,-19.5,-19.05,-24.45,14.61
6560,0.99,-1.72,-2.08,62.5,29.297,959.473,-19.5,-19.05,-24.45,14.52
6569,0.28,-3.56,-1.49,66.406,15.137,1079.59,-18.75,-19.05,-25.65,14.61
6578,-2.18,-1.79,-1.34,127.93,13.184,1006.836,-20.7,-18.3,-25.2,14.66
6588,1.98,1.97,-1.04,16.602,53.223,1096.191,-20.7,-18.3,-25.2,14.61
6597,-0.11,-3.62,-1.77,58.105,38.574,995.117,-20.1,-18.45,-26.55,14.52
6607,0.26,0.6,-2.94,48.34,23.926,1049.316,-20.55,-16.8,-25.8,14.8
6616,1.24,-1.98,-1.69,63.477,36.621,991.699,-20.55,-16.8,-25.8,14.66
6625,4.28,-1.01,0.17,148.926,7.812,1018.066,-20.7,-17.4,-25.2,14.37
6634,1.69,1.4,-3.18,71.289,12.695,1048.34,-20.55,-18,-25.8,14.47
6643,0.55,-0.27,-1.02,23.926,-8.301,1038.086,-20.55,-18,-25.8,14.52
6653,-1.68,1.17,-0.64,18.066,35.156,1003.418,-21.45,-18.6,-25.2,14.28
6662,0.31,0.18,0.15,101.074,18.555,1040.527,-21.6,-18.9,-25.35,14.8
6671,0.27,-3.08,-0.48,131.348,56.641,1003.906,-21.6,-18.9,-25.35,14.66
6680,0.35,0.54,-2.96,87.402,8.789,984.863,-21.9,-19.8,-25.2,14.37
6689,0.85,1.03,-2.51,27.832,57.617,1035.156,-20.7,-19.05,-23.25,14.66
6698,1.51,-0.6,1.19,17.09,8.789,1002.93,-20.7,-18.6,-24.15,14.61
6707,0.6,-0.74,2.68,85.449,8.301,983.398,-19.5,-17.4,-24.15,14.47
6730,-0.76,1.31,0.92,33.691,8.789,1030.273,-17.55,-19.05,-22.2,14.52
6740,2.41,-1.4,-0.68,37.109,34.668,1081.055,-18,-19.8,-22.95,14.37
6749,1.12,-0.54,-0.95,119.629,30.273,982.422,-18,-19.8,-22.95,14.52
6758,-0.66,-1.82,-5.27,165.527,16.113,1056.641,-17.25,-19.5,-20.7,14.71
6768,1.69,0.83,-1.06,7.812,44.434,1017.578,-17.85,-19.65,-22.35,14.37
6777,1.04,0.84,-1.82,7.324,3.906,1082.52,-17.85,-19.65,-22.35,14.71
6786,-0.56,0.27,-3.93,127.441,24.902,1007.812,-17.4,-18.9,-22.35,14.66
6795,-0.42,1.89,-1.64,169.434,-55.176,983.398,-17.85,-18.45,-22.35,14.37
6805,0.73,-0.6,-3.52,-24.414,44.434,1035.645,-19.2,-18.6,-23.7,14.8
6815,-0.27,-0.75,-2.16,65.918,-7.812,1107.422,-18.6,-19.65,-24.3,14.8
6825,1.2,-2.87,-3.11,177.734,30.273,1034.18,-19.35,-18,-24.6,14.66
6834,-0.95,2.6,-4.75,114.746,20.508,962.402,-19.35,-18,-24.6,14.66
6843,0.51,1.84,-3.97,-27.832,19.531,1032.715,-19.35,-18,-26.55,14.37
6852,0.34,-0.03,-2.88,133.789,6.836,1077.637,-21,-17.85,-25.95,14.61
6861,0.08,1.61,-3.56,235.352,-21.484,1041.016,-21,-17.85,-25.95,14.52
6870,2.08,-1.68,-2,29.297,3.906,1000.488,-21.9,-17.4,-27.15,14.52
6879,2.43,-2.02,-5.21,53.711,-24.414,1169.922,-22.65,-19.05,-25.2,14.32
6889,-1.73,0.2,-5.05,189.453,64.453,1009.766,-21,-19.5,-24.15,14.66
6898,-0.4,-3.64,-3.89,38.574,-24.902,1018.066,-21.3,-18.45,-24.6,14.66
6908,2.6,-2.94,-2.92,-19.043,36.133,1063.965,-21.3,-18.45,-24.6,14.47
6918,-0.44,-0.81,-6.57,199.219,26.367,907.715,-20.7,-17.85,-21.75,14.66
6928,1.7,-0.99,-2.93,-41.016,-26.855,1043.457,-19.5,-18.6,-21.75,14.66
6938,0.81,-3.02,-0.85,7.812,27.832,1067.383,-19.5,-18.6,-21.75,14.37
6947,-1.08,-4.15,-3.05,228.516,58.105,1028.809,-19.5,-18.6,-21.75,14.61
6957,-1.28,-0.66,-2.5,-57.617,11.23,1121.094,-16.8,-19.05,-21.75,14.71
6967,0.73,-3.77,-3.95,3.906,-17.578,1154.785,-16.8,-19.05,-21.75,14.66
6977,-1.85,-0.69,-5.83,215.82,25.879,810.547,-17.85,-18,-22.35,14.52
6987,2.54,0.78,-5.69,-35.156,79.102,1248.535,-19.2,-19.5,-23.25,14.52
6996,-1.08,-2.16,-3.5,169.434,35.156,953.613,-19.2,-19.5,-23.25,14.66
7006,-2.11,-1.77,-6.8,106.445,82.52,958.008,-20.7,-18.6,-25.65,14.85
7016,-0.67,-1.89,-5.57,73.73,-21.484,1087.402,-21.45,-17.85,-27.15,14.52
7026,2.28,0.21,-7.56,253.906,-93.262,904.297,-21.45,-17.85,-27.15,14.61
7035,1.08,-2.18,-3.62,2.93,36.621,1086.914,-22.8,-18.45,-27.3,14.61
7044,-0.07,1.98,-8.24,137.207,66.406,1187.988,-23.7,-19.8,-25.65,14.66
7053,0.95,-1.9,-3.39,211.426,-20.508,823.242,-21.9,-18.6,-25.2,14.18
7063,-1.85,-2.61,-6.64,-30.762,-27.832,1347.656,-20.85,-19.2,-21.3,14.37
7073,0.3,1.35,-2.14,211.914,-9.277,646.973,-19.95,-19.05,-22.5,14.52
7082,1.61,-0.33,-3.47,25.391,29.785,1132.813,-18.15,-19.65,-20.85,14.47
7091,2.1,-4.4,-4.59,131.348,33.203,1207.52,-17.25,-18.6,-21,14.52
7100,-2.08,-3.54,-4.96,-8.301,-46.387,768.066,-17.25,-18.6,-21,14.85
7110,0.61,-1.02,-3.11,87.402,-41.504,1414.551,-17.1,-18.45,-22.35,14.66
7120,5.21,-0.58,-7.21,254.395,-14.16,699.707,-19.95,-17.1,-23.7,14.61
7130,-0.2,1.66,-4.81,42.969,-53.223,1243.652,-19.95,-17.1,-23.7,14.66
7140,2.02,-0.18,-5.5,206.055,99.121,816.406,-23.4,-17.4,-25.95,14.47
7149,0.89,0.07,-5.2,-36.133,10.254,1245.605,-23.55,-18,-26.1,14.71
7158,-1.53,-0.53,-5.05,134.277,27.344,931.641,-22.65,-18.3,-26.4,14.66
7168,-1.37,2.26,-4.3,-33.691,-13.184,1106.934,-23.7,-18.6,-25.2,14.13
7178,1.85,-2.08,-7.79,179.687,108.398,873.535,-23.7,-18.6,-25.2,14.52
7187,1.53,-0.23,-4.98,37.109,122.07,951.66,-23.7,-18.6,-25.2,14.61
7196,0.67,-1.08,-3.39,21.973,-44.922,1322.754,-19.5,-19.05,-23.25,14.71
7221,1.05,-2.34,-4.73,116.211,34.18,729.492,-18.45,-17.1,-22.2,14.61
7230,2.95,-0.94,-6.64,112.305,-45.41,1292.969,-18.45,-16.65,-23.7,14.61
7240,-2.7,0.55,-4.13,48.34,64.941,934.57,-20.55,-18.45,-24.6,14.66
7249,-0.55,-1.89,-5.76,165.039,-158.203,1240.234,-20.85,-17.7,-26.85,14.66
7259,-0.93,-0.08,-4.7,44.922,25.879,973.633,-22.65,-16.65,-26.4,14.71
7269,-2.39,-3.33,-5.12,58.594,27.832,1091.309,-24.15,-17.85,-27.15,14.8
7279,3.23,-1.41,-5.66,101.563,-3.418,1110.84,-22.8,-18.9,-25.8,14.52
7289,-0.69,-1.87,-6.62,122.559,50.293,855.469,-22.8,-18.9,-25.8,14.8
7299,-0.82,3.68,-6.27,147.461,-40.039,1257.324,-20.55,-18,-22.8,14.61
7309,2.78,-2.07,-9.92,203.125,-68.359,747.07,-18.45,-17.4,-22.5,14.66
7319,-0.03,0.79,-6.19,113.77,-190.918,1125.488,-18.45,-17.4,-22.5,14.61
7329,0.47,-2.55,-6.34,125,71.777,983.398,-19.5,-17.4,-24.45,14.61
7338,-3.35,-0.67,-9.14,-11.719,41.016,950.684,-19.35,-17.25,-23.85,14.61
7348,-1.76,-0.78,-5.6,184.082,-24.414,1106.934,-22.2,-16.65,-26.7,14.52
7358,-0.32,-1.52,-6.76,49.316,104.98,906.25,-22.2,-16.2,-27.45,14.85
7368,0.7,-1.6,-4.31,123.047,-85.449,1184.57,-22.2,-16.2,-27.45,14.71
7378,5.24,-1.89,-4.85,205.566,118.164,842.285,-22.2,-17.1,-24.9,14.52
7387,0.44,0.79,-5.69,110.352,23.926,864.746,-22.2,-17.1,-24.9,14.28
7396,0.96,-1.37,-7.79,104.492,-59.082,1096.191,-20.7,-18.3,-22.5,14.8
7406,-1.92,-1.39,-5.38,262.207,45.898,903.809,-20.7,-18.3,-22.5,14.71
7416,0.44,-3.06,-6.18,67.383,-9.277,1118.652,-17.55,-17.85,-21.75,14.71
7426,-4.84,-1.19,-9.99,120.605,28.32,958.008,-18.75,-18.3,-24.15,14.37
7436,-0.68,-2.71,-3.3,110.352,68.359,1202.637,-20.1,-18.45,-26.1,14.47
7446,0.27,-2.97,-8.71,130.371,120.117,1059.57,-22.65,-16.2,-26.7,14.52
7455,1.36,-0.92,-7.36,122.07,-17.09,1034.18,-24,-16.5,-27.6,14.66
7465,1.07,-1.5,-9.2,137.207,7.324,1184.082,-22.95,-17.85,-26.4,14.52
7474,-1.87,-2.31,-7.07,133.301,16.113,937.012,-20.7,-17.4,-23.7,14.18
7484,-0.05,-2.45,-8.57,-53.711,-58.594,1084.473,-20.7,-17.4,-23.7,14.52
7494,-0.18,-2.25,-5.63,229.98,11.719,986.816,-18.15,-18.9,-21.3,14.52
7504,-0.2,-5.12,-7.86,86.914,73.242,1069.824,-18.45,-16.65,-24.15,14.8
7514,0.69,-1.14,-10.31,104.004,-5.371,1144.531,-20.55,-16.5,-25.05,14.37
7524,-0.47,-0.59,-6.85,96.68,-87.402,924.316,-22.2,-17.1,-26.7,14.47
7534,-5.39,-0.11,-9.82,138.672,95.215,849.121,-24.75,-15.3,-26.1,14.66
7544,-1.33,-1.66,-6.58,197.754,65.43,886.719,-25.05,-17.25,-25.8,14.66
7554,0.3,-3.02,-8.22,39.551,34.18,1052.246,-21.45,-17.4,-23.7,14.71
7563,-2.46,-1.18,-8.31,101.563,51.27,1126.953,-21.45,-17.4,-23.7,14.66
7573,-1.27,1.5,-8.25,203.125,46.875,936.523,-17.85,-16.8,-22.35,14.52
7582,-0.77,-0.12,-7.9,80.566,-65.43,901.855,-19.35,-17.25,-23.1,14.66
7592,0.27,-0.92,-9.41,191.406,-53.223,931.152,-19.35,-17.25,-23.1,14.8
7602,-4.67,-1.89,-9.23,186.035,60.059,1113.77,-22.95,-16.2,-26.7,14.66
7612,-3.63,1.97,-6.87,90.332,-42.969,1073.73,-23.7,-17.1,-26.7,14.71
7622,-7.63,2.62,-10.21,-56.641,17.09,1032.227,-22.35,-18.45,-25.05,14.47
7632,-4.34,3.83,-10.11,181.152,-40.527,1072.754,-19.2,-17.4,-21.45,14.52
7642,-2.11,0.45,-8,143.555,14.16,1012.695,-19.2,-17.4,-21.45,14.85
7651,-2.56,-1.15,-9.97,180.176,-47.363,1078.613,-19.2,-16.2,-24.9,14.85
7661,-3.11,0.91,-7.84,170.898,-35.645,1058.594,-21.45,-15.9,-27.45,14.37
7671,-3.56,-0.63,-7.82,159.18,-10.254,1172.852,-21.45,-15.9,-27.45,14.32
7681,-2.52,1.07,-9.16,207.52,24.902,1085.938,-24.15,-17.1,-27.15,14.8
7690,-5.79,-0.19,-11.85,185.059,67.383,938.477,-21.6,-17.7,-23.55,14.66
7700,-3.14,0.33,-9.15,201.66,5.371,1017.09,-19.5,-18.3,-22.95,14.52
7726,-0.03,-1.32,-10.75,64.941,-60.059,1108.887,-19.35,-16.5,-25.05,14.85
7735,-2.89,1.12,-10.53,350.586,-105.957,1095.703,-22.35,-16.5,-27.3,14.71
7745,-3.89,1.86,-12.34,148.437,-38.086,991.211,-23.7,-16.2,-27.15,14.52
7755,-5.12,0.19,-12.23,30.273,14.648,1025.391,-23.7,-16.2,-27.15,14.71
7764,-3.92,-1.27,-10.21,96.68,-1.465,881.836,-19.35,-18,-22.8,14.99
7774,1.21,-1.15,-10.02,194.336,120.605,903.809,-17.85,-17.25,-21.6,14.71
7783,6.18,-2.98,-8.02,246.582,36.621,1159.18,-17.85,-17.25,-21.6,14.66
7792,4.05,-4.12,-7.6,345.215,-111.328,1063.477,-23.4,-15,-25.95,14.52
7802,1.68,-4.72,-6.41,150.879,-85.449,856.445,-23.4,-15.9,-26.7,14.61
7812,-1.69,-1.26,-7.15,232.91,-159.18,900.879,-22.35,-17.7,-25.05,14.61
7822,1.1,-4.75,-10.15,151.855,-251.465,1045.898,-19.35,-18.45,-20.85,14.61
7832,-1.23,-3.37,-7.85,26.367,-98.633,958.496,-19.35,-18.45,-20.85,14.66
7842,1.47,-1.63,-8.24,131.836,-68.848,1023.926,-19.65,-15.6,-25.05,14.71
7852,-1.17,-4.5,-6.85,226.562,-52.734,1381.348,-24,-15.6,-27.6,14.52
7862,-0.05,-2.15,-9.85,79.59,21.484,1181.152,-24,-15.6,-27.6,14.66
7872,6.94,-5.37,-7.4,148.437,72.266,1207.52,-20.85,-18,-22.8,14.9
7881,4.1,-1.56,-7.4,142.09,195.312,1255.859,-18.15,-17.7,-21.3,14.66
7890,7.64,-5.24,-7.13,72.754,-116.211,1269.043,-17.4,-15.6,-23.1,14.61
7900,-1.18,-0.34,-11.89,135.742,-191.895,1197.266,-21.9,-16.2,-25.65,14.85
7910,-3.61,0.16,-12.75,264.16,-176.27,1271.484,-21.9,-16.2,-25.65,14.71
7920,-3.01,3.85,-14.06,251.465,-93.75,867.187,-22.05,-17.25,-24.3,14.99
7930,-1.9,3.77,-12.72,122.559,-128.906,1041.016,-19.2,-17.85,-21.75,14.66
7940,-1.5,5.21,-12.82,-35.645,-215.82,978.516,-19.2,-17.85,-21.75,14.37
7950,2.33,1.54,-12.65,47.852,-200.195,1142.09,-20.85,-15.6,-25.35,14.66
7959,0.4,-0.8,-15.76,162.109,-156.25,1143.066,-24.75,-16.05,-26.85,14.47
7969,-0.84,1.21,-13.28,125.488,-182.617,1152.344,-23.25,-16.8,-25.8,14.71
7979,1.28,-3.21,-16.43,177.246,-142.09,1298.34,-19.2,-16.2,-21.75,14.85
7989,1,0.53,-17.93,244.629,-72.754,722.656,-19.35,-16.05,-22.05,14.66
7998,0.69,0.44,-17.92,268.066,10.742,805.176,-19.35,-16.05,-22.05,14.71
8007,2.14,-2.47,-15.55,180.176,-113.281,1087.402,-20.25,-13.8,-25.2,14.61
8017,2.07,0.97,-16.66,40.039,71.777,910.645,-23.25,-14.85,-26.1,14.47
8026,4.33,-4.69,-16.21,147.461,-53.711,1125.977,-23.25,-14.85,-26.1,14.8
8036,0.21,2.64,-13.2,167.969,230.469,782.715,-20.1,-16.5,-23.1,14.8
8045,3.7,-0.84,-15.24,3.418,-65.43,1011.719,-16.65,-16.5,-21.3,14.52
8055,1.2,-2.12,-15.01,249.512,28.32,858.398,-16.65,-16.5,-21.3,14.61
8064,0.87,-2.09,-15,114.258,-108.398,1020.996,-24.75,-14.1,-27.3,14.66
8074,-0.99,2.81,-14,290.039,-122.559,1065.918,-21,-17.4,-24.9,14.71
8084,-1.14,-1.49,-14.05,127.441,-95.215,1272.949,-19.2,-17.4,-21.45,14.52
8094,1.96,4.44,-16.66,57.617,-234.375,842.285,-19.2,-14.7,-23.7,14.66
8103,-2.87,4.29,-17.57,-0.488,111.816,1022.461,-19.2,-14.7,-23.7,14.66
8113,3.69,0.48,-17.37,193.359,-156.25,1277.832,-23.7,-15.9,-27.45,14.66
8122,3.75,-1.32,-16.31,233.398,14.648,1253.418,-21,-15.9,-23.25,14.71
8131,9.03,1.26,-13.98,118.164,-223.145,1148.926,-21,-15.9,-23.25,14.99
8140,-2.75,7.53,-22.51,164.551,-96.68,1020.996,-20.25,-14.25,-25.65,14.66
8150,-3.26,4.35,-19.89,111.816,-96.68,951.172,-24,-14.85,-26.55,14.71
8160,-7.89,-4.41,-18.74,200.195,-87.891,994.629,-22.05,-16.05,-25.35,14.66
8170,-9.05,3.11,-21.25,194.336,-60.059,901.855,-18.6,-16.05,-21.3,14.37
8180,-5.49,-0.96,-23.27,193.359,-103.027,971.191,-18.6,-16.05,-21.3,14.8
8190,1.38,-2.7,-21.66,14.16,-7.324,915.039,-24,-14.4,-26.1,14.8
8200,-2.94,-3.54,-22.93,253.906,-104.98,1100.098,-24.6,-15.45,-25.2,14.71
8225,-4.05,-6.71,-23.19,104.004,-167.969,1088.379,-18.9,-14.85,-22.05,14.85
8234,-4.89,-2.15,-25.79,64.941,-94.238,1050.781,-22.35,-14.1,-26.1,14.61
8244,-5.93,-3.73,-22.73,255.859,-22.949,1124.023,-24.6,-14.7,-25.95,14.66
8254,-8.25,0.62,-23.14,169.434,96.191,1008.301,-20.25,-17.4,-22.95,14.66
8263,-2.04,-2.15,-26.95,149.414,0.488,765.625,-18.6,-14.4,-22.35,14.37
8273,-6.96,-0.98,-25.3,223.633,-115.723,1368.164,-22.05,-14.1,-25.35,14.61
8283,-3.76,2.04,-20.46,126.465,-115.723,1054.199,-24.9,-15,-26.4,14.9
8293,-1.33,-0.04,-20.51,158.203,-219.238,1118.164,-24.9,-15,-26.4,14.66
8303,-2.66,-0.24,-20.95,291.992,-81.543,1037.109,-17.4,-14.85,-22.05,14.52
8313,-1.92,3.2,-23.96,257.324,-201.66,1170.41,-21.45,-14.25,-25.2,14.66
8323,-1.56,3.23,-19.09,315.43,-192.383,563.965,-21.45,-14.25,-25.2,14.52
8333,-5.21,-2.26,-26.39,186.035,-317.871,1192.383,-21,-16.65,-21.75,14.66
8343,-8.16,2.64,-21.65,100.586,-119.629,691.895,-18.6,-16.5,-21.3,14.66
8353,-6.71,-0.3,-22.89,-5.859,-201.172,1486.816,-22.8,-13.2,-26.1,14.8
8363,-1.8,4.39,-21.49,128.418,-76.66,836.914,-22.8,-15.6,-27.3,14.66
8373,-1.51,-1.07,-22.63,157.715,-61.523,1448.73,-22.8,-15.6,-27.3,14.52
8383,-4.12,-2.21,-20.65,-47.852,46.875,914.062,-20.1,-14.4,-22.8,14.85
8393,1.14,-1.05,-21.76,84.961,4.395,1193.848,-22.8,-11.7,-26.85,14.85
8402,-0.84,-2.05,-21.25,122.07,195.801,831.055,-22.8,-11.7,-26.85,14.9
8412,1.66,0.4,-19.04,212.402,-162.598,1428.711,-19.2,-15.9,-20.7,14.52
8421,-3.69,-0.2,-21.2,174.805,129.883,945.312,-19.35,-12.45,-22.35,14.61
8431,-4.72,-0.23,-17.81,329.102,-326.66,955.078,-24.15,-14.25,-27.45,14.66
8441,-4.64,-0.39,-17.29,-166.016,13.184,1445.313,-23.25,-15.3,-23.55,14.85
8451,-4.44,1.81,-18.23,313.477,-108.887,865.234,-23.25,-15.3,-23.55,14.71
8461,2.88,-2.6,-18.9,75.195,-70.801,1379.883,-21,-11.85,-25.65,14.71
8471,0.74,3.25,-20.56,165.527,-113.77,859.863,-23.4,-13.8,-26.4,14.52
8480,6.37,-0.69,-18.18,-9.766,-226.074,940.918,-23.4,-13.8,-26.4,14.9
8490,4.18,-1.05,-19.66,163.086,-325.684,1125.977,-19.35,-13.2,-22.35,14.37
8500,1.76,-0.79,-19.46,185.547,-325.684,1254.883,-23.25,-11.25,-27.6,14.9
8510,4.49,1.59,-24.15,294.434,-90.82,768.066,-22.8,-14.85,-24.6,14.47
8519,1.34,-2.27,-20.42,463.867,-273.926,1118.164,-18.75,-13.5,-21.75,14.71
8529,-5.42,-0.08,-24.31,121.582,-6.348,1082.52,-21.45,-11.1,-25.95,14.61
8539,-5.48,7.1,-21.34,-2.441,142.09,684.57,-23.7,-13.8,-27.45,14.8
8549,1.14,-0.44,-18.1,107.91,-65.43,1034.668,-19.5,-13.8,-23.25,14.8
8559,-1.04,0.84,-24.82,136.23,-120.605,1172.852,-19.5,-13.8,-23.25,14.47
8569,7.21,1.07,-19.85,276.367,-41.016,1134.766,-22.65,-12.75,-28.2,14.8
8578,10.4,-2.29,-22.04,263.184,-97.656,834.473,-22.65,-12.75,-28.2,14.66
8588,9.86,-0.81,-18.6,283.691,-55.664,1088.867,-20.55,-13.65,-24.3,14.61
8598,-0.97,2.09,-21.4,171.875,181.641,961.426,-20.55,-13.65,-24.3,14.66
8607,1.61,0.69,-17.92,-38.086,-9.277,930.176,-22.05,-10.95,-25.8,14.61
8617,-1.29,0.15,-20.61,166.016,-105.957,948.73,-22.95,-14.7,-24.45,14.66
8627,5.53,-5.05,-16.13,384.277,-366.699,1440.43,-18.45,-13.05,-21.45,14.66
8637,3.61,-0.38,-15.94,-49.316,98.633,1219.727,-21,-11.1,-25.95,14.66
8647,-4.57,0.05,-15.83,113.281,-59.082,1042.969,-21,-11.1,-25.95,14.52
8657,3.37,-1.97,-15.63,168.945,-159.18,920.41,-18.9,-13.2,-21.3,14.61
8667,6.84,-2.72,-14.4,244.629,166.992,834.961,-18.45,-11.85,-24.9,14.8
8676,8.47,-2.3,-15.61,122.07,-284.668,1177.246,-18.45,-11.85,-24.9,14.8
8686,4.55,-3.83,-17.62,-122.559,-348.145,1375.488,-20.7,-13.05,-24.45,14.66
8696,-0.48,-1.88,-16.79,251.953,-282.227,1223.633,-19.5,-11.85,-23.25,14.28
8706,-5.84,-0.75,-16.89,22.461,123.047,1062.988,-22.2,-10.65,-27.15,15.04
8731,7.3,-0.22,-16.06,233.398,-333.496,555.176,-20.55,-11.25,-27.6,14.66
8740,-7.21,-0.97,-15.64,-34.18,83.008,1144.531,-22.05,-11.25,-25.05,14.52
8750,-8.79,-1.32,-17.73,129.395,-151.367,1453.125,-22.05,-11.25,-25.05,14.9
8760,5.53,0.71,-18.89,270.508,-113.281,1027.344,-21.45,-10.65,-26.4,14.8
8769,-4.18,0.56,-19.6,79.102,114.258,1019.043,-22.2,-13.5,-24.9,14.61
8778,-4.49,4.79,-20.28,-52.734,58.105,863.281,-22.2,-13.5,-24.9,14.47
8788,5.24,0.2,-17.45,458.008,-458.496,755.859,-19.5,-11.85,-23.25,14.66
8797,2.11,0.11,-17.56,318.848,-313.477,1187.012,-20.7,-10.65,-24.9,14.9
8806,-0.21,4.25,-21.22,-116.699,-25.391,759.766,-22.8,-12.15,-26.1,14.71
8816,-10.7,7.76,-20.53,63.477,-52.246,704.102,-19.95,-10.65,-23.7,14.37
8826,-2.51,7.27,-20.08,-400.391,-234.375,1225.586,-20.25,-9.9,-25.65,14.61
8836,-3.83,-0.51,-23.32,-318.848,207.031,624.512,-20.25,-9.9,-25.65,14.61
8846,0.69,5.08,-28.31,-245.605,-84.961,1468.75,-19.65,-9.75,-26.85,14.9
8856,1.95,1.26,-22.65,2.93,148.926,1002.93,-20.7,-11.1,-25.65,14.66
8865,1.98,3.34,-18.19,64.453,83.984,974.121,-20.7,-11.1,-25.65,14.71
8874,-0.08,2.35,-20.54,-207.52,-163.086,1003.418,-20.55,-9.75,-26.1,14.8
8884,3.02,-1.24,-20.31,97.168,84.473,1436.035,-20.55,-9.75,-25.8,14.71
8893,-7.02,1.28,-19.74,-227.051,115.723,896.484,-20.7,-9.15,-26.4,14.66
8903,1.61,3.98,-15.64,37.598,-333.008,878.906,-20.55,-9.75,-26.55,14.71
8912,-2.11,-1.64,-13.21,-77.148,93.262,1320.313,-20.55,-9.75,-26.55,14.66
8922,-1.76,-0.45,-14.46,-43.945,-159.668,1256.836,-19.95,-9.15,-27.15,14.61
8932,1.26,2.92,-12.3,-318.359,-221.68,1320.801,-19.35,-9.75,-26.85,14.66
8942,0.86,3.3,-16.86,-182.617,166.504,691.406,-19.35,-9.75,-26.85,14.47
8951,4.59,-0.3,-15.9,88.379,158.203,1113.77,-19.35,-9.3,-26.1,14.66
8960,3.31,-0.72,-12.74,-305.176,64.941,711.426,-19.65,-8.1,-26.55,14.66
8970,3.15,-4.37,-14.04,177.734,-129.883,1059.082,-20.25,-8.7,-25.95,14.47
8980,2.44,-3.35,-11.85,-26.367,22.461,692.383,-19.5,-8.25,-26.7,14.66
8990,5.49,-4.56,-14.53,-129.883,-222.168,829.102,-19.5,-8.25,-26.7,14.71
9000,4.63,-6.37,-11.28,1.465,-191.895,833.984,-19.2,-8.25,-27.15,14.71
9010,-1.8,-7.96,-16.96,-95.215,-127.441,1215.332,-18.75,-8.25,-25.65,14.8
9020,0.28,-4.44,-13.25,-148.437,178.711,1116.699,-18.75,-8.25,-25.65,14.71
9030,0.37,1.6,-12.89,-292.969,13.184,1037.598,-20.25,-8.7,-25.95,14.37
9039,3.47,1.5,-14.37,104.492,113.281,986.816,-20.1,-8.55,-25.8,14.8
9048,7.56,-1.12,-13.84,-121.094,-9.277,1159.668,-20.1,-8.55,-25.8,14.66
9058,2.25,0.95,-15.9,91.797,-165.039,935.547,-19.35,-7.65,-25.8,14.8
9067,-2.39,-0.9,-13.85,-39.551,-41.016,1068.848,-19.65,-10.05,-25.35,14.71
9077,-0.6,1.9,-15.61,68.359,-135.254,877.441,-19.5,-8.25,-25.65,14.66
9087,-3.72,1.21,-14.72,9.277,26.855,967.773,-19.2,-8.25,-24.15,14.71
9096,-4.33,-2.18,-16.39,-55.176,-21.973,964.844,-19.5,-8.7,-25.2,14.28
9106,-4.06,-1.7,-14.35,-230.469,178.711,1270.508,-19.5,-8.7,-25.2,14.71
9116,1.21,-4.6,-17.07,-142.09,27.344,1058.594,-18.75,-7.95,-23.7,14.8
9126,-2.33,-5.89,-13.36,-68.359,8.789,1197.266,-19.95,-7.95,-25.2,14.8
9136,-5.53,-3.6,-14.08,-143.066,73.242,1132.813,-19.95,-7.95,-25.2,14.61
9146,0.02,-0.37,-13.44,-107.91,-183.594,835.449,-19.5,-8.7,-25.2,14.66
9156,-1.73,-2.78,-14.75,-34.668,139.648,819.336,-20.1,-6.9,-24.6,14.37
9166,-5.02,-2.06,-14.56,-117.676,-183.594,1054.199,-21.3,-7.65,-24.3,14.71
9176,0.13,-4.02,-16,-65.43,-130.859,1280.273,-20.55,-8.1,-25.05,14.61
9186,0.4,1.5,-15.03,-107.91,34.18,1152.832,-20.55,-8.1,-25.05,14.85
9195,-5.06,-1.51,-13.27,-82.52,89.355,927.734,-21,-8.25,-24.9,14.66
9205,-1.57,1.33,-16.34,-5.859,82.52,926.27,-19.5,-7.95,-26.4,14.52
9231,0.05,0.08,-13.09,-160.645,-125,1053.711,-20.55,-6.9,-25.35,14.8
9240,-5.8,-2.32,-16.04,-21.973,46.387,1276.367,-19.95,-6.75,-27.15,14.8
9250,-5.17,0.86,-13.4,-36.133,111.816,1154.297,-19.35,-7.35,-26.1,14.9
9260,2.2,1.4,-13.92,-85.938,161.133,821.777,-19.35,-7.35,-26.1,14.52
9269,-1.08,-3.44,-14.61,-82.52,16.113,1106.445,-19.35,-7.35,-26.1,14.8
9279,0.05,-1.63,-10.44,-246.094,-172.363,1323.242,-18.9,-7.65,-25.35,14.66
9289,1.05,1.3,-12.83,-148.926,-260.254,1143.555,-20.55,-7.65,-27.6,14.61
9299,-7.09,-0.02,-14.15,-183.594,-19.531,1110.352,-20.55,-7.65,-27.6,14.66
9309,-1.82,-0.78,-19.35,-18.555,67.383,859.863,-19.5,-7.05,-27.15,14.37
9319,6.44,-2.47,-13.11,-8.301,-44.922,713.867,-20.55,-6.15,-26.85,14.71
9329,5.66,-3.53,-13.4,73.73,-36.621,987.793,-19.5,-5.85,-27.45,14.8
9339,3.76,-3.5,-16.89,-82.031,-164.551,1499.023,-18.6,-6.15,-27.3,14.61
9349,-4.37,0.17,-15.06,-229.98,-118.164,1361.816,-19.65,-6.45,-26.85,14.66
9359,-1.99,-2.59,-12.44,100.586,-82.031,1016.602,-19.35,-6.9,-27.6,14.52
9369,2.15,-2.77,-15.21,-121.094,4.883,920.41,-19.35,-6.9,-26.85,14.8
9379,-5.27,-0.79,-16.21,5.371,26.367,964.844,-19.35,-6.9,-26.85,14.8
9389,3.58,-1.61,-12.99,-110.352,-3.418,595.703,-18.45,-6.3,-27.9,14.8
9399,-3.1,-3.06,-17.32,-218.75,323.73,1159.18,-19.65,-6.15,-27.6,14.61
9409,2.42,-3.06,-15.44,257.812,-575.195,867.676,-19.65,-6.15,-27.6,14.85
9419,9.4,-2.8,-12.39,-275.879,-115.234,832.52,-19.35,-6.9,-27.6,14.28
9429,0.05,-1.08,-13.61,-200.195,130.859,1431.641,-17.1,-6.45,-26.85,14.85
9439,6.52,-0.81,-13.16,122.07,-361.328,1144.043,-18.45,-5.85,-27.9,14.8
9449,1.73,1.6,-15.73,3.906,-11.23,841.309,-19.95,-5.55,-28.2,14.66
9458,3.41,1.72,-15.8,24.414,85.449,1014.648,-19.95,-5.55,-28.2,14.61
9467,-0.68,-0.5,-16.76,-53.223,31.738,1079.102,-17.55,-5.85,-26.7,14.71
9477,1.99,6.42,-11.63,108.887,-75.195,691.895,-18.9,-4.95,-28.35,14.66
9486,1.88,0.96,-12.59,-22.949,-27.832,655.762,-18.9,-4.95,-28.35,14.71
9496,-8.46,1.63,-11.92,-124.023,65.43,1128.418,-18.45,-5.85,-25.95,14.66
9506,-6.1,5.58,-14.16,-44.922,32.715,711.426,-18.45,-6.75,-26.7,14.61
9516,0.33,3.3,-13.55,59.082,94.238,747.559,-19.5,-5.1,-25.2,14.85
9525,-0.7,4.42,-11.73,-113.77,-30.762,1087.402,-17.55,-6.75,-26.7,14.8
9535,5.8,1.82,-13.42,-49.316,-186.035,1203.613,-17.55,-6.75,-26.7,14.71
9545,-2.69,4.94,-13,-125,-224.609,1171.875,-19.95,-5.1,-26.4,14.47
9555,-3.74,-1.11,-10.68,-67.871,-203.125,1025.391,-18.45,-6.3,-25.95,14.66
9565,-0.63,-1.79,-9.62,23.926,-273.437,916.016,-18.45,-6.3,-25.95,14.71
9575,-3.6,-2.85,-12.1,41.504,-100.098,1230.957,-18.45,-4.35,-27.9,14.71
9585,-5.6,-3.28,-15.23,-73.73,-8.789,1506.348,-20.7,-5.85,-27.45,14.85
9595,-4.87,-2.18,-16.53,4.395,-105.469,1232.91,-18.9,-5.25,-25.8,14.8
9605,-0.82,-1.16,-17.17,-12.695,158.691,848.145,-18.75,-5.55,-27.45,14.37
9615,3.01,-4.37,-14.92,61.035,22.461,994.629,-17.85,-6.45,-26.85,14.8
9624,1.59,-2.33,-13.77,-61.035,33.203,1063.965,-18.45,-6.3,-25.65,14.61
9634,-0.27,-3.72,-15.56,-75.684,-73.73,1121.094,-17.85,-5.25,-27.3,14.71
9644,-3.21,-1.05,-14.2,2.93,-94.727,1177.246,-17.85,-5.25,-27.3,14.66
9654,-3.56,2.83,-14.47,-83.984,-27.344,982.422,-17.55,-5.1,-26.7,14.66
9664,-2.05,-0.89,-13.85,68.848,-110.84,932.129,-17.85,-5.25,-26.85,14.71
9674,-2.13,2.13,-15.17,147.461,39.063,919.922,-17.85,-5.25,-26.85,14.85
9683,-3.73,-0.33,-14.18,-47.852,-31.25,1072.754,-18.45,-6.75,-26.7,14.71
9693,-0.22,2.49,-13.05,15.137,120.605,756.836,-17.25,-5.55,-26.4,14.61
9702,2.41,-0.18,-14.53,10.742,-57.617,881.836,-18.6,-5.25,-28.05,14.71
9712,0.37,0.31,-12.11,-135.254,-93.262,1088.867,-18.75,-7.5,-26.7,14.85
9737,-0.8,2.88,-16.99,-17.09,-58.105,746.582,-17.1,-5.7,-26.55,14.8
9746,4.36,1.24,-16.76,179.687,-83.496,661.133,-19.5,-6.3,-27.15,14.71
9755,-0.66,0.55,-16.32,-21.484,-11.719,1092.285,-19.5,-6.3,-27.15,14.71
9765,-2.21,2.62,-12.22,-128.906,-136.23,1019.043,-17.55,-4.65,-25.65,14.66
9775,-3.4,2.66,-18.07,-35.156,-29.297,811.523,-19.35,-5.25,-27.3,14.61
9785,-2.44,2.52,-16.1,119.141,30.273,870.605,-17.25,-6.3,-25.2,14.66
9794,-3.02,4.59,-13.87,-18.555,89.844,924.805,-17.25,-4.65,-24.9,14.71
9804,-4.51,2.49,-15.56,-33.203,-8.789,1111.328,-17.25,-4.65,-24.9,14.47
9814,-1.7,6,-17.02,70.313,148.926,1125,-19.2,-5.1,-27.15,14.8
9823,11.82,3.55,-16.12,219.727,3.906,704.59,-17.1,-4.95,-25.35,14.66
9832,6.69,1.5,-12.91,78.613,-43.945,1277.832,-17.1,-4.95,-25.35,14.61
9841,8.3,3.24,-14.08,25.391,-197.266,822.754,-18.45,-6.75,-26.7,14.52
9850,8.25,-2.09,-10.6,200.195,-378.418,755.371,-16.5,-5.1,-25.2,14.71
9860,-1.86,-7.54,-12.05,126.953,-391.113,1023.926,-16.5,-5.1,-25.2,14.61
9870,-8.86,-5.02,-14.39,74.219,-240.234,1087.891,-18.9,-3.3,-26.55,14.85
9880,-12.3,-4.62,-12.56,-1.465,-187.988,1000.488,-18.45,-4.35,-25.65,15.04
9890,-12.09,-1.9,-13.16,21.484,211.914,972.168,-18.45,-4.35,-25.65,14.47
9900,-1.18,-5.75,-16.59,14.648,241.699,1298.34,-18.9,-4.5,-26.55,14.85
9910,3.54,-3.4,-14.98,76.66,139.648,974.609,-18.9,-4.5,-26.55,14.85
9919,11.56,-5.82,-17.59,150.879,-214.355,1050.293,-18.9,-4.5,-26.55,14.85
9929,1.37,1.63,-16.15,-187.5,-122.07,1149.414,-17.1,-2.85,-26.1,14.8
9939,-4.09,0.73,-16.89,20.02,-306.152,1384.766,-18.75,-1.5,-27.45,14.47
9949,-1.64,3.6,-14.48,57.129,-41.992,927.246,-19.95,-3.45,-27.45,14.71
9959,-3.99,0.69,-18.6,21.973,112.305,1068.848,-16.5,-3.9,-25.65,14.66
9968,-1.47,3.37,-15.15,75.684,3.906,1078.125,-19.35,-3.3,-26.55,14.66
9977,-2.5,3.24,-13.34,-53.223,-209.961,1223.145,-18.9,-3.3,-26.55,14.71
9987,1.57,0.26,-14.9,-44.434,-116.211,1322.266,-16.65,-4.05,-25.8,14.9
9997,-2.03,2.47,-15.81,-253.418,-104.492,1064.941,-16.65,-4.05,-25.8,14.66
10007,-1.69,1.54,-16.6,91.797,-135.742,1106.445,-19.35,-3.75,-26.55,14.8
10017,2.65,-2.18,-16.5,126.953,-76.172,824.219,-17.1,-4.05,-24.6,14.8
10027,-1.39,0.02,-19.51,7.324,12.695,1078.125,-17.1,-4.05,-24.6,14.71
10036,-2.95,-1.32,-14.38,-67.871,-124.512,1115.723,-17.4,-2.1,-26.55,14.85
10046,-1.75,-1.12,-14.64,-121.582,-241.211,1207.031,-16.8,-3.9,-25.65,15.04
10056,2.82,0.94,-11.03,113.281,-39.551,934.082,-16.5,-2.7,-24.15,14.71
10065,-0.46,2.46,-21.79,-68.359,81.055,1046.387,-18,-3.15,-27.9,14.61
10075,1.54,1.5,-15.91,76.66,-91.797,819.336,-18,-3.15,-27.9,14.61
10084,1.98,-4.1,-13.57,156.25,-236.328,1184.57,-15.75,-0.75,-25.95,14.8
10094,7.59,-4.72,-13.66,27.344,-152.832,1195.801,-18,-2.25,-27.45,14.61
10104,-4.69,-0.83,-16.59,24.902,-45.41,1539.063,-18,-2.25,-27.45,14.37
10114,0.4,0.76,-15.79,72.266,-153.32,903.809,-15.45,-2.1,-24.6,14.66
10123,3.31,-1.13,-15.41,-114.258,10.742,777.344,-17.55,-2.25,-27.15,14.71
10133,-2.35,-2.39,-5.05,-178.711,58.105,933.105,-16.8,-3.15,-25.65,14.71
10143,4.58,-1.94,-21.06,245.605,-160.645,791.992,-16.05,-3.45,-25.2,14.85
10153,2.14,1.27,-15.89,-8.301,-68.359,907.715,-16.05,-3.45,-25.2,14.8
10163,3.09,-2.33,-15.38,182.617,-290.527,821.289,-17.4,-3.3,-25.8,14.85
10173,7.78,-4.9,-12.07,47.852,-204.102,1073.73,-16.05,-2.7,-24.15,14.61
10183,-7.5,-2.66,-17.4,140.137,26.855,1301.27,-16.05,-2.7,-24.15,14.66
10193,2.69,-3.63,-10.68,144.531,-28.809,1019.043,-17.1,-3.3,-25.8,14.9
10203,0,-5.85,-12.17,62.5,58.594,1180.176,-15.15,-2.85,-23.85,14.85
10212,1.47,-5.05,-11.95,33.203,-70.313,828.125,-17.25,-2.7,-25.95,14.61
10246,-1.62,2.77,-18.79,222.168,-334.961,640.625,-17.85,-1.65,-26.1,14.99
10255,-3.63,3.02,-18.94,-104.98,-90.82,1165.039,-17.4,-2.85,-26.55,14.9
10265,-6.4,2.92,-11.01,-56.152,84.961,1005.859,-17.4,-2.85,-26.55,14.9
10275,-5.53,2.67,-13.74,242.187,-163.086,1331.055,-16.65,-2.1,-26.85,14.71
10285,-6.38,1.69,-14.99,29.297,43.945,1302.734,-17.85,-4.05,-26.1,14.61
10294,1.39,-3.2,-14.82,120.117,-208.496,1275.879,-15.9,-3.75,-25.35,14.9
10304,2.05,3.39,-13.19,-53.223,-60.547,1017.578,-16.2,-2.55,-26.1,14.85
10314,-1.35,0.48,-17.71,26.367,-315.918,1309.082,-17.25,-4.65,-27.15,14.9
10324,-2.64,-1.18,-19.38,-0.488,-200.195,1275.879,-15.9,-2.85,-25.05,14.71
10334,-8.27,-4.82,-16.82,72.754,-116.699,1261.23,-17.1,-2.55,-27.3,14.61
10344,-1.16,-5.73,-19.84,21.973,-93.75,974.609,-17.1,-2.55,-27.3,14.9
10354,-9.55,0.88,-18.09,134.277,-6.836,1161.133,-17.1,-3.3,-25.35,14.66
10364,0.04,-6.17,-19.86,-3.418,-162.598,1270.508,-16.5,-1.95,-27.9,14.85
10374,-4.43,-2.98,-19.31,92.285,-71.777,1075.195,-16.5,-1.95,-27.9,14.71
10384,-1.3,-1.4,-24.34,-275.391,-50.293,1205.566,-14.85,-3.15,-24.45,14.71
10394,0.76,-5.34,-17.18,101.074,-317.383,1257.813,-16.05,-2.25,-27.15,14.66
10404,0.23,-2.87,-22,-58.594,44.434,1423.828,-17.1,-2.1,-26.55,14.8
10414,0.25,-2.91,-19.69,178.711,-235.352,1170.898,-16.05,-2.7,-24.9,14.71
10424,-0.72,0.32,-19.7,-72.754,-140.625,1179.199,-16.05,-2.7,-24.9,14.8
10434,-0.89,-1.18,-15.66,244.629,-248.047,1245.605,-16.5,-1.95,-26.7,14.61
10444,-2.31,-1.31,-19.21,-79.59,11.23,874.023,-15.3,-1.95,-25.65,14.9
10454,2.05,-0.5,-16.97,357.422,-204.102,849.121,-15.3,-1.95,-25.65,14.66
10464,-4.7,1.24,-19.66,-78.613,-130.859,1142.09,-17.55,-1.95,-27.15,14.8
10474,3.17,1.76,-17,-168.457,-336.914,693.359,-15.45,-1.35,-25.05,14.66
10484,3.53,-1.03,-17.61,85.449,-166.016,1319.824,-14.55,-0.75,-26.4,14.66
10494,5.7,-4.04,-18.01,227.051,-30.273,1208.496,-16.65,-2.55,-25.35,14.9
10504,6.15,0.6,-18.87,-30.273,-254.395,983.398,-16.65,-2.55,-25.35,14.8
10514,9.37,4.48,-17.21,64.941,-224.121,763.672,-15.3,0,-26.4,14.52
10523,1.23,-1.45,-17.26,-236.328,-34.18,1022.461,-16.05,-1.5,-25.65,14.8
10533,9.26,-1.54,-19.24,303.223,-335.937,793.945,-16.05,-1.5,-25.65,14.9
10543,6.63,-2.05,-17.25,87.891,-143.555,1055.176,-15.3,-0.75,-27.15,14.85
10553,3.8,2.37,-18.67,-107.422,-118.652,735.352,-15.75,-1.5,-25.65,14.52
10563,0.36,-1,-20.98,232.422,-440.43,826.66,-13.95,-1.35,-25.05,14.85
10573,-12.68,-0.76,-18.44,-242.187,-12.207,1178.711,-15.45,0.15,-25.8,14.9
10583,-2.47,-2.06,-19.92,121.094,-91.797,657.715,-16.2,-2.55,-25.8,14.85
10593,-10.04,-2.59,-18.6,-164.062,46.875,1174.316,-15.3,0,-24.15,14.71
10603,1.72,-0.89,-23.86,-156.25,208.008,1035.156,-16.2,0.9,-25.8,14.66
10612,5.03,-7.47,-16.44,235.84,162.598,1407.227,-16.2,0.9,-25.8,14.71
10621,19.46,-9.89,-18.72,212.891,-157.715,893.066,-13.35,0.3,-24.15,14.8
10630,8.89,-5.85,-19.17,-164.551,-405.273,584.473,-13.35,0.3,-24.15,14.52
10640,-3.33,-1.23,-15.89,323.242,-329.102,785.645,-15.75,-0.75,-26.4,14.66
10650,-7.26,-2.72,-19.63,-51.27,-139.648,951.66,-15.75,-0.75,-26.4,14.71
10660,-12.34,-2.46,-15.51,-190.43,29.785,1062.988,-15.9,0.15,-23.85,14.66
10670,-11.37,-0.79,-17.92,396.484,-116.699,978.027,-16.05,-1.5,-26.4,14.9
10680,-11.37,1.18,-16.37,105.957,105.957,1160.156,-15.75,-1.05,-22.95,14.66
10689,-2.53,0.2,-20.08,-136.23,-117.188,1073.242,-13.95,0.15,-23.85,14.9
10699,4.38,-0.08,-18.54,444.824,-293.945,1096.191,-13.95,0.15,-23.85,14.71
10708,3.82,3.29,-10.92,6.836,-128.418,909.668,-14.7,-0.45,-23.85,14.71
10717,1.47,5.74,-29.03,67.871,-269.043,1168.457,-16.2,0.15,-25.35,14.52
10726,-0.82,8.45,-25.47,199.219,-292.969,1292.969,-16.2,0.15,-25.35,14.71
10753,-2.01,0.5,-20.97,315.43,-262.695,1149.414,-14.1,-2.25,-25.2,14.85
10762,-7.06,4.08,-18.46,-3.906,-55.664,1218.262,-14.1,0.75,-24.45,14.8
10772,-4.5,1.47,-24.31,-243.652,127.93,1383.789,-14.1,0.75,-24.45,14.71
10781,-6.4,-2.84,-23.66,194.336,3.906,1197.754,-14.1,0.75,-24.45,14.8
10790,3.39,-2.24,-23.56,297.363,18.555,917.48,-14.7,-1.65,-24.3,14.66
10799,1.56,-4.5,-21.99,-133.789,-10.742,1223.145,-14.7,1.65,-25.8,14.52
10809,-1.31,-4.02,-20.4,-296.387,-155.762,1013.184,-14.7,1.65,-25.8,14.8
10819,3.2,-3.6,-22.25,506.348,-410.645,1005.859,-13.8,-1.05,-25.2,14.9
10829,-0.78,-5.08,-23.66,26.367,39.063,1095.215,-14.85,1.5,-27.45,14.61
10838,-2.56,-3.24,-23.4,-142.578,19.531,865.234,-14.55,-1.05,-26.7,14.8
10848,1.49,-0.61,-24.21,64.941,82.52,1000.977,-13.5,0.45,-26.1,14.66
10857,3.32,-6.27,-20.95,-169.434,147.461,1033.691,-15.75,-0.75,-26.7,14.8
10867,-2.56,-7.31,-17.99,-181.152,-84.961,1181.152,-15.15,-0.15,-26.1,14.85
10877,0.01,-1.24,-20.27,188.477,-41.504,756.836,-13.05,1.95,-26.4,14.61
10886,-3.89,1.82,-23.34,150.391,-246.094,1226.563,-13.05,1.95,-26.4,14.85
10895,-5.64,-1.91,-19.99,-44.434,-93.262,708.496,-13.5,-0.9,-25.05,14.8
10905,-2.96,-3.21,-17.89,238.281,-301.27,775.391,-12.75,1.65,-27.6,14.9
10915,-4.89,-0.1,-17.31,281.738,141.602,849.121,-15.9,-1.35,-27.6,14.85
10925,-12.93,5.66,-15.85,159.18,171.387,1037.109,-12.6,0.3,-25.2,14.66
10934,0.84,7.07,-19.67,-71.777,-60.059,973.145,-14.55,1.95,-27.45,14.66
10943,7.79,1.43,-20.75,-11.719,-125.977,816.895,-13.95,-0.9,-26.1,15.04
10953,1.65,1.72,-19.03,-196.777,-239.258,982.91,-12.45,2.1,-24.6,14.66
10962,3.23,3.85,-18.73,346.191,-720.215,1187.012,-12.45,2.1,-24.6,14.85
10971,0.58,0.02,-23.38,-73.242,-189.453,1029.785,-12.45,2.1,-24.6,14.85
10980,-4.81,-4.5,-22.38,175.293,-582.031,1564.941,-11.4,0,-23.25,14.61
10990,0.48,-1.83,-24.87,-15.137,-345.703,1068.848,-12.45,2.1,-25.35,15.04
11000,-5.78,-3.3,-25.68,230.469,-291.016,910.645,-12.45,2.1,-25.35,14.85
11010,-9.27,-0.52,-30.3,-290.039,128.906,1002.441,-12,0.45,-23.55,14.85
11020,2.31,-1.67,-25.82,108.398,-57.129,1185.059,-13.05,1.95,-27.15,14.66
11029,-6.26,-7.69,-34.14,215.332,35.645,1375.488,-13.2,-0.15,-25.35,14.66
11039,0.55,-0.53,-32.61,17.09,42.969,736.816,-11.85,1.5,-25.65,14.85
11048,6.93,-0.92,-25.74,-58.105,-363.77,1219.727,-11.85,1.5,-25.65,14.9
11058,1.14,-1.88,-24.68,-9.277,-259.766,977.539,-13.8,0.75,-25.95,14.99
11068,-5.91,-4.73,-22.47,37.109,-178.223,1458.008,-12,1.65,-26.55,14.32
11078,0.69,-2.63,-30.18,182.129,-440.43,1419.922,-12,1.65,-26.55,14.61
11087,-4.09,-4.62,-20.18,-57.129,-357.91,1318.848,-13.05,0.75,-25.65,14.9
11097,6.85,1.87,-24.62,-172.852,-305.176,781.25,-13.2,0.9,-26.1,14.61
11106,5.44,-2.22,-20.49,6.348,-392.578,1390.137,-13.2,-0.15,-25.8,14.52
11116,-7.65,-0.92,-23.11,78.613,-149.902,843.262,-12.3,1.5,-27.9,14.99
11126,3.7,0.08,-21.42,127.93,-77.148,1261.23,-12.3,1.5,-27.9,14.85
11135,11.78,0.79,-28.95,297.852,-342.285,750.488,-12.3,0.75,-25.95,14.85
11144,5.47,0.44,-23.61,117.676,-178.711,845.215,-12.3,1.95,-27.45,14.47
11153,9.68,0.66,-23.1,-110.84,76.172,840.82,-12.3,1.95,-27.45,14.8
11162,5.81,4.24,-21.24,-9.277,-208.496,896.484,-10.5,2.85,-27.3,14.8
11171,9.63,6.21,-24.02,-268.066,-355.469,1278.32,-10.5,2.85,-27.3,14.8
11180,-4.34,6.18,-24.07,-98.633,-129.883,1219.238,-12.3,1.5,-27.15,14.8
11190,-2.85,0.77,-22.6,121.094,-637.695,1189.453,-11.4,-0.3,-26.7,14.9
11200,-10.24,-3.92,-20.99,-110.84,-398.437,856.934,-11.25,2.85,-27.3,14.9
11210,-1.24,-6.81,-22.78,402.832,-524.414,737.793,-11.4,0.75,-27.45,14.61
11220,-11.45,-8.54,-27.79,-86.914,410.156,680.664,-9.9,1.5,-25.65,14.9
11244,2.51,-5.55,-27.03,26.855,-324.219,872.559,-11.85,2.25,-25.95,14.8
11253,0.02,-2.76,-27.7,-62.988,-248.535,1035.156,-11.4,0.75,-26.7,14.85
11263,1.63,0.37,-26.36,230.957,-114.746,594.238,-10.35,0,-25.2,14.85
11272,-3.57,3.11,-26.97,-41.504,-63.965,1085.449,-11.7,1.65,-28.35,14.71
11282,-4.85,2.08,-27.56,-27.344,-304.199,850.586,-10.35,1.05,-26.4,14.71
11292,12.02,-0.32,-25.57,147.461,-208.008,787.109,-11.25,2.1,-26.55,14.66
11301,10.61,1.54,-28.2,-35.156,-183.594,734.375,-11.25,2.1,-26.55,14.85
11310,3.02,1.37,-24.5,-18.555,-304.199,972.656,-12,2.55,-26.55,14.71
11319,-3.65,0.29,-24.44,187.5,-25.391,1177.246,-12,2.55,-26.55,14.9
11328,-2.84,-4.64,-27.09,-31.25,10.742,1357.91,-10.95,2.1,-27.6,15.04
11338,3.32,6.11,-21.79,190.918,-369.141,799.805,-11.25,0.9,-26.55,14.66
11347,3.6,1.6,-26.2,-6.836,-489.258,1309.082,-11.25,0.9,-26.55,14.66
11356,-0.86,-0.28,-24.29,-103.516,-50.293,854.492,-10.95,2.1,-27.3,14.9
11366,-6.28,1.9,-24.85,-61.523,-59.082,1138.184,-9.3,2.1,-25.05,14.66
11376,-0.83,-2.5,-22.53,18.066,-230.469,983.398,-10.35,2.7,-27.15,14.85
11386,-1.31,0.91,-24.41,46.387,32.715,956.055,-10.5,1.65,-26.55,14.66
11395,-0.81,1.82,-27.33,79.102,-197.266,1431.641,-10.5,1.65,-26.55,14.85
11404,-10.5,-4.49,-26.24,100.098,-91.797,968.262,-11.1,1.5,-27.45,14.71
11414,-1.51,-1.51,-27.58,85.449,-508.789,1107.422,-9.6,1.5,-25.65,14.9
11424,-3.41,-3.85,-27.51,205.078,68.359,939.941,-9.6,1.5,-25.65,14.47
11433,-6.42,2.31,-26.44,-180.664,272.461,1151.855,-10.05,0.9,-27.3,14.9
11442,-1.29,-1.11,-25.16,-162.598,-41.992,1240.234,-9.75,1.65,-25.8,14.8
11452,6.9,-0.3,-27.07,-147.461,-356.445,945.801,-10.35,3.15,-27.9,14.71
11462,4.6,1.47,-27.34,-111.816,-56.641,1352.051,-8.55,1.65,-25.8,14.47
11471,-4.5,0.55,-26.28,55.176,-386.23,1139.16,-8.55,1.65,-25.8,14.85
11480,1.69,3.86,-25.44,151.855,-199.219,1198.73,-8.55,1.65,-25.8,14.66
11489,3.18,-0.1,-30.34,-81.543,-515.625,1295.41,-9.75,1.65,-27.6,14.61
11499,4.73,5.94,-28.2,84.473,-333.984,664.062,-7.8,3.3,-26.1,14.9
11508,-3.89,4.56,-27.6,91.797,-161.621,949.219,-7.8,3.3,-26.1,14.66
11517,-9.08,-1.97,-29.12,-49.805,140.137,587.891,-9.9,1.5,-26.7,14.61
11527,-7.6,3.47,-25.7,145.996,-192.383,795.898,-9.6,3.45,-27.9,14.8
11536,-5.35,2.06,-28.05,-60.547,81.055,1281.738,-9.15,1.5,-27.15,14.8
11545,-0.73,1.31,-25.92,134.766,-64.941,546.387,-7.95,1.5,-26.4,14.71
11554,-0.43,2.76,-29.32,60.059,-366.211,1163.086,-8.4,3.45,-28.2,14.71
11563,0.46,-1.23,-26.98,-47.363,-434.57,1054.199,-7.35,3.3,-26.1,14.8
11573,4.5,3.59,-26.08,375.977,-500,832.52,-8.25,4.05,-27.6,14.9
11582,3.31,-2.66,-23.92,107.422,-508.789,1335.449,-8.25,4.05,-27.6,14.85
11591,-1.98,-0.81,-35.1,-39.063,-480.957,660.645,-8.25,4.05,-27.6,14.66
11601,-2.86,-3.21,-31.7,-297.852,-228.516,1635.742,-7.65,4.65,-26.7,14.9
11611,0.5,-1.56,-47.11,33.691,-247.07,844.727,-8.55,4.05,-26.55,14.85
11620,-5.82,-6.99,-35.96,-230.957,-372.559,1433.105,-8.55,4.05,-26.55,14.66
11630,1.5,-2.45,-32.11,115.723,-180.176,496.582,-8.55,4.05,-26.85,14.99
11639,9.6,-7.27,-46.93,-59.57,-5.371,1109.375,-6.9,2.25,-25.65,14.9
11649,5.15,-5.98,-28.82,-125.977,-212.402,574.219,-8.4,5.1,-26.4,14.85
11659,30.76,-2.37,28.34,67.383,-292.969,972.656,-9,2.85,-27.6,14.52
11668,-2.54,4.54,16.19,-75.195,-230.957,543.945,-9,2.85,-27.6,14.99
11677,8.44,6.58,-10.11,-60.059,-202.637,934.082,-10.05,4.05,-27.6,14.9
11686,-4.53,1.32,-27.91,-172.852,-322.266,1317.383,-7.2,1.95,-26.4,14.71
11696,-5.18,3.56,-34.69,-280.273,-174.316,1035.645,-7.2,1.95,-26.4,14.9
11706,-0.18,-7.09,-33.83,395.02,-469.727,1215.82,-8.55,2.1,-27.3,14.99
11731,8.49,4.85,-33.87,-191.406,-417.48,1410.156,-8.4,3.9,-28.65,14.8
11740,15.66,5.21,-27.5,135.254,95.703,535.156,-6.6,2.55,-25.8,15.04
11749,5.02,4.11,-35.08,-259.277,-460.937,1239.746,-6.6,2.55,-25.8,15.04
11758,8.06,1.45,-33.91,123.535,-520.02,714.355,-4.95,1.95,-26.7,14.66
11767,1.73,3.42,-34.13,243.652,-99.609,965.82,-5.25,4.35,-26.7,14.9
11776,5.41,-0.42,-21.15,-54.688,-245.117,1276.367,-5.25,4.35,-26.7,14.9
11786,0.89,0.11,-28.37,124.023,-366.699,1272.461,-5.85,2.85,-26.1,14.66
11795,-7.06,-7.22,-39.96,260.742,-471.68,1437.5,-6.6,4.95,-27.6,14.71
11805,-7.59,-0.31,-26.78,235.84,-92.773,702.637,-5.85,3.3,-26.55,14.9
11815,-0.95,-6.86,-30.47,32.715,-333.008,1150.879,-8.25,4.5,-27.3,14.9
11825,-5.93,-7.94,-30.2,-44.922,-119.629,1062.5,-8.25,4.5,-27.3,14.66
11835,5.54,-2.2,-33.24,69.824,-296.387,263.672,-5.1,3.3,-25.35,14.66
11844,-5.29,-1.92,-34.27,-174.316,39.551,1243.164,-6.45,3.45,-28.95,14.66
11854,91.69,-12.76,172.08,161.133,-215.82,277.344,-6.45,3.45,-28.95,14.8
11863,-7.86,1.68,44.05,-28.809,18.555,1040.039,-6.45,6.3,-28.95,14.8
11872,-7.44,0.44,-15.98,32.227,-15.625,950.195,-5.7,3.15,-26.4,14.9
11881,12.76,8.6,-36.15,306.152,-98.145,339.844,-5.7,3.15,-26.4,14.85
11890,8.52,3.14,-30.39,-293.945,-72.754,1259.766,-5.25,5.55,-27.45,14.66
11899,-8.49,2.2,-30.49,15.137,-83.496,1178.223,-6.15,3.45,-27.15,14.8
11908,-37.82,-0.33,-93.08,86.426,-518.066,1362.305,-4.8,6.15,-27.6,15.04
11918,-19.78,-4.87,-69.75,-11.719,-309.57,992.187,-7.8,4.5,-28.05,14.85
11928,-5.97,2.12,-24.67,190.918,-370.117,1191.895,-4.35,4.95,-25.8,14.61
11937,-6.73,7.8,-36.33,8.301,-107.422,1073.73,-4.35,4.95,-25.8,14.9
11946,-1.6,1.68,-31.31,-56.641,-43.945,1238.281,-3.75,4.35,-26.4,14.9
11956,8.56,9.76,-0.92,-54.199,-205.078,769.043,-3.9,5.7,-29.55,14.9
11965,5.82,-0.05,-15.96,92.773,-211.426,1216.797,-4.2,1.95,-27.9,14.8
11974,1.79,-0.24,-27.04,271.484,-264.16,1074.707,-2.85,4.95,-28.35,14.85
11983,2.38,-6.98,-37.75,-252.441,-387.207,1307.129,-4.95,3.9,-29.4,14.99
11993,0.28,-2.9,-29.2,98.145,-75.684,931.152,-3,5.1,-26.7,14.66
12002,1.57,-7.33,-26.35,79.59,-199.707,849.121,-3,5.1,-26.7,14.9
12011,-4.77,-4.74,-30.87,217.285,-290.039,1255.859,-4.95,5.1,-28.2,14.8
12021,-2.89,-5.51,-28.62,124.023,-293.457,740.723,-4.95,5.1,-28.2,14.61
12031,0.53,-10.53,-25.25,-21.484,-278.32,1514.648,-3.15,6.45,-28.8,14.71
12041,-4.4,0.46,-32.32,-14.16,-116.699,877.93,-3,3.45,-26.7,14.66
12051,-16.08,-6.79,35.05,127.93,57.617,1056.641,-3,3.45,-26.7,14.85
12060,-4.27,-2.34,-24.77,36.621,-395.508,1173.34,-3.75,4.35,-28.2,14.66
12070,5.17,-0.26,-23.79,-228.027,-60.059,840.332,-2.55,6.3,-27.9,14.61
12080,12.45,-2.49,-28.37,-161.621,-229.98,868.652,-3.75,5.55,-28.95,14.99
12090,-4.12,-1.37,-28.02,90.82,-150.879,957.031,-1.65,5.7,-25.8,14.9
12100,-0.95,-1.08,-32.92,-15.137,-125.488,937.5,-1.65,5.7,-25.8,14.8
12110,-1.75,-3.57,-25.98,347.656,-50.293,1236.328,-1.2,6.45,-26.55,14.9
12120,-7.1,-5.31,-30.02,-289.062,11.719,1234.375,-1.65,7.35,-30.75,14.61
12130,-9.28,-0.92,-35.98,852.051,-303.223,751.465,-1.65,7.35,-30.75,14.52
12140,-3.89,-0.95,-30.59,-312.988,105.957,963.867,-1.5,5.55,-29.4,14.71
12150,-3.64,2.62,-29.17,193.359,-457.031,755.371,-1.8,3.9,-29.7,14.9
12159,2.72,-0.33,-32,-78.613,146.484,805.664,0.3,6.75,-28.65,14.85
12168,3.65,-7.35,-35.18,-271.973,-312.5,1387.695,-1.05,3.9,-29.4,14.8
12178,-1.78,-2.83,-35.72,162.109,-178.711,873.047,-1.05,3.9,-29.4,14.61
12188,2.1,0.15,-30.18,-323.242,-201.66,1110.352,-0.75,4.35,-29.4,14.85
12197,4.92,-3.27,-30.7,343.75,-367.187,1009.766,0.75,5.1,-25.2,14.85
12221,5.8,-0.46,-29.01,231.934,-513.672,986.816,1.8,3.15,-25.65,14.8
12231,-8.51,1.29,-31.31,4.883,-261.23,1110.352,-0.45,5.25,-27.6,14.8
12240,-0.15,-2.63,-12.68,434.082,-72.754,1017.09,1.05,3.9,-25.95,14.52
12249,-6.58,2.13,-32.71,-228.516,-490.234,922.852,-0.45,5.25,-26.55,14.85
12259,-12.6,-0.32,-25.37,-165.039,23.437,1450.684,-0.15,4.05,-26.55,14.8
12269,2.38,1.7,-30.15,145.508,-233.887,690.43,-0.15,6.15,-25.8,14.85
12278,-2.76,0.34,-30.07,-154.785,-120.117,1409.668,0.45,4.05,-26.1,14.61
12287,2.08,3.27,-31.82,79.59,20.02,1256.348,0.45,4.05,-26.1,14.8
12296,-4.31,1.64,-30.29,-33.691,-502.93,1162.598,0.9,2.55,-28.05,14.85
12305,-5.66,6.11,-31.27,188.477,-279.297,1083.496,1.2,4.95,-25.8,14.66
12314,9.34,7.52,-33.86,147.461,9.766,460.937,-0.45,6.15,-26.85,14.8
12323,0.53,7.93,-34.05,36.133,-4.883,1138.184,0.75,4.35,-24.45,14.85
12332,11.55,4.49,-37.5,153.32,-270.508,742.187,0.75,4.35,-24.45,14.9
12341,5.84,1.38,-39.79,158.691,-719.238,1544.922,-1.05,5.1,-27.45,14.85
12350,-7.61,12.34,-34.47,-265.137,-437.012,1056.641,1.5,4.65,-25.65,14.66
12359,-9.37,-1.55,-39.02,27.832,-555.664,1373.047,0.45,5.7,-28.05,14.8
12368,-23.7,4.05,-32.73,-127.93,-164.062,1384.766,0.45,5.7,-28.05,14.8
12377,-14.12,0.09,-31.09,324.219,277.832,877.441,-0.3,4.65,-27.15,14.52
12386,-10.9,-1.66,-32.44,-5.371,175.293,1087.402,1.2,2.85,-26.1,14.99
12395,-9.77,0.18,-27.88,-7.324,213.379,1111.816,1.2,2.85,-26.1,15.04
12404,-9.05,-5.01,-28,154.297,-356.445,1459.961,1.65,3.3,-26.1,14.66
12413,-4.58,-7.81,-24.77,-246.582,-59.082,768.066,1.05,5.55,-26.7,14.66
12423,-2,-7.3,-29.82,45.41,-272.949,987.305,0.75,3.45,-26.7,14.66
12432,-3.11,-5.66,-22.47,205.078,-417.48,1102.051,0.75,3.45,-26.7,14.66
12441,-10.67,3.48,-31.77,-274.414,-151.855,1083.984,2.85,6.15,-26.55,14.9
12450,7.28,-1.21,-28.11,295.41,-117.676,710.937,2.85,6.15,-26.55,14.71
12459,-4.47,4.13,-29.95,-339.844,-81.543,1726.074,2.4,4.95,-26.1,14.61
12468,-3.22,2.47,-23.08,-39.063,96.68,303.223,1.65,2.85,-26.55,14.66
12477,-9.72,-1.76,-23.64,69.824,-285.156,1373.535,1.65,2.85,-26.55,14.85
12486,-19.37,-6.05,-17.41,-15.137,-280.762,1285.156,1.5,4.35,-28.2,14.47
12496,-12.5,-9.34,-25.24,-36.621,-304.199,1351.563,2.85,5.25,-27.3,15.04
12506,4.67,-1.08,-16.92,-228.516,139.648,639.648,2.1,4.5,-28.35,14.8
12515,7.76,-9.9,-23.48,-5.371,-784.18,1661.621,3.15,4.95,-25.35,14.9
12524,17.8,-12.29,-22.07,-125.977,-40.527,1666.504,3.15,4.95,-25.35,14.8
12533,13.98,-9.27,-30.75,127.93,54.688,1255.859,3.75,4.95,-25.35,14.9
12542,22.49,-11.94,-30.14,116.699,-972.656,1026.367,3.75,5.1,-27.15,14.8
12551,-2.91,-6.83,-28.37,229.492,-901.855,1053.711,2.1,3.3,-28.35,14.85
12560,6.92,-14.07,-29.72,-119.141,-776.855,1139.648,2.1,3.3,-28.35,14.9
12569,-4.61,-16.83,-25.81,217.285,-436.523,1610.352,3.15,4.95,-27.3,14.8
12578,9.42,-18.69,-29.57,-153.809,-185.547,827.148,3.75,6.3,-28.2,14.85
12587,7.59,-15.74,-31.9,-173.828,-292.969,1091.309,3,5.55,-27.45,14.9
12596,-1,-22.3,-35.82,479.004,-456.055,1260.742,3.6,6.45,-28.05,14.8
12605,9.92,-29.1,-30.97,-75.684,-210.937,1667.48,2.4,3.75,-27.3,14.9
12614,20.94,-28.6,-28.28,174.316,-539.062,1708.496,3.45,5.1,-27.45,14.85
12623,7.29,-22.47,-26.95,-133.301,-535.645,1771.484,1.2,3.75,-27.6,14.66
12632,-11.01,-23.95,-34.23,-269.531,-656.738,1578.613,1.2,3.75,-27.6,14.85
12642,-7.56,-19.3,-30.17,-256.348,341.309,820.312,1.2,3.75,-27.6,14.99
12651,-12.31,-21.56,-33.44,169.434,98.145,1166.992,1.65,3.75,-28.05,14.52
12660,-17.45,-14.76,-31.22,-275.391,106.445,1014.648,2.55,5.85,-28.2,14.85
12669,-18.91,-12.63,-27.34,-6.348,-622.07,1087.402,0.15,4.5,-27.6,14.71
12693,-10.97,-2.38,-38.76,-8.789,82.52,523.437,1.8,4.35,-28.65,14.9
12702,-11.95,-8.86,-33.34,-99.609,-43.457,869.141,2.4,4.95,-29.55,14.85
12712,-8.49,-8.93,-30.92,-84.961,-146.973,1033.691,3,5.1,-29.4,14.99
12722,-11.98,-5.47,-41.43,-568.359,-486.328,1385.742,3,5.1,-29.4,14.66
12732,-5.43,1.85,-34.29,-397.949,-386.23,689.941,2.25,4.65,-27.9,14.9
12741,-4.49,6.53,-34.53,-146.973,-370.117,711.914,2.4,5.25,-29.55,14.85
12750,0.04,8.68,-37.89,-295.41,186.035,1305.176,2.4,5.25,-29.55,14.85
12759,3.02,11.81,-33.76,-498.047,-110.352,1208.008,3.15,4.5,-28.8,14.71
12768,4.86,10.95,-35.76,-58.105,-46.387,976.074,3.75,4.35,-28.95,15.04
12777,-11.61,-7.82,-33.36,-56.152,-326.172,988.281,1.65,4.5,-25.35,15.19
12786,-10.89,5.29,-39.05,-343.75,-86.914,1040.039,2.25,3.45,-26.4,15.19
12795,0.58,11.85,-43.4,-403.32,-165.039,1836.426,1.65,6.15,-24.6,15.14
12804,1.9,14.86,-39.94,87.891,-77.637,1147.461,1.5,4.65,-25.65,15.19
12813,11.41,20.41,-42.62,-141.602,-242.676,646.484,1.5,4.65,-25.65,15.14
12822,19.18,13.77,-39.28,-28.809,-406.25,141.113,2.4,5.7,-25.35,15.14
12831,1.38,11.49,-33.89,73.242,-414.551,750.488,3.9,5.25,-25.8,15.14
12840,-16.27,12.25,-43.24,-143.555,-722.656,1104.98,3.9,5.25,-25.8,14.99
12849,-21.64,8.11,-40.1,-190.43,-349.609,874.512,3.9,5.25,-25.8,15.14
12858,-14.88,9.47,-35.34,-414.062,188.965,1172.363,2.85,5.25,-26.1,14.9
12867,19.81,9.95,-25.27,175.781,433.105,745.605,3.75,4.65,-25.95,15.04
12876,24.47,11.84,-39.57,-432.129,-144.043,1026.367,2.85,4.95,-27.3,15.04
12886,30.92,8.15,-35.56,145.02,-701.66,884.277,4.2,5.85,-26.4,15.23
12895,21.75,3.89,-34.14,-141.602,-584.961,565.918,4.5,5.1,-25.95,14.9
12904,5.61,1.04,-48.48,-1.465,-630.859,39.063,4.35,6.15,-26.55,15.19
12914,-1.53,-2.56,-36.03,83.496,-380.859,943.848,5.25,5.85,-25.65,15.14
12923,-3.63,-1.36,-38.82,139.648,-19.043,1564.941,5.25,5.85,-25.65,15.04
12932,-17.27,-2.42,-32.63,-143.555,-256.836,1242.188,4.8,6.15,-26.55,15.19
12941,-14.24,-2.51,-37.29,-141.602,186.035,923.828,4.5,6.3,-26.7,15.19
12950,4.08,-4.26,-30.23,121.094,-288.574,740.234,4.5,6.3,-26.7,15.04
12959,4.48,2.53,-35.11,-42.969,-331.055,1189.941,5.7,6.3,-26.4,15.14
12968,10.15,2.66,-34.68,-225.586,-745.605,911.621,5.55,5.25,-23.85,15.14
12977,-1.96,1.5,-34.5,-23.926,-711.426,1226.563,5.7,5.55,-25.95,15.04
12986,0.82,0.58,-33.81,-54.688,-444.336,703.613,5.85,5.25,-26.1,15.33
12995,7.33,4.38,-36.05,-181.152,-592.773,462.891,6.3,6.9,-26.55,15.14
13004,-1.6,-0.56,-38.04,-145.508,-635.254,1163.086,6.3,6.9,-26.55,15.14
13014,-2.16,3.3,-36.56,-97.656,-661.133,1383.789,4.95,5.55,-27.45,15.04
13023,-4.55,0.02,-44.73,-244.629,-641.602,1323.73,7.05,5.7,-26.55,15.04
13033,-4.31,-4,-41.79,36.133,-501.953,1216.797,8.4,4.65,-26.7,14.8
13042,1.47,-0.97,-40.9,-226.074,-116.699,893.066,7.05,5.25,-25.8,15.14
13052,11.24,-1.54,-37.73,68.848,-609.375,940.43,7.05,5.25,-25.8,15.14
13061,2.55,-1.77,-38.31,-69.824,-469.727,1364.746,7.05,4.95,-26.1,15.23
13070,4.3,-2.27,-39.76,28.809,-583.496,1322.266,8.55,5.7,-26.1,15.04
13079,2.56,1.43,-41.87,16.113,-376.465,1102.539,7.2,5.55,-25.95,15.14
13088,-0.17,-0.21,-40.46,-16.602,-380.859,1020.02,7.2,5.55,-25.95,15.04
13097,-2.9,5.6,-40.82,127.93,-194.824,880.371,7.65,5.55,-25.65,15.14
13106,-3.1,2.88,-36.5,-192.383,113.281,804.199,7.35,5.7,-26.1,15.38
13115,-2.76,1.66,-44.4,194.336,-105.469,1312.012,7.35,5.7,-26.1,15.14
13124,2.34,-0.3,-38.66,-57.617,-155.762,1142.09,8.7,5.1,-26.7,15.33
13134,1.54,3.34,-33.79,56.152,-307.129,1076.172,8.4,4.65,-27.15,15.23
13143,-0.44,0.65,-37.52,318.359,-427.734,1104.492,8.4,3.45,-26.4,15.14
13168,-3.37,1.15,-37.94,-114.258,-347.168,1327.148,8.4,3.45,-26.4,15.19
13177,-2.16,1.82,-39.05,-245.117,-115.234,677.734,8.55,4.95,-25.05,14.85
13187,-9.5,1.99,-41.77,180.664,-222.656,834.961,9.15,4.65,-26.7,15.19
13196,-4.73,-1.6,-42.47,-207.52,246.094,882.324,9.15,4.65,-26.7,15.23
13205,0.7,-1.45,-39.27,-126.465,-187.5,1145.02,9.3,3.3,-26.55,14.99
13214,0.68,2.66,-36.95,-67.871,-254.395,923.828,8.7,5.55,-27.45,15.14
13223,5.8,-0.92,-41.61,39.551,-437.988,717.285,8.7,5.55,-27.45,15.04
13232,1.28,3.23,-33.93,-320.312,-152.832,1155.762,9.6,4.35,-25.95,14.99
13241,0.11,1.82,-38.24,-252.441,-361.328,845.215,9.3,4.5,-27.3,15.23
13250,-1.42,1.95,-40.52,-261.23,-534.668,876.953,9.3,4.5,-27.3,15.04
13259,1.33,0.85,-37.3,42.48,-504.395,958.496,11.25,3.3,-26.85,15.14
13268,6.55,0.44,-39.11,-118.164,-667.48,642.578,10.05,4.95,-26.55,15.14
13277,12.47,-3.44,-36.46,83.496,-490.723,1178.711,10.05,4.95,-26.55,15.19
13286,4.6,2.53,-37.34,-73.242,-693.359,970.215,11.25,5.7,-26.1,15.23
13295,3.86,-1.4,-37.56,14.648,-723.145,1090.332,11.4,4.65,-27.15,15.14
13304,-3.55,0.91,-40.08,-268.066,-352.051,861.816,11.4,4.65,-27.15,14.85
13314,3.6,-0.88,-38.9,22.949,-728.027,772.949,12,4.5,-27.6,15.04
13323,-0.31,-2.41,-39.36,-252.93,-157.227,856.934,12.3,3.15,-25.95,15.14
13332,11.41,-4.76,-41.46,-130.859,-476.562,647.949,12.3,3.15,-25.95,15.33
13342,4.19,-3.43,-40.66,-27.832,-485.352,1406.25,13.2,3.75,-26.1,15.04
13351,0.59,-3.73,-37.53,155.762,-770.02,903.809,12.3,5.1,-26.4,15.14
13360,-8.75,-10.44,-41.86,-50.293,-276.855,1282.715,12.3,5.1,-26.4,15.19
13369,0.21,-9.06,-43.98,-1.953,80.078,1095.703,11.1,3.9,-27.15,14.9
13379,4.76,-5.5,-32.76,4.883,-328.125,905.273,12.75,4.05,-27.3,15.38
13388,9.76,-0.79,-31.84,-110.352,-616.699,659.668,10.5,3.75,-26.55,15.19
13397,2.63,3.81,-36.85,-420.41,-306.152,637.695,12,4.05,-26.85,15.23
13406,2.08,2.21,-42.37,-78.125,-956.055,847.168,10.95,4.5,-26.85,15.19
13415,-5.58,-2.98,-41.85,-141.113,-270.02,1177.246,10.95,4.5,-26.85,15.23
13424,-1.85,0.37,-43.33,62.012,-735.84,675.781,12.3,3.15,-26.4,14.99
13433,-3.79,-3.06,-39.31,221.191,-627.441,512.207,12.3,3.15,-26.4,15.14
13442,-10.68,0.03,-37.61,201.66,-672.363,1480.957,12.3,3.15,-26.4,15.14
13451,-0.57,-3.24,-46.6,-69.824,-299.316,1145.02,12.3,1.95,-26.7,14.9
13460,9.71,3.64,-38.05,76.66,-329.102,530.273,13.05,3.15,-28.2,15.38
13469,-0.5,-1.8,-38.12,-72.754,-232.422,1160.645,13.05,3.15,-28.2,15.19
13478,3.28,0.13,-36.85,-242.187,-213.867,785.645,14.55,2.25,-27.9,15.14
13487,10.15,-1.15,-45.82,83.984,-447.266,930.664,14.55,3.15,-28.2,15.04
13497,9.78,2.02,-34.54,76.172,-510.254,1164.063,13.95,2.55,-26.85,15.23
13506,9.37,1.9,-44.94,206.055,-276.855,565.918,13.95,3.75,-26.55,15.14
13516,10.82,4.98,-41.64,-146.973,-219.727,1055.664,13.95,3.75,-26.55,15.19
13526,1.1,0.56,-43.79,-148.437,-495.117,819.824,14.55,3.45,-28.2,15.23
13535,-4.44,2.9,-43.54,-14.648,-841.309,1452.637,14.1,1.5,-25.95,14.85
13544,-5.41,-0.47,-43.51,-241.211,-858.887,1226.563,14.1,1.5,-25.95,15.14
13553,-27.65,-3.79,-149.09,-217.773,-791.504,794.434,14.1,1.5,-25.95,15.14
13562,-9.02,-0.46,-50.71,-62.012,-482.91,1132.324,15.75,2.7,-26.4,15.14
13571,0.8,-5.02,-38.17,16.602,-701.66,954.59,13.95,1.35,-27.3,15.14
13581,7.18,0.63,-44.57,-517.09,-388.184,1334.961,16.05,3.45,-27.15,14.99
13590,-3.45,2.3,-44.96,-243.164,-241.699,1282.715,16.05,1.05,-26.7,15.04
13600,0.41,2.07,1.48,-192.383,-630.859,1620.605,16.05,1.05,-26.7,15.23
13609,-0.74,6.94,-45.92,-90.332,-68.848,537.598,14.7,2.55,-27.3,15.14
13619,6.95,4.67,-44.79,-221.68,-83.496,1331.543,14.7,2.55,-27.3,15.23
13643,-0.9,-0.5,-42.07,-70.313,-512.207,1203.125,16.65,1.65,-28.35,14.99
13653,5.59,-2.02,-43.76,79.102,-420.898,937.012,16.2,0.45,-27.3,15.19
13662,2.5,3.43,-49.51,-100.098,-381.348,562.012,17.4,2.55,-29.1,15.19
13671,5.02,-3.42,-48.42,68.359,-522.461,859.863,15.9,0.9,-27.3,14.85
13680,7.89,2.75,-45.05,0.977,-500,647.949,15.9,0.9,-27.3,15.04
13689,3.69,-2,-42.37,-441.895,-400.879,596.68,16.05,1.95,-27.15,15.14
13698,-8.57,-2.26,-44.39,-55.664,-281.25,214.844,16.8,0.3,-28.65,15.33
13708,-1.17,-1.2,-43.25,18.066,-182.129,1059.57,16.8,0.3,-28.65,15.19
13717,1.31,1.16,-40.47,-38.086,-879.883,455.078,17.4,-0.15,-26.55,15.14
13726,-5.33,0.66,-39.21,-61.523,-338.379,720.703,17.25,2.25,-27.9,15.04
13735,-6,0.55,-44.37,-110.352,-644.531,1286.621,16.2,0.15,-27.3,15.14
13744,1.41,4.33,-44.85,40.527,-422.363,565.918,16.2,0.15,-27.3,15.04
13753,12.09,2.88,-41.75,-148.926,-732.91,864.258,16.65,0.9,-28.05,15.04
13763,2.51,3.46,-44.73,-63.477,-729.004,1117.676,18,-0.75,-28.2,15.23
13773,2.11,4.26,-45.67,-15.137,-614.258,1168.945,17.25,0.3,-28.2,15.19
13782,-0.79,0.67,-47.76,-193.359,-537.598,1000.488,18.6,-0.45,-27.3,14.85
13791,-0.18,2.45,-44.3,-120.117,-393.066,985.352,18.6,-0.45,-27.3,15.23
13800,0.06,3.25,-45.97,-86.914,-375,1188.965,18.9,0.15,-27.6,15.14
13809,-6.22,8.82,-42.4,-125.977,-263.672,1458.008,18,0,-28.2,15.04
13818,-3.92,3.76,-49.47,-146.484,-302.734,1006.348,18.9,0.45,-27.6,14.9
13827,-1.06,6.91,-50.26,-119.141,-472.168,1080.078,19.65,-0.45,-29.1,15.23
13837,8.71,0.51,-44.31,-82.52,-548.34,1110.84,18.9,0.9,-28.35,15.14
13846,2.26,5.07,-45.51,-383.789,-343.75,736.816,18.15,-1.35,-27.6,14.99
13855,4.87,1.85,-49.13,-47.363,-615.234,1457.031,19.95,0.3,-28.95,15.14
13865,7.47,1.75,-39.21,98.633,-436.523,868.652,19.95,0.3,-28.95,15.14
13874,0.05,-0.08,-44.72,-224.609,-637.695,1237.305,19.95,0.3,-28.95,15.14
13883,10.27,-5.22,-40.59,368.652,-630.859,944.824,20.25,-1.5,-29.7,15.04
13892,3.72,-5.52,-52.82,-52.246,-205.566,1087.891,21.45,-1.95,-28.2,15.38
13902,2.07,-5.05,-43.47,300.781,-294.922,970.703,21.45,-1.95,-28.2,14.9
13911,-3.93,-7.4,-45.63,111.328,-821.777,1057.129,19.95,0,-28.65,15.19
13920,-6.31,-8.44,-47.76,-371.094,-472.656,976.074,19.2,-3.45,-29.7,15.19
13929,1.35,-4.57,-45.55,26.367,-667.48,551.758,21.6,-0.45,-28.35,15.19
13938,-2.21,-7.25,-49.04,-24.902,-715.82,1095.703,20.25,-2.7,-27.9,15.19
13947,-13.15,-9.79,-37.89,-82.031,-461.426,1389.648,20.25,-2.7,-27.9,15.19
13956,-7.54,-6.57,-46.5,-131.836,-453.125,861.816,21,-2.25,-28.65,15.14
13965,-2.83,-3.4,-49.25,-1.465,-209.473,637.695,20.85,-2.85,-30.3,15.19
13975,-1.79,-0.68,-45.2,48.828,-416.016,1093.75,20.85,-2.85,-30.3,15.19
13984,-0.92,-1.21,-45.7,-93.75,-467.285,1305.176,20.1,-3.3,-29.85,14.85
13994,0.71,3.93,-36.37,85.449,-573.242,1359.375,21.3,-2.85,-27.3,14.9
14003,14.92,1.22,-41.17,-33.691,-888.184,690.43,21.3,-3.3,-29.55,15.19
14013,1.15,4.48,-42.2,-134.277,-988.77,1271.484,22.65,-1.5,-27.9,15.04
14022,6.85,-0.89,-41.97,-123.535,-679.199,1234.375,22.65,-1.5,-27.9,15.23
14032,1.08,0.95,-44.82,-24.414,-700.195,899.902,21.45,-2.7,-29.4,15.04
14041,2.59,-1.21,-47.13,-211.914,-167.48,1607.91,21.45,-2.7,-29.4,15.19
14050,7.45,-1.03,-45.55,249.512,58.594,903.32,21.3,-3.75,-29.85,14.71
14059,10.25,-4.96,-45.29,54.688,-474.121,1338.867,21.3,-3.75,-29.85,15.04
14069,6.76,-2.99,-40.6,115.234,-754.883,431.152,22.2,-5.55,-28.65,15.04
14078,-2.2,4.35,-43.41,-155.762,-703.125,695.312,20.85,-4.05,-29.85,14.99
14087,4.4,1.3,-46.33,-141.113,-341.797,663.086,21.3,-5.25,-29.1,15.04
14096,-6.07,5.83,-42.62,81.543,-931.152,1102.539,22.05,-4.05,-29.55,14.85
14121,2.71,11.06,-41.91,8.789,-250.488,541.016,22.05,-4.05,-29.55,15.14
14131,7.01,3.95,-47.69,-71.777,-745.605,585.449,22.05,-4.05,-29.55,15.23
14140,1.41,6.17,-48.56,-84.473,-678.223,1154.297,22.8,-4.95,-30.3,15.14
14149,-2.28,5.97,-39.7,-194.336,-204.102,872.07,23.25,-5.7,-29.1,15.19
14159,2.92,3.29,-46.31,17.09,-964.844,1103.516,22.65,-5.1,-30.15,15.23
14168,-11.34,5.37,-46.01,-191.406,-461.914,1007.812,23.55,-5.7,-30.3,14.9
14178,-10.27,-0.54,-53.27,-194.336,-333.496,1796.875,22.2,-6.75,-29.7,15.23
14187,-7.18,3.52,-50.69,106.934,-285.156,776.855,23.7,-6.75,-29.4,15.33
14197,-6.4,4.73,-49.92,-231.445,-414.551,760.254,23.4,-6.75,-30.9,14.9
14206,-6.66,4.75,-47.42,-106.445,-304.199,1174.805,23.4,-6.75,-30.9,15.33
14216,2.59,5.2,-53.7,5.371,-562.5,1053.711,23.55,-7.35,-29.1,14.99
14225,0.1,7.63,-52.5,-134.766,-423.34,1209.473,22.95,-5.85,-30.15,14.99
14235,7.93,5.15,-52.15,-515.137,-209.473,1087.402,22.95,-5.85,-30.15,15.23
14244,23.68,4.96,-39.29,-71.777,-1033.203,1007.812,24.9,-6.75,-30.45,15.14
14254,12.3,12.77,-44.72,5.859,-344.727,1197.754,24.9,-7.5,-28.95,15.14
14264,12.6,12.05,-42.24,158.203,-668.945,879.883,24.9,-7.5,-28.95,14.9
14273,4.74,3.54,-53.55,135.742,-937.012,829.102,24.9,-9.15,-29.7,15.14
14283,-6.85,3.17,-56.1,-463.379,-411.621,1314.941,24,-8.55,-29.85,15.23
14292,-9.63,-1.4,-50.63,87.891,-372.07,969.727,24,-8.55,-29.85,15.14
14302,-0.54,-5,-54.17,-77.637,-429.687,1682.129,24.6,-7.5,-30.9,15.04
14312,10.83,-3.04,-54.32,144.043,-618.652,1448.73,24.75,-10.05,-29.1,15.14
14322,7.95,-5.88,-54.27,-424.316,-488.77,1435.547,24.75,-10.05,-29.1,15.04
14332,1.76,-6.39,-57.54,386.23,-601.562,1165.527,25.65,-9.9,-28.95,15.04
14341,12.76,-11.98,-54.45,264.16,-426.27,1107.422,23.7,-10.65,-30.15,14.99
14350,8.27,-5.47,-55.19,121.094,-611.328,327.148,24.75,-8.85,-31.05,15.23
14359,-15.93,-3.6,-49.31,-316.895,-645.508,952.637,26.25,-10.5,-29.85,15.38
14369,-10.3,-5.76,-53.76,-279.785,91.309,490.723,26.25,-10.5,-29.85,14.99
14378,-6.04,-5.4,-51.66,357.422,-635.254,838.379,26.25,-10.05,-29.1,15.14
14388,-0.82,-7.59,-46.72,84.473,-500,1270.996,24.15,-11.1,-30.45,15.19
14397,-12.4,-3.4,-49.47,-364.258,-825.195,1789.063,24.15,-11.1,-30.45,15.23
14407,-1.24,2.53,-50.59,-151.855,-450.195,655.762,23.7,-12.75,-30.45,15.38
14416,9,3.69,-46.76,135.742,-230.957,1183.105,25.5,-10.05,-30.3,15.14
14426,6.77,4.6,-45.75,52.246,-400.391,753.418,26.4,-11.85,-30.9,15.04
14436,-2.69,-0.04,-42.33,185.547,-874.512,914.551,25.35,-11.1,-30.45,15.14
14445,-11.79,2.76,-45.98,-215.82,-941.895,1177.246,25.35,-11.1,-30.45,15.23
14455,-2.08,1.03,-43.86,147.461,-1127.93,1439.941,24.75,-9.75,-29.55,15.43
14464,-10.4,7.43,-41.02,-29.297,-587.402,1019.531,25.05,-12.45,-29.55,15.19
14474,-5.96,0.76,-48.94,62.5,-764.16,890.137,25.05,-12.45,-29.55,15.14
14483,4.18,-2.69,-44.54,-93.75,-270.996,1068.848,25.05,-12.45,-29.55,15.23
14493,15.14,2.4,-48.63,-257.812,49.316,875.488,27,-11.7,-29.1,15.19
14503,25.73,1.63,-45.08,183.105,8.301,678.223,24.9,-12.75,-30.45,15.04
14512,17.24,2.03,-38.52,144.043,21.973,1196.289,25.8,-11.7,-29.55,15.04
14522,12.76,0.86,-40.27,421.387,-402.344,804.687,23.25,-14.4,-29.55,15.04
14532,0.07,0.64,-42.03,193.848,-34.668,1018.066,24.6,-11.55,-30.45,15.23
14542,-5.64,3.67,-43.17,313.477,-22.461,560.547,24.3,-14.1,-29.55,15.19
14551,-12.44,-8.43,-43.59,44.922,-175.781,1760.742,25.35,-13.5,-31.65,15.14
14561,-0.83,0.12,-42.41,64.453,-597.168,550.781,25.35,-13.5,-31.65,15.19
14570,1.2,-3.2,-40.24,-6.348,-542.969,649.414,24.75,-14.85,-31.8,15.04
14579,5.91,-7.37,-41.6,-110.84,-673.34,1219.238,24.9,-15.9,-30.45,15.14
14589,9.56,1.72,-44.4,257.324,-367.676,1029.297,25.35,-14.25,-31.65,15.14
14623,8.84,1.14,-37.79,80.566,-823.242,1175.293,24.9,-14.25,-30.45,15.19
14632,-2.34,-3.18,-40.82,21.484,-453.125,868.164,24.15,-14.25,-31.2,15.19
14641,-18.14,-0.89,-40.83,-116.211,-829.102,1399.902,26.25,-15.3,-29.55,14.99
14650,-11.85,0.99,-47.84,-52.246,-606.445,643.555,26.25,-15.3,-29.55,15.14
14660,-14.98,3.08,-42.98,-123.047,-145.508,872.559,25.65,-13.8,-30.15,15.14
14670,-2.13,1.47,-46.69,-107.91,230.957,958.496,25.8,-16.05,-31.05,15.38
14680,5.92,3.66,-47.14,-20.02,-58.105,974.609,25.8,-16.05,-31.05,15.14
14689,11.25,0.06,-42.01,235.84,-533.691,1266.113,25.35,-17.1,-30.15,15.14
14699,10.13,5.45,-39.34,133.789,-437.012,994.629,24.3,-15.3,-32.55,15.38
14709,4.56,2.49,-35.34,-177.246,-240.234,1044.434,24.75,-16.05,-30.3,14.99
14718,-3.79,4.18,-46.01,368.164,-433.105,439.941,24.75,-16.05,-30.3,15.04
14728,-11.08,2.15,-37.8,361.328,-740.723,926.27,24,-17.25,-31.05,15.04
14738,-4.11,-4.27,-43.15,118.652,-406.25,1441.895,24,-17.25,-31.05,14.85
14748,-13.29,3.68,-35.94,57.129,-666.504,1136.719,24.75,-18.45,-31.5,15.38
14757,0.26,2.05,-40.14,60.547,-378.418,672.363,25.8,-15.3,-31.5,15.23
14767,-1.65,2.05,-36.98,-191.895,-707.031,863.77,25.8,-15.3,-31.5,14.85
14777,2,4.91,-37.11,0.977,-581.543,904.785,24.6,-17.1,-31.65,15.04
14787,-3.57,1.21,-39,-118.164,-579.59,1315.918,25.8,-17.7,-30.3,15.19
14796,5.12,2.62,-41.58,-66.895,-297.363,786.133,24.75,-19.2,-30.75,14.99
14805,-0.56,-1.77,-48.65,-375.488,-478.516,1581.055,26.1,-16.65,-31.2,14.9
14814,2.54,-1.98,-44.98,219.238,-637.695,1099.121,26.1,-16.65,-31.2,15.14
14823,-8.6,-1.07,-45.16,34.668,-273.926,1295.898,24,-17.25,-31.5,15.23
14833,1.42,0.43,-52.03,366.699,-275.879,435.059,25.5,-18.45,-29.55,15.14
14842,-3.92,1.12,-42.69,93.262,-655.273,899.902,25.5,-18.45,-29.55,15.04
14851,-14.23,-1.81,-40.58,48.34,-163.574,1610.84,25.5,-16.8,-30.75,15.14
14860,-1.63,3.13,-39.4,342.285,-504.883,954.59,24.75,-19.65,-31.5,15.19
14869,6.48,-1.89,-33.82,141.602,-512.695,1589.355,24.75,-19.65,-31.5,14.9
14878,5.96,-3.54,-36.57,239.258,-732.422,1338.379,24.3,-18,-31.8,15.04
14887,-6.63,4.75,-34.37,307.617,-338.867,870.117,25.8,-19.2,-31.05,15.23
14896,5.18,7.73,-31.01,20.508,-277.832,1120.605,25.8,-19.2,-31.05,14.9
14905,3.08,7.85,-35.12,393.066,-426.758,1086.426,25.05,-18.45,-29.85,15.04
14915,4.3,5.67,-35.15,241.211,-351.562,1046.387,23.7,-21.45,-30.9,15.19
14925,3.72,3.6,-37.44,122.07,-766.602,1083.496,23.7,-21.45,-30.9,15.04
14935,6.08,1.19,-35.52,53.711,-421.387,1052.734,26.25,-22.05,-30.75,15.14
14945,8.56,0.15,-34.41,580.566,-432.617,668.457,24.75,-18.9,-32.55,15.19
14954,15.37,-1.82,-35.95,596.191,-604.004,1006.836,25.5,-18.9,-32.55,15.38
14964,-1.59,-1.95,-37.83,294.922,-568.848,934.57,25.5,-18.9,-31.05,15.14
14974,-18.21,-4.32,-41.85,-310.547,35.645,1569.336,24,-20.85,-31.5,15.23
14983,-6.62,-8.64,-39.35,210.937,-771.484,1172.363,24.9,-19.5,-31.95,15.14
14992,-6.35,-5.37,-37.34,-36.621,-272.949,785.645,24.3,-21.3,-31.8,14.9
15001,7.09,-6.97,-36.03,86.426,-442.383,687.5,24.3,-20.4,-32.55,15.23
15010,4.49,0.81,-34.21,-376.465,-713.867,1303.711,24.3,-20.4,-32.55,15.23
15019,-5.73,-3.5,-45.2,-25.391,-441.895,1111.328,24.6,-23.1,-32.4,14.9
15029,-6.02,-2.99,-42.25,-177.734,-703.613,1478.516,24.9,-20.7,-31.65,14.9
15038,-11.52,-6.86,-45.56,-276.855,-54.199,1368.164,24.75,-21.3,-30.75,15.14
15047,-3.54,0.04,-42.51,188.477,-309.082,1061.035,22.95,-21.45,-32.4,15.23
15056,-5.25,3.3,-38.79,218.262,-600.586,884.277,24.3,-21.3,-30.3,15.04
15066,-0.01,0.89,-46.76,208.008,-747.559,1177.246,24.6,-23.1,-31.65,15.43
15076,-2.75,1.87,-39.44,-113.281,-577.637,1659.668,23.55,-21.3,-32.25,15.33
15086,-10.34,5.14,-43.84,-1.953,-719.727,1064.453,22.05,-23.7,-33.3,15.04
15113,-3.44,2.74,-47.92,181.152,-357.422,725.098,24.15,-21.9,-31.65,15.33
15122,3.75,5.63,-37.74,221.191,-100.586,592.773,24.15,-21.9,-31.65,15.23
15132,0.4,0.69,-39.46,341.309,180.664,1327.148,23.4,-20.25,-31.65,15.14
15142,16.77,-1.28,-40.22,373.047,-387.207,856.934,24,-24.9,-31.5,14.9
15152,11.73,-6.73,-39.84,158.203,-683.105,1166.016,22.65,-25.05,-32.4,15.14
15162,-8.11,-2.99,-41.66,-210.937,-348.633,1346.68,24.6,-23.1,-31.95,15.23
15171,-12.48,-4.25,-34.05,-391.602,-307.129,550.293,24.6,-23.1,-31.95,14.8
15180,5.47,-6.68,-39.06,450.684,-934.082,356.445,22.65,-23.1,-32.4,14.99
15189,13.27,-7.24,-41.04,-108.398,-604.98,463.867,23.25,-22.05,-30.3,15.38
15199,-3.07,-1.66,-33.15,-187.5,-81.055,740.723,23.25,-22.05,-30.3,15.33
15208,4.05,-2.53,-39.82,-194.824,-707.52,1339.844,22.35,-24,-31.8,14.9
15217,6.21,-5.61,-36.16,464.844,-373.047,1182.617,23.55,-25.2,-30.75,15.14
15226,17.02,-8.61,-37.58,402.344,-731.934,981.934,21.3,-25.2,-31.5,15.14
15235,10.06,-0.34,-38.86,388.672,-459.961,923.828,22.95,-23.85,-31.2,14.99
15245,-4.53,4.97,-35.55,250.977,-291.504,598.633,22.95,-23.85,-31.2,15.04
15254,-2.96,4.76,-36.45,-5.859,-197.754,1048.34,22.95,-23.85,-31.2,15.19
15263,-5.79,0.37,-36.61,221.68,-530.762,881.348,22.35,-23.7,-32.25,15.14
15272,0.12,4.7,-30.63,-193.359,-342.773,630.371,22.65,-25.8,-30.9,15.19
15282,4.28,1.11,-31.65,-86.914,-728.027,1060.547,22.65,-25.8,-30.9,15.14
15291,3.05,-0.12,-39.89,-58.105,-489.746,1156.25,23.4,-23.85,-31.65,15.19
15301,1.21,-7.15,-36.75,323.73,-563.477,1297.852,22.95,-26.55,-30.9,15.14
15311,6.85,-5.72,-30.5,165.527,-400.879,733.887,21.6,-25.95,-31.8,15.23
15321,0.22,-5,-31.21,80.078,-514.16,1212.402,24,-25.65,-31.05,15.14
15331,-2.54,-0.85,-31.91,28.809,-106.445,1126.465,24,-25.65,-31.05,15.14
15341,-5.33,0.13,-35.74,-384.277,-233.887,991.211,22.95,-26.25,-31.95,15.33
15350,-1.93,-5.29,-32.49,440.43,-765.625,998.535,22.2,-27,-31.65,15.14
15359,1.3,0.73,-30.43,3.418,223.145,1285.645,22.2,-27,-31.65,15.14
15369,-3.15,-0.06,-24.63,236.816,-407.227,1385.742,21.9,-26.25,-31.65,14.9
15379,-6,-1.18,-33.08,44.922,-742.187,1220.703,22.2,-27.75,-31.65,14.85
15389,-2.34,2.73,-29.32,-270.508,-238.281,771.973,22.2,-26.55,-32.4,15.04
15399,11.37,-2.83,-32.81,61.035,33.691,1243.164,21.45,-27.75,-31.65,15.23
15409,4.18,11.5,7.14,-84.473,-253.906,841.309,20.55,-27.6,-31.8,15.14
15418,0.38,0.1,-11.32,-165.527,-269.043,746.094,20.55,-27.6,-31.8,15.14
15428,-7.66,-1.69,-28.37,-210.449,-399.414,691.406,22.2,-25.05,-31.95,15.33
15438,23.59,20.73,-43.14,-56.152,-687.5,1088.379,22.2,-27.75,-30.45,15.23
15448,6.46,-1.03,-61.7,229.004,-327.637,1021.484,22.2,-27.75,-30.45,14.8
15457,7.75,-7.67,-17.31,401.367,-609.863,908.691,20.25,-27.45,-31.2,15.14
15467,13.61,-5.08,-26.85,312.012,-397.461,644.531,22.05,-29.25,-31.8,15.19
15477,10.16,-1.42,-22.15,-140.625,-317.383,914.062,21,-26.55,-32.7,15.14
15487,-4.5,-1.39,-31.37,-154.297,-471.191,960.449,21.3,-26.85,-30.3,15.14
15497,7.59,-3.85,-18.39,257.324,-748.047,527.344,20.7,-28.2,-31.2,15.23
15507,1.24,1.16,-27.76,-101.563,-652.832,1129.883,21,-26.55,-31.2,15.23
15516,-8.09,1.41,-60.01,124.512,-195.312,676.27,20.85,-28.35,-31.05,15.04
15525,-14.21,0.21,-29.24,-192.383,28.32,1366.699,20.85,-28.35,-31.05,15.23
15534,-15.19,1.47,-28.65,-341.797,17.09,1291.992,20.1,-27.6,-29.55,15.14
15544,-2.7,-2.98,-31.73,-415.527,-589.355,996.582,20.1,-27.6,-29.55,15.23
15553,9.76,1.71,-36.02,504.395,-878.418,1038.086,20.7,-30.15,-31.2,15.14
15563,3.92,-1.47,-33.82,604.98,-560.059,1407.227,20.7,-30.15,-31.2,15.23
15573,14.24,-1.22,-35.38,58.594,-365.723,1021.973,20.55,-27.15,-31.5,15.04
15583,13.98,4.35,-29.71,148.926,-124.023,611.816,20.85,-28.8,-29.85,15.23
15607,1.62,-0.75,-34.57,-375.488,-33.691,1091.797,20.85,-28.8,-29.85,15.04
15617,-8.69,3.06,-52.95,193.848,-907.715,1332.52,19.35,-28.05,-31.5,15.14
15627,4.19,-2.95,-24.22,370.117,-952.637,928.223,19.65,-30.75,-30.75,15.14
15637,16.95,1.44,-18.29,290.039,-377.441,320.312,19.65,-30.75,-30.75,15.04
15646,6.27,0.68,-24.87,-360.352,-249.023,820.801,19.65,-30.75,-30.75,15.14
15655,-1.69,0.89,-28.41,-92.285,-226.074,783.691,20.1,-28.8,-31.5,15.14
15664,-11.73,-6.54,14.38,-67.383,-749.512,1515.625,18.9,-28.8,-31.8,15.04
15674,21.88,-3.44,-29.3,700.195,-309.57,936.035,18.15,-28.35,-31.05,15.14
15684,12.73,-2.13,-25.83,-23.437,333.008,934.57,18.6,-29.25,-31.05,15.14
15694,6.94,-1.05,-29.5,-54.688,323.242,1139.16,18.6,-29.25,-31.05,15.23
15703,-7.89,-3.02,-24.44,-298.34,-303.711,954.102,18,-28.2,-31.95,14.9
15712,3.5,-6.65,-25.95,178.711,-659.18,781.738,19.35,-29.25,-30.3,15.14
15722,7.66,-7.11,-22.11,-28.809,-620.605,860.352,19.35,-29.25,-30.3,15.23
15732,-9.05,2.47,-24.6,-259.766,282.715,1486.328,18,-29.4,-30.9,15.14
15741,-10.95,0.78,-27.1,-150.879,128.906,1381.348,18,-30.6,-31.65,14.85
15751,-6.74,3.22,-18.54,31.738,-257.812,1068.848,17.55,-28.95,-31.95,15.04
15761,-7.41,-2.82,-22.25,-5.371,51.758,1248.535,18,-30.15,-30.9,15.38
15771,9.27,5.22,-30.06,48.828,-100.586,1033.203,18,-30.15,-30.9,14.85
15780,4.6,4.12,-28.33,-157.715,45.898,1419.922,18.75,-27.75,-30.9,14.99
15789,15.11,-10.77,12.44,37.109,-234.375,1277.344,18.75,-27.75,-30.9,15.14
15798,-6.04,-3.35,-12.79,247.07,-339.355,1218.75,18,-30.6,-31.95,15.14
15808,11.71,0.42,-20.15,210.937,-427.734,321.289,18,-30.6,-31.95,14.9
15818,15.25,-0.07,-21.42,-152.344,-254.883,541.992,18.9,-30.45,-31.8,15.23
15828,-7.78,-10.61,-27.65,-54.199,-489.746,1511.23,19.2,-32.55,-30.9,15.14
15837,7.35,-3.37,-21.28,25.391,-547.852,870.117,18.9,-30.75,-31.8,15.38
15846,-1.49,-7.57,-31.21,-123.535,-7.812,779.297,17.55,-28.95,-30.15,14.99
15856,0.1,-6.69,-20.9,99.609,-562.5,952.148,17.55,-28.95,-30.15,15.14
15865,-23.7,-4.21,3.66,206.055,-163.086,952.148,16.2,-30.45,-31.05,15.14
15874,15.78,-3.37,-19.66,90.82,-665.039,357.422,17.55,-30.6,-30.45,14.85
15883,8.18,0.32,-25.05,-251.465,-325.195,660.645,17.55,-30.6,-30.45,15.04
15892,3.32,7.4,-27.13,-275.391,175.293,522.461,17.1,-29.55,-33,15.23
15902,-11.24,-1.24,-29.46,9.766,25.879,1359.863,16.8,-30.15,-30.9,15.04
15912,-5.89,-1.47,-24.53,-40.527,-158.691,1689.941,16.8,-30.15,-30.9,15.23
15921,5.22,1.69,-21.36,209.473,-245.605,1084.961,17.1,-29.55,-31.5,15.38
15930,9.98,-0.99,-29.73,280.762,-559.082,1092.285,17.1,-29.55,-31.5,15.14
15939,8.19,3.23,-23.17,35.156,-266.113,1163.574,17.25,-31.05,-29.4,15.04
15949,-9.66,0.11,-24.16,-148.926,212.891,1567.871,16.8,-30.6,-31.2,15.23
15959,-5.12,2.31,-20.69,-20.508,-808.105,1019.531,17.4,-29.55,-31.8,14.99
15968,1.79,-3.76,-26.6,-180.176,-499.023,883.789,17.4,-29.55,-31.8,15.14
15978,-14.16,-3.69,-27.12,-110.352,-74.219,1234.375,16.05,-29.4,-30.9,15.23
15987,8.34,-3.63,-26.64,222.656,-120.605,927.734,17.1,-29.25,-31.5,15.19
15997,0.66,4.22,-26.61,-128.418,326.66,870.117,16.65,-30.45,-30.75,15.04
16007,10.37,0.24,-17.86,-26.855,-101.074,1195.801,15.75,-29.85,-30.9,15.23
16017,0.74,-0.63,-28.85,-100.098,-406.25,1196.289,16.8,-30.6,-29.7,14.9
16027,-3.98,1.43,-30.21,345.703,-709.473,926.758,16.5,-31.05,-29.7,15.19
16037,5.79,-3.48,-21.96,-124.512,-770.02,1180.664,16.8,-30.6,-31.2,15.04
16047,-19.33,0.63,-26.94,-328.125,340.332,1285.645,16.8,-30.6,-31.2,15.23
16057,-2.4,-0.48,-20.6,181.641,-329.102,1063.477,15.75,-31.35,-30.9,15.14
16067,-5.89,-3.45,-26.22,-229.004,-216.797,1413.086,15.9,-30.75,-30.75,15.14
16077,-1.18,-2.72,-32.18,402.832,-265.137,899.414,16.05,-32.25,-30.15,15.52
16103,-5.38,-5.23,-18.69,45.898,-427.734,1297.363,17.25,-30.15,-31.2,15.43
16112,-2.09,-6.01,-30.93,126.465,-999.512,714.355,14.7,-30.45,-28.35,15.14
16122,-6.71,-8.47,-29.49,-258.789,-839.355,1161.621,15.3,-31.35,-30.9,15.19
16131,-8.18,-2.93,-27,98.633,184.57,1076.66,15.3,-31.35,-30.9,15.04
16141,4.78,-4.02,-16.03,331.543,-458.008,1111.328,15.45,-32.85,-30.75,15.38
16151,3.79,1.6,-27.69,264.648,-420.898,1097.656,15.15,-32.85,-30.75,15.23
16160,-7.41,5.79,-28.34,-151.855,-421.387,546.875,15.15,-32.85,-30.75,15.23
16170,-15.47,3.42,-29.7,-136.23,-347.168,699.707,15.45,-31.95,-28.8,15.14
16179,0.48,5.43,-29.25,-257.812,229.98,536.621,15.3,-32.55,-31.65,15.23
16188,5.43,3.76,-33.98,22.461,160.156,887.207,15.75,-31.05,-30.15,15.23
16198,2.57,-2.82,-25.73,-574.707,-352.051,1562.012,16.2,-31.05,-30.15,15.23
16208,11.74,-2.75,-27.56,266.113,-604.492,992.187,16.2,-31.65,-29.1,15.33
16218,9.98,4.15,-20.24,358.887,-603.027,770.508,16.2,-31.65,-29.1,14.9
16228,-1.11,2.47,-25.44,-69.824,-338.867,788.086,14.7,-30.45,-29.55,15.04
16238,-6.38,2.02,-19.57,-250.977,-287.109,901.367,14.55,-32.55,-29.4,15.23
16248,3.99,1.5,-28.5,-267.578,-209.961,902.832,14.55,-32.55,-29.4,15.23
16258,-6.76,0.15,-27.53,-190.918,-113.77,1251.465,16.65,-30.75,-29.85,15.14
16268,-2.57,4.76,-26.95,71.777,-619.629,1241.211,14.1,-31.8,-30.9,14.9
16278,5.22,0.59,-24.79,-65.918,-407.715,829.59,14.4,-30.45,-30.3,15.23
16288,1.06,5.29,-29.79,-37.598,-238.281,1371.094,15.3,-31.35,-31.2,15.23
16297,-0.52,11.53,-28.68,-415.039,239.258,1082.52,15.3,-31.35,-31.2,14.85
16307,-1.31,3.11,-29.53,137.695,-466.309,1082.031,14.55,-31.35,-30.45,15.14
16317,-6.07,1.48,-27.66,-538.086,-146.484,811.523,14.85,-31.05,-30.15,15.23
16326,12.69,5.04,-25.79,239.258,-383.301,425.293,14.85,-31.05,-30.15,15.23
16336,1.11,0.32,-35.22,-274.902,206.543,884.277,16.5,-31.05,-30.45,15.38
16346,-9.07,-2.69,-29.54,-175.781,-321.777,1482.91,14.1,-31.05,-30.45,15.04
16356,-2.99,-4.76,-28.47,168.945,-142.578,1004.395,14.1,-31.8,-30.45,15.33
16366,-2.79,-2.89,-36.66,-371.094,-384.766,885.254,13.5,-31.2,-31.8,15.04
16375,4.37,0.57,-23.18,-72.266,-562.012,626.953,13.8,-30.6,-30.15,15.19
16384,22.09,-3.45,-18.29,131.348,-938.965,1080.566,13.8,-30.6,-30.15,15.14
16393,22.22,4.05,-32.7,-31.738,-762.695,534.18,13.5,-31.65,-30.3,15.19
16402,8.53,3.02,-23.21,-472.168,-885.742,1360.84,13.95,-31.2,-30.75,15.19
16411,-6.82,-2.34,-40.06,-44.922,-1150.879,1166.016,13.95,-31.2,-30.75,15.19
16421,-10.56,-3.11,-27.56,-264.648,-723.145,1294.922,14.4,-30.45,-30.75,15.19
16431,6.5,-4.5,-26.65,-349.609,-566.406,641.113,13.95,-31.65,-31.5,14.9
16441,2.66,-2.38,-26.44,-86.426,-586.426,1224.121,14.4,-31.65,-29.85,15.04
16450,-10.84,0.85,-30.25,-351.562,-864.258,1526.855,13.35,-31.05,-30.15,15.14
16460,1.73,0.73,-31.06,-283.691,-742.676,821.777,13.05,-31.8,-30.45,15.14
16470,-7.08,-0.47,-36.26,-222.656,-615.234,942.383,14.1,-31.35,-31.2,15.23
16480,-6.05,-1.31,-36.31,-166.016,-116.699,983.887,14.4,-31.95,-30.3,14.99
16490,4.02,-1.16,-26.76,152.344,-285.645,1444.824,14.4,-31.95,-30.3,15.04
16499,11.95,0.71,-30.91,149.414,-680.664,1239.746,13.35,-31.35,-30.15,15.14
16508,10.56,-0.63,-30.2,53.223,-713.379,1140.625,13.8,-31.8,-30.45,15.19
16518,2.66,-4.42,-26.35,40.039,-356.445,1126.953,13.95,-32.85,-30.75,15.23
16527,2.39,-0.74,-37.09,94.727,-472.168,617.187,13.05,-31.8,-29.4,15.23
16537,2.4,-2.21,-26.47,136.23,-438.477,936.523,13.05,-31.8,-29.4,15.04
16546,3.48,3.08,-29.23,-167.969,-474.609,1282.715,12.75,-33.15,-30.3,15.23
16556,8.3,4.72,-28.6,-89.844,-26.367,360.84,13.2,-31.2,-29.85,15.23
16566,-0.9,5.3,-34.12,-262.695,-415.527,1053.223,12.6,-31.8,-31.65,15.14
16576,10.63,3.38,5.37,-233.887,-400.391,669.922,13.35,-33.45,-29.7,15.38
16601,18.89,0.72,102.39,61.035,-383.301,764.648,13.35,-33.45,-29.7,15.19
16610,4.46,1.11,-7.61,78.125,-652.344,1280.273,13.05,-30.6,-28.95,15.14
16619,3.04,4.46,-27.14,-166.992,-752.93,663.086,13.05,-30.6,-28.95,15.14
16629,-2.41,-5.02,-32.81,-188.477,-181.641,1137.695,12.3,-32.25,-29.7,15.19
16638,6.2,1.69,-35.72,-123.047,-597.168,728.516,13.35,-32.55,-29.4,15.33
16647,6.59,-2.85,-37.58,-205.566,-289.551,960.937,13.5,-32.4,-29.55,15.33
16657,3.34,-0.58,-34.62,-233.398,-650.879,1429.688,13.5,-32.4,-29.55,15.19
16666,13.72,1.27,-41.84,-211.426,-867.676,882.812,12.75,-32.4,-30.3,15.23
16675,1.53,1.36,-35.68,-16.602,-913.574,1192.871,13.2,-33.15,-29.55,15.14
16685,0.17,0.86,-38.16,-149.414,-373.047,1155.273,13.2,-33.15,-29.55,15.23
16694,-7.25,-3.02,-65.73,-242.187,-322.266,1267.578,12.6,-33,-29.7,15.04
16704,-1.24,1.69,-57.96,-194.824,-402.832,1214.844,11.85,-31.35,-28.65,15.19
16713,8.06,4.85,-30.69,-49.805,-551.758,655.762,13.35,-32.55,-28.65,14.99
16723,13.83,8.66,-3.36,-205.078,-653.32,1114.746,12.6,-33.45,-29.4,15.19
16732,1.21,4.79,-23.11,-55.176,-142.09,977.051,12.6,-33.45,-29.4,15.19
16741,0.6,8.23,-37.11,-163.086,-431.152,1091.309,11.7,-32.4,-29.1,15.04
16750,-2.72,4.6,-43.84,42.48,-470.215,815.43,11.25,-32.85,-29.85,14.9
16759,-8.21,-1.11,-38.2,-215.82,-177.734,1166.016,11.25,-32.85,-29.85,14.9
16768,-3.2,-1.79,-41.41,-104.98,-364.258,1296.387,11.25,-32.85,-29.85,15.14
16777,-5.41,1.8,-32.55,68.848,-648.926,1243.164,11.85,-32.25,-29.7,15.23
16786,4.27,-5.42,-37.31,-38.086,-477.539,1047.363,12.3,-32.25,-29.4,15.14
16795,0.18,-5.38,-44.02,-426.758,-204.102,1147.949,12,-32.85,-28.35,15.38
16805,3.62,0.22,-39.08,-290.039,-283.203,406.25,11.85,-33.75,-28.65,15.14
16814,2.63,-4.11,-39.93,-337.891,-465.82,1244.629,11.85,-33.75,-28.65,15.04
16823,6.95,0.56,-40.03,-114.746,-670.41,1128.418,11.1,-32.55,-28.65,15.23
16832,5.95,0.95,-37.45,-324.219,-513.672,1120.117,10.95,-33.15,-28.8,15.33
16842,6.7,-1.43,-37.94,-224.609,-398.437,894.043,10.95,-33.15,-28.8,14.9
16851,-0.31,-5.79,-37.96,-194.336,-457.52,1512.695,10.65,-32.25,-28.2,15.14
16861,5.04,-2.92,-39.72,-88.867,-373.535,954.59,10.5,-34.05,-29.1,15.23
16871,10.47,-2.31,-34.05,-72.266,-479.492,503.418,12,-32.85,-29.1,15.33
16881,8.18,-1.75,-40.25,-95.703,-748.535,1299.805,11.85,-33.45,-28.2,15.33
16891,1.4,-0.42,-41.66,-401.367,-578.613,1331.543,11.85,-33.45,-28.2,15.04
16900,6.71,0.05,-36.66,-125.488,-855.469,1079.102,11.85,-33.75,-30.15,15.14
16910,-2.57,-1.66,-39.95,-15.137,-939.453,1102.539,10.35,-34.2,-27.9,15.33
16920,-1.21,-1.64,-37.86,-86.914,-474.609,811.035,10.35,-34.2,-27.9,15.04
16929,-5.54,-0.89,-42.3,4.883,90.82,1299.316,10.5,-34.35,-28.8,14.99
16938,-2.1,-1.6,-36.02,-182.129,-837.891,1340.332,9.15,-33.75,-27.9,15.23
16947,4.92,-1.11,-31.66,-191.406,-577.637,908.203,9.6,-34.65,-29.4,15.33
16957,4.05,-5.5,-41.01,133.301,-911.621,1057.617,9.75,-34.35,-29.85,14.9
16967,1.19,-3.71,-39.66,-156.738,-855.957,863.281,9.9,-34.65,-28.65,15.19
16976,-1.63,-2.17,-44.49,-174.805,-490.234,818.359,9.3,-34.05,-28.05,14.99
16986,-5.17,0.07,-51.44,-49.805,-249.023,1604.98,9.6,-33.75,-28.95,15.38
16996,-9.97,0.14,-36.23,-187.988,27.832,865.234,9.6,-33.75,-28.95,15.19
17006,-2.47,1.53,-31.06,-82.52,-291.992,674.805,9.9,-34.95,-28.2,15.38
17015,2.12,0.39,-35.37,-123.047,-383.789,1546.875,9,-34.8,-28.8,15.04
17024,3.47,-0.82,-41.63,28.32,-450.195,1232.422,9,-34.8,-28.8,15.23
17033,0.16,0.52,-37.14,6.348,-129.395,1344.727,9.3,-34.05,-28.8,15.14
17043,1.34,-3.02,-29.19,-41.504,-645.02,1325.195,9.15,-34.2,-28.2,15.14
17053,10.81,2.25,-37.82,-13.672,-182.617,860.352,8.55,-33.15,-28.35,15.04
17062,8.81,-1.12,-38.2,-228.027,-971.191,993.164,8.55,-33.15,-28.35,15.14
17086,1.16,-3.89,-39.98,-295.41,-792.969,916.504,7.8,-35.25,-28.05,15.23
17095,-5.95,-2.26,-41.36,-197.266,-750.977,1346.68,7.95,-34.95,-27.9,15.04
17105,4.06,-4.53,-36.09,-27.832,-499.023,1117.676,7.95,-34.95,-27.9,15.19
17114,-8.11,3.47,-39.78,-202.637,-140.625,486.328,9.3,-35.25,-28.8,15.33
17124,-8.5,-0.83,-37.29,-71.777,20.508,1032.715,7.95,-34.65,-28.2,15.04
17133,2.1,2.46,-32.63,-236.328,-236.816,620.605,7.65,-34.65,-28.65,15.14
17143,4.92,1.94,-38.57,-245.605,-407.227,916.504,7.65,-34.65,-28.65,15.04
17153,-0.49,2.08,-38.66,-299.805,-29.785,1104.492,8.55,-35.25,-29.1,15.14
17163,-6.83,4.18,-35.93,-126.953,-280.273,1368.652,8.55,-35.25,-29.1,15.04
17173,4.02,-2.01,-32.66,-15.625,-103.027,1173.828,7.8,-34.35,-28.35,15.23
17182,8.45,-10.73,-77.61,97.168,-524.902,790.527,7.95,-35.4,-28.2,15.23
17191,1.05,-4.9,-62.89,-362.793,-697.754,1178.223,7.95,-35.4,-28.2,15.23
17200,1.66,-1.57,-34.99,-54.688,-267.578,963.379,8.25,-36.45,-28.05,15.19
17210,0.59,2.92,-38.31,-146.484,121.582,473.145,7.05,-35.55,-28.35,15.04
17219,-6.37,-2.45,-45.64,148.926,-261.23,822.754,6.6,-35.55,-27.6,15.23
17229,-11.62,0.32,-36.34,-170.898,-488.281,1176.27,7.2,-36.15,-27.9,15.23
17239,-17.13,1.89,-34.44,-394.043,-256.348,1021.973,7.2,-36.15,-27.9,15.14
17248,-5.83,-1.56,-36.38,-0.977,-582.52,1013.672,6.45,-36.6,-28.2,15.33
17258,0.69,0.34,-41.74,-177.246,-272.949,1530.762,5.55,-36,-26.55,14.99
17268,4.17,1.83,-41.18,-95.215,-191.895,1345.215,5.55,-36,-26.55,15.14
17277,10.76,0.43,-39.86,64.941,3.906,1085.938,6.45,-35.85,-28.2,15.14
17287,16.2,2.25,-37.23,-221.68,-676.27,1090.332,6.15,-37.05,-26.7,15.14
17297,16.24,-0.47,-35.27,-116.211,-1337.402,1004.883,7.05,-36.75,-26.85,15.19
17307,7.31,-3.73,-36.16,93.75,-697.754,1213.867,5.1,-36.75,-27.6,15.23
17317,4.34,-2.29,-40.53,-274.902,-1149.902,1564.453,5.1,-36.75,-27.6,15.04
17327,-9.47,1.33,-42.42,8.789,-353.516,938.477,5.1,-37.95,-28.05,15.04
17337,-2.6,-4.09,-46.5,17.09,-934.57,1096.191,6.15,-37.35,-27.9,15.14
17347,4.45,-1.56,-49.6,-385.254,-463.867,702.637,6.15,-37.35,-27.9,15.33
17357,-3.95,-4.15,-46.28,7.324,-510.254,1126.465,4.95,-37.05,-27.15,15.38
17367,-14.74,-0.21,-47.17,-357.422,-84.961,1209.961,4.2,-37.8,-27.9,14.99
17377,-3.5,-4.31,-44.38,96.191,-679.687,1709.961,5.7,-37.35,-27.9,15.14
17387,-1.43,2.11,-43.05,-120.117,-338.379,706.543,3.9,-36.45,-27.6,15.23
17396,9.22,-1.54,-47.28,-99.121,-730.957,884.277,3.9,-36.45,-27.6,15.19
17405,8.72,0.48,-42.69,-145.508,-1096.191,878.418,3.75,-37.35,-27.9,15.04
17415,-5.59,-2.18,-54.81,-305.176,-863.77,678.711,3.75,-37.35,-27.9,14.9
17424,2.56,-1.1,-46.75,-7.324,-927.734,989.258,4.35,-36.75,-26.85,15.38
17433,5.24,-0.61,-59.15,-14.16,-811.523,785.645,4.35,-36.75,-26.85,15.38
17442,-0.34,-9.22,-51.18,-97.656,-648.926,1278.809,4.5,-37.05,-27.45,15.14
17452,6.18,-4.44,-50.52,-189.941,-880.371,763.672,2.85,-37.95,-27.3,15.33
17461,-7.57,-5.76,-56.53,9.277,-890.625,993.164,3.45,-36.15,-27.15,14.85
17471,-13.05,0.09,-41.24,-312.988,-642.09,962.891,2.4,-36.45,-26.85,14.99
17480,-8.82,-5.69,-45.28,-190.918,-738.281,1079.59,2.4,-36.45,-26.85,15.23
17490,5.14,2.92,-44.91,-7.812,-677.246,969.727,2.1,-37.95,-26.55,15.14
17500,4.69,1.4,-50.12,-440.918,-628.418,1558.594,1.65,-37.2,-27.3,15.38
17510,5.96,5.12,-46.05,-334.961,-599.609,1091.797,1.65,-37.2,-27.3,15.23
17520,7.73,6.43,-46.38,-242.676,-744.141,1135.254,0.75,-38.25,-27.45,15.33
17530,-8.08,3.95,-47.24,-135.742,-504.395,969.238,1.5,-37.8,-27.15,15.14
17539,-1.21,-2.68,-48.92,-10.254,-496.582,985.84,1.8,-37.8,-27.9,15.23
17548,-9.21,-1.34,-50.5,-78.125,-313.965,1739.258,0.9,-37.95,-27.3,15.19
17557,-2.56,-4.18,-51.49,-165.039,-556.152,1008.301,0.9,-37.95,-26.55,15.04
17582,-2.76,-5.63,-53.06,-345.215,-162.109,725.586,1.2,-38.4,-27.3,14.99
17591,0.42,-5.28,-48.37,-150.879,-734.375,1390.625,1.2,-38.4,-27.3,15.38
17600,3.62,-5.06,-43.31,-36.621,-585.449,1238.281,-0.9,-37.65,-26.55,15.23
17609,-3.16,-0.07,-50.21,-390.625,-786.621,1086.426,0.75,-37.8,-26.4,15.33
17618,8.66,3.77,-43.85,-187.988,-287.598,826.172,0,-37.35,-25.95,15.19
17627,14.79,-0.12,-44.34,-197.754,-1145.508,1305.176,-0.45,-37.65,-27.6,15.23
17637,1.38,3.58,-47.02,248.535,-1240.723,926.27,-0.75,-38.25,-26.7,15.19
17647,-18.94,2.7,-46.1,-172.363,-1343.262,1765.625,-0.3,-37.35,-27.45,15.14
17657,-12.19,1.98,-48.84,-273.437,-653.809,894.531,-1.05,-38.25,-27.45,15.38
17667,-12.07,2.61,-48.68,-184.57,-582.031,1095.703,-1.05,-38.25,-27.45,14.8
17677,-7.46,6.12,-45.51,119.141,-103.027,1120.117,-2.1,-36.75,-28.05,15.33
17686,0.66,3.43,-47.39,-11.23,-387.207,798.828,-1.5,-37.35,-27.9,15.38
17696,1.99,-1.38,-46.82,-200.195,-567.871,1234.375,-1.5,-37.35,-27.9,15.19
