Time_ms,GyroX_degps,GyroY_degps,GyroZ_degps,AccelX_g,AccelY_g,AccelZ_g,MagX_uT,MagY_uT,MagZ_uT,Temp_C
1310,0.85,1.16,-2.08,-23.926,28.809,1014.160,-22.35,-15.60,-26.55,14.61
1326,-0.47,1.76,-1.61,-18.555,38.574,1018.555,-21.45,-15.45,-26.70,14.52
1335,-2.27,-1.00,1.40,-18.066,25.879,1005.859,-22.05,-15.30,-26.85,14.37
1345,1.41,-0.63,1.05,-23.437,44.922,1002.930,-21.90,-15.45,-26.70,14.80
1355,-0.20,-2.00,-0.52,-13.672,27.832,1012.207,-21.90,-15.45,-26.70,14.52
1365,-0.52,2.14,-0.12,-30.762,42.969,1009.766,-21.30,-16.50,-26.85,14.32
1375,0.85,-0.61,1.46,-20.508,50.293,1046.387,-22.35,-15.60,-26.85,14.61
1385,0.07,0.26,-1.90,-15.625,45.410,1020.996,-21.45,-17.40,-25.95,14.71
1397,-1.78,-0.51,-1.76,-7.812,69.336,1022.949,-22.95,-16.20,-27.15,14.66
1407,0.13,0.78,1.33,-17.090,48.340,1012.695,-21.30,-16.05,-27.30,14.52
1417,-1.44,-1.15,1.96,-17.090,34.668,1009.766,-22.65,-16.65,-26.40,14.66
1427,-0.63,0.57,-0.56,-11.230,24.902,1007.812,-22.20,-15.90,-27.45,14.66
1437,-1.55,2.24,0.32,-7.812,29.785,1019.043,-22.20,-15.90,-27.45,14.28
1447,0.33,2.09,-1.69,-1.465,27.832,1012.207,-22.95,-16.65,-27.90,14.61
1457,-0.08,2.67,2.45,-5.371,26.855,1018.555,-22.95,-16.20,-27.45,14.66
1469,-1.82,0.60,1.11,-5.371,12.695,1007.324,-22.95,-16.20,-27.45,14.37
1479,0.29,0.14,-0.32,-9.277,30.762,1023.926,-23.25,-15.60,-26.55,14.66
1489,-0.79,0.73,-0.53,-8.301,30.762,1020.020,-21.90,-15.90,-27.15,14.80
1499,1.21,-0.89,-0.44,-3.906,16.113,1034.668,-21.60,-16.50,-25.80,14.61
1509,-0.74,-2.95,-1.66,-15.625,38.086,1022.949,-22.35,-16.05,-27.30,14.66
1519,1.32,1.27,-1.60,2.930,39.063,1022.461,-22.35,-16.05,-27.30,14.28
1528,-1.08,0.50,-1.79,-8.301,33.203,1029.785,-21.30,-15.60,-26.55,14.66
1540,0.75,-3.55,-2.10,-12.695,40.039,1027.832,-21.00,-15.45,-25.95,14.66
1550,-0.04,-1.02,-1.82,-4.395,46.387,1019.043,-21.00,-15.45,-25.95,14.61
1560,-0.90,-0.89,-1.43,-38.574,36.133,1014.648,-21.00,-16.65,-26.40,14.52
1570,0.02,-1.91,-1.47,-22.461,48.828,1015.625,-21.45,-15.45,-27.45,14.66
1580,-0.04,-1.06,-2.14,-28.320,41.992,1004.883,-21.30,-15.60,-26.55,14.47
1590,0.62,0.81,-0.83,-12.695,38.086,1015.137,-21.30,-16.05,-26.10,14.66
1600,-1.51,-1.21,-0.43,-21.484,46.387,1009.766,-21.30,-16.05,-26.10,14.66
1612,-0.61,-0.34,-0.07,-33.691,33.691,997.559,-21.00,-15.90,-26.70,14.66
1622,0.41,-0.07,0.36,-18.555,41.016,1013.184,-20.25,-15.45,-26.40,14.52
1632,1.36,0.24,0.35,-11.230,46.387,1031.250,-20.25,-15.45,-26.40,14.66
1642,0.93,0.16,-1.84,-26.367,33.203,1013.184,-21.30,-14.40,-26.55,14.61
1652,2.08,0.70,1.73,-22.461,41.504,1019.531,-22.20,-15.45,-25.95,14.66
1662,1.83,0.61,0.56,-19.043,35.156,1036.621,-21.45,-15.00,-26.40,14.52
1671,-1.14,-1.60,-1.46,-19.531,36.133,1025.391,-22.20,-15.00,-27.15,14.71
1683,-0.74,-1.19,-0.07,-24.902,33.691,1035.156,-21.90,-15.45,-25.95,14.80
1693,1.87,0.34,0.72,-9.766,32.227,1020.508,-22.05,-15.60,-26.10,14.61
1702,1.16,-1.39,-1.34,-27.344,32.227,1025.391,-22.05,-15.60,-26.10,14.80
1712,-0.01,0.43,1.48,-11.719,38.574,1014.648,-22.05,-15.60,-26.10,14.52
1722,-1.32,-1.18,0.18,-10.742,43.945,1016.113,-21.90,-16.20,-26.70,14.37
1732,0.68,-2.12,2.41,-11.230,35.645,1010.742,-22.35,-15.60,-27.60,14.80
1742,-0.73,-3.29,-1.62,-28.809,39.551,1016.113,-22.35,-15.60,-27.60,14.71
1754,-1.13,0.34,-0.40,-21.973,33.203,1008.301,-21.30,-15.60,-26.55,14.80
1764,-1.66,-2.11,-1.47,-25.391,31.738,1008.789,-21.30,-15.60,-26.10,14.52
1774,1.35,-1.05,-1.31,-9.766,41.504,1026.367,-22.05,-15.30,-26.85,14.80
1784,-1.53,-0.46,-2.70,-21.973,30.762,1029.297,-22.05,-15.30,-26.85,14.66
1794,-0.11,0.55,-0.20,-6.348,39.063,1019.531,-21.00,-15.00,-26.40,14.85
1804,-0.66,1.24,1.84,-7.812,25.879,1031.250,-21.45,-16.20,-27.45,14.47
1814,1.11,-1.31,-1.96,7.324,9.277,1040.039,-21.45,-16.20,-27.45,14.47
1837,0.10,0.62,-0.24,48.340,45.898,1024.902,-21.45,-15.45,-27.15,14.37
1847,0.70,0.07,-0.76,41.016,29.297,961.914,-21.60,-14.85,-26.55,14.66
1857,-1.79,-0.31,1.38,49.805,1.953,1012.695,-22.20,-15.00,-26.40,14.80
1867,-0.79,1.21,-4.14,19.043,63.965,1026.855,-22.20,-15.00,-26.40,14.80
1877,-0.98,0.56,-2.01,61.523,51.270,1038.574,-21.00,-15.45,-25.65,14.61
1887,-2.79,1.63,-0.96,39.063,55.664,1036.133,-20.25,-14.70,-25.95,14.66
1899,0.47,-0.14,0.61,62.988,41.504,1010.254,-20.25,-14.70,-25.95,14.61
1909,-1.73,-0.36,0.81,39.551,43.945,1031.738,-21.30,-15.60,-26.55,14.71
1919,-0.21,-3.17,-1.06,16.113,30.273,1037.598,-21.30,-16.05,-26.85,14.61
1929,-1.44,-3.37,-2.47,41.016,35.156,1024.902,-21.90,-17.40,-25.65,14.66
1939,0.82,0.99,-0.29,25.391,32.227,1028.320,-21.45,-15.90,-25.95,14.71
1949,-0.78,-1.95,1.53,20.020,24.414,1014.160,-22.20,-16.65,-25.95,14.66
1959,-0.40,-0.31,-0.19,24.414,33.691,1018.555,-21.30,-16.05,-26.55,14.71
1970,0.11,-0.05,-2.51,41.504,40.527,1020.508,-22.95,-16.20,-26.40,14.90
1980,-0.32,-0.13,-0.59,27.832,37.109,937.012,-22.95,-16.20,-26.40,14.61
1990,-0.71,-2.63,-2.95,16.113,34.180,1040.039,-22.80,-16.50,-27.30,14.61
2000,-0.16,-1.87,3.63,52.734,44.434,994.629,-22.65,-16.65,-28.95,14.99
2010,-0.63,-1.72,-2.10,31.250,27.832,1025.391,-23.25,-15.60,-27.30,14.66
2020,0.24,-2.09,2.77,57.617,40.039,985.352,-23.25,-16.80,-27.30,14.90
2029,-1.47,0.89,-0.27,50.781,27.344,1008.301,-23.55,-16.05,-28.05,14.52
2041,0.06,2.00,-1.01,41.504,33.691,1008.789,-24.30,-17.25,-27.30,14.80
2051,-0.47,-1.18,-0.86,55.664,30.273,1016.602,-22.95,-16.20,-27.90,14.90
2061,-0.60,0.34,-0.36,16.113,34.180,1007.324,-22.95,-16.20,-27.90,14.66
2071,-0.37,0.49,-3.60,12.207,26.367,1022.461,-22.20,-15.45,-27.90,15.04
2081,-1.21,-0.30,-0.82,7.812,28.320,1007.812,-22.35,-15.30,-26.85,14.90
2091,-0.15,0.87,-1.98,4.395,19.531,1023.926,-22.35,-15.30,-26.85,14.66
2101,0.21,0.54,-2.66,-1.465,5.859,1035.645,-22.35,-14.10,-26.85,14.90
2113,-1.69,1.53,-2.29,91.309,21.973,991.699,-22.65,-15.00,-27.15,14.61
2123,-0.61,-1.37,-0.85,28.809,66.895,1060.059,-23.55,-15.30,-28.35,14.90
2133,-0.92,-0.44,-1.48,67.871,30.273,1037.598,-23.55,-15.30,-28.35,14.66
2143,-0.03,-0.07,-1.63,74.707,14.160,1053.223,-24.00,-15.30,-28.35,14.80
2153,0.95,-1.57,-0.09,-0.977,26.855,1013.672,-24.60,-15.45,-28.20,14.85
2163,-0.67,-2.03,-0.24,50.781,24.902,975.586,-24.60,-15.45,-28.20,14.90
2173,-0.73,0.12,-0.42,-25.391,41.016,1022.949,-23.70,-16.65,-28.20,14.85
2185,-1.46,2.75,-2.35,-7.324,59.570,971.191,-24.30,-16.05,-27.30,14.99
2195,-1.57,-0.91,1.15,48.828,22.949,1040.527,-24.30,-17.25,-28.35,14.71
2205,-1.11,-1.73,0.95,76.660,13.184,935.059,-24.00,-16.05,-26.55,14.80
2215,-1.16,-0.02,-1.47,59.082,17.578,1064.941,-24.00,-16.05,-26.55,14.71
2225,-0.14,-1.59,-1.81,110.840,57.129,1003.906,-25.05,-15.30,-27.60,14.66
2235,-0.02,-1.12,-2.11,52.246,22.461,1013.672,-23.40,-15.00,-27.15,14.85
2245,-0.86,-0.42,0.02,30.762,51.270,959.961,-23.40,-15.00,-27.15,14.80
2257,-0.76,-0.53,0.63,-7.324,68.848,1028.809,-22.35,-14.85,-26.55,14.71
2267,-1.47,1.06,1.29,57.129,21.973,983.887,-22.35,-15.30,-26.55,14.85
2277,-1.72,1.62,-0.64,71.289,20.508,984.863,-21.30,-16.80,-27.30,14.85
2287,-0.02,-0.43,1.16,82.031,32.227,1049.805,-21.45,-16.20,-26.40,14.80
2297,-0.34,-2.38,-2.67,61.035,48.828,975.586,-22.05,-15.60,-25.05,14.61
2307,0.61,-1.21,-0.31,41.504,34.668,1065.430,-21.90,-15.00,-25.20,14.85
2317,0.36,0.55,0.76,18.555,24.902,935.547,-21.60,-15.60,-25.80,14.85
2331,-1.34,0.00,-1.76,67.383,35.156,1008.789,-21.60,-15.60,-25.80,14.85
2341,-0.46,-2.02,1.24,111.816,49.316,978.516,-22.05,-17.70,-26.55,14.66
2357,-2.08,-1.48,-3.17,100.586,54.688,956.055,-21.30,-16.05,-25.05,14.66
2366,0.09,-2.24,-0.66,58.105,25.391,1089.355,-19.95,-15.45,-25.20,14.90
2376,0.59,-0.73,0.64,4.883,63.965,1004.883,-20.10,-15.60,-25.80,14.80
2385,1.02,-1.46,-2.89,88.379,-19.043,982.910,-20.85,-15.30,-25.80,14.52
2395,0.57,-0.45,-1.18,123.047,47.363,1017.090,-19.95,-15.00,-25.65,14.80
2405,-0.21,-0.66,1.86,72.754,6.348,1011.230,-19.95,-15.00,-25.65,14.85
2417,-2.89,0.30,1.53,46.875,18.066,1051.758,-21.30,-16.05,-26.55,14.71
2427,-1.76,3.14,-0.95,68.359,48.340,965.332,-21.60,-16.50,-26.55,14.90
2437,-3.49,-0.91,-1.99,85.938,28.809,1035.156,-21.60,-16.50,-26.55,14.80
2447,0.26,-0.56,-3.28,126.953,13.672,972.656,-22.35,-16.05,-26.85,15.04
2457,-1.14,0.75,-2.22,26.367,18.555,1077.637,-23.25,-15.60,-28.05,14.85
2467,0.87,-1.60,2.27,38.574,31.250,1038.086,-23.70,-16.20,-27.90,14.66
2476,0.02,-1.15,-2.30,98.633,13.672,1024.902,-23.25,-14.85,-28.80,14.99
2487,-1.15,-2.03,0.37,130.371,-2.930,950.195,-23.25,-14.85,-28.80,14.85
2497,0.88,0.47,-0.60,51.270,37.109,1062.012,-24.75,-15.60,-28.80,14.71
2507,-0.79,0.52,-2.18,28.320,29.297,1103.027,-24.75,-15.30,-28.35,14.85
2517,0.28,-0.81,-1.89,141.113,-2.441,1013.184,-24.75,-15.30,-28.35,15.04
2527,-0.21,0.18,-1.03,95.215,-17.090,1022.461,-23.55,-15.60,-27.30,14.66
2537,1.08,-0.84,-3.44,-1.953,16.602,1031.250,-24.00,-15.30,-27.30,14.85
2547,-2.24,-1.32,-2.01,92.773,31.738,1036.133,-21.90,-15.90,-27.15,14.85
2558,-2.04,-1.61,-1.51,133.789,5.859,1052.246,-22.05,-14.85,-25.35,14.90
2568,-0.49,-0.95,-1.85,31.738,52.246,927.246,-21.30,-14.40,-25.80,14.85
2578,-0.08,0.41,-1.94,36.133,29.785,1123.047,-21.60,-16.05,-25.05,14.85
2588,-0.76,1.40,-5.89,169.434,75.195,968.750,-19.95,-16.65,-24.15,14.85
2598,0.24,-1.66,-1.05,140.137,-16.602,986.328,-19.95,-16.65,-24.15,14.66
2608,-1.66,0.31,-1.60,15.625,55.176,1016.113,-19.20,-15.45,-24.45,14.90
2618,0.09,-4.40,-1.79,188.477,-6.836,1020.996,-20.10,-14.85,-25.80,15.14
2630,-1.98,-2.05,-3.02,125.977,36.621,1022.949,-21.45,-15.00,-25.65,14.85
2640,-0.41,0.32,-1.92,-1.465,15.137,1044.922,-21.90,-15.45,-25.95,14.80
2650,-1.08,0.02,1.60,160.645,85.449,1106.445,-24.00,-15.60,-27.60,15.04
2660,-1.02,1.77,-4.23,87.402,-21.484,1009.766,-22.35,-15.60,-28.35,15.14
2670,-0.39,-0.38,-2.37,-34.668,81.055,982.422,-24.00,-15.30,-27.60,14.85
2680,-1.48,-2.76,-1.76,239.258,-5.859,1079.590,-24.00,-15.30,-27.60,14.61
2690,-1.32,0.42,0.20,46.875,19.531,913.574,-24.75,-14.85,-29.55,14.99
2702,-1.31,-2.15,-5.31,88.379,42.480,1138.672,-25.80,-16.80,-28.80,14.85
2712,-2.27,-1.84,-0.28,285.156,82.520,810.059,-25.80,-16.80,-28.80,14.80
2722,0.01,-1.93,-3.95,-23.437,136.719,1148.438,-24.00,-14.85,-27.30,14.80
2732,-0.77,-2.16,-1.11,201.172,12.207,881.348,-22.65,-15.45,-25.95,14.85
2742,-0.95,-0.73,-4.51,99.121,64.941,1011.719,-21.60,-15.60,-25.35,14.85
2752,0.39,-0.93,-0.47,36.621,34.668,1274.902,-21.00,-14.70,-24.45,14.71
2762,0.69,-1.26,-2.44,242.187,-55.664,704.590,-21.00,-14.70,-24.45,14.85
2774,0.71,-0.51,-3.56,-17.578,-14.160,1316.895,-18.60,-13.65,-26.10,14.61
2784,-1.56,-1.46,-2.30,187.988,-9.277,847.656,-18.60,-13.65,-26.10,14.71
2794,-1.41,0.89,-0.96,44.434,100.586,1240.234,-22.65,-14.70,-27.90,14.90
2804,-0.25,-0.96,-3.73,228.027,76.660,1006.348,-23.70,-15.45,-28.20,14.99
2814,-2.76,2.40,-6.35,-47.363,10.254,1062.988,-22.80,-13.65,-29.10,14.99
2824,0.90,-3.49,-1.16,116.699,49.805,1290.039,-23.40,-15.45,-28.20,14.90
2834,1.33,1.08,-4.40,110.840,-56.641,689.453,-23.40,-15.45,-28.20,14.61
2846,-0.48,-3.31,-2.57,182.617,-17.090,1434.570,-24.00,-16.50,-28.05,14.85
2856,-1.30,-0.69,-2.98,131.348,-22.949,853.516,-22.95,-15.00,-27.15,15.14
2870,0.91,-1.91,-0.42,165.039,5.859,953.613,-22.95,-15.00,-27.15,15.04
2880,0.55,0.06,-1.76,27.832,41.016,1085.938,-20.85,-16.80,-25.35,14.85
2890,-1.43,-1.54,-1.17,114.258,38.574,1171.387,-19.20,-15.45,-25.20,14.80
2900,0.45,-0.90,-1.21,37.598,49.805,848.633,-19.50,-14.25,-24.90,14.90
2912,-2.48,-4.78,-3.27,79.590,34.668,914.062,-19.65,-14.40,-26.85,14.71
2922,-0.38,0.12,-1.90,81.543,-4.395,1284.180,-19.65,-14.40,-26.85,14.99
2932,-3.09,1.53,-1.83,114.746,106.934,806.641,-22.95,-14.25,-28.65,14.80
2942,0.44,-0.06,-0.63,82.031,-11.719,1172.363,-24.00,-14.40,-29.55,14.80
2952,-2.50,-0.40,-3.69,94.727,-29.297,798.828,-24.00,-14.40,-29.55,15.14
2962,0.16,-1.95,-1.98,208.008,-113.281,1316.406,-24.00,-14.10,-29.55,15.19
2972,-3.15,-1.37,-2.91,19.043,89.844,763.184,-23.70,-15.45,-27.45,15.14
2984,0.84,-3.54,-1.60,270.508,8.301,1081.543,-20.70,-15.90,-25.20,14.99
2994,-0.31,-0.89,0.17,93.750,92.773,920.898,-18.45,-16.20,-24.15,15.14
3004,0.56,-6.60,-4.47,145.508,80.566,908.203,-19.35,-16.20,-24.15,14.85
3014,1.21,1.24,-2.29,240.234,21.484,1361.328,-19.95,-13.80,-26.40,14.99
3023,0.25,0.15,-3.24,54.688,75.195,636.719,-19.95,-13.80,-26.40,15.14
3033,-1.56,0.65,-0.20,250.488,-153.809,1038.086,-19.95,-13.80,-26.40,15.04
3043,2.63,0.66,-2.73,144.531,101.563,762.695,-24.30,-14.10,-29.85,14.99
3054,-2.50,-1.31,-2.22,60.547,168.457,1262.207,-24.60,-14.25,-28.95,14.99
3064,0.36,1.27,-3.66,259.766,-86.426,1062.500,-22.35,-14.85,-27.30,14.71
3074,-0.48,2.38,-3.84,1.953,145.508,918.457,-20.55,-15.30,-24.60,14.85
3084,1.11,-0.60,-1.79,129.395,-56.641,1108.398,-20.55,-15.30,-24.60,14.90
3094,1.87,3.63,-4.17,272.461,82.031,911.133,-19.65,-14.40,-24.60,14.80
3104,1.82,0.62,-6.82,101.563,50.293,923.828,-19.65,-14.40,-24.60,14.90
3113,1.15,0.69,-3.15,202.637,-80.078,1057.129,-19.65,-14.40,-24.60,14.80
3124,3.34,-0.56,-4.11,210.937,30.273,979.492,-22.95,-14.25,-28.95,14.80
3134,-0.11,-0.98,-4.76,171.875,15.137,1237.793,-22.95,-14.25,-28.95,15.14
3144,1.70,1.42,-3.17,3.418,4.395,1170.410,-24.00,-14.25,-28.95,14.85
3154,2.24,-3.19,-4.56,156.738,-19.531,1008.789,-23.55,-15.60,-26.55,15.04
3164,2.07,0.47,-4.56,111.328,-20.020,1038.086,-23.55,-15.60,-26.55,14.90
3174,1.40,-1.83,-4.00,97.168,26.367,1171.875,-19.20,-15.90,-24.45,14.85
3184,-0.68,0.24,-2.06,99.609,-56.641,1035.156,-19.20,-15.90,-24.45,14.71
3196,-2.80,1.79,-2.95,88.867,8.789,1111.816,-22.20,-13.50,-26.70,14.80
3206,-0.40,0.77,-5.18,154.297,68.848,1041.016,-23.55,-12.90,-27.60,14.66
3216,0.59,-3.08,-3.31,90.332,77.148,1062.500,-23.55,-12.90,-27.60,14.90
3226,-0.82,-1.98,-7.05,153.320,-22.461,1074.219,-24.75,-15.30,-28.35,14.90
3236,0.72,0.38,-5.83,75.195,57.617,786.621,-22.80,-14.10,-25.35,14.90
3246,0.34,0.09,-2.11,140.625,96.680,980.469,-19.50,-15.00,-23.70,15.04
3255,1.38,-1.33,-4.95,215.820,1.953,970.703,-18.90,-14.10,-25.35,14.85
3267,0.50,-0.88,-2.41,194.824,64.453,854.004,-18.90,-14.10,-25.35,14.85
3277,1.47,-0.13,-3.75,109.863,140.137,932.129,-22.35,-14.10,-28.05,14.80
3287,1.54,-0.41,-8.27,55.664,40.039,1069.824,-25.65,-14.25,-27.45,14.99
3297,2.84,-0.97,-4.56,181.641,107.910,989.258,-25.65,-14.25,-27.45,14.99
3307,0.32,-1.43,-5.38,114.746,31.250,1008.789,-23.40,-13.80,-26.70,14.90
3317,-0.91,0.02,-2.58,296.387,40.527,1009.766,-21.30,-15.30,-23.85,15.04
3327,0.75,-0.88,-2.75,214.355,49.805,1061.523,-18.60,-14.85,-24.60,14.80
3339,0.28,-6.18,-3.59,169.434,32.227,1084.961,-19.50,-14.25,-25.95,15.14
3349,1.01,-3.58,-5.60,91.309,56.152,990.234,-22.35,-13.65,-27.60,14.71
3359,-1.98,-0.27,-6.21,129.883,73.730,1231.445,-24.60,-13.50,-28.65,14.90
3369,3.10,-4.29,-2.04,146.973,-71.777,1174.805,-25.50,-15.60,-28.05,14.99
3384,4.37,-3.04,-4.23,166.504,-112.793,935.059,-25.50,-15.60,-28.05,15.04
3393,1.74,-0.98,-3.69,-18.555,-10.254,971.680,-19.65,-15.30,-23.85,14.90
3405,3.47,-3.08,-5.92,204.102,-104.492,1231.445,-20.55,-14.10,-25.80,15.14
3415,1.96,-2.36,-5.58,172.363,-234.863,1080.078,-22.95,-13.05,-28.20,15.04
3425,-1.07,1.27,-6.61,93.750,-50.293,645.020,-25.50,-13.65,-28.05,14.99
3435,-0.83,-0.18,-4.06,146.484,-33.203,916.992,-22.65,-15.00,-25.95,15.14
3445,-4.56,-1.79,-6.20,207.031,38.086,942.383,-20.70,-15.90,-22.20,14.99
3455,-6.57,4.10,-5.28,98.145,129.883,1149.414,-20.70,-15.90,-22.20,14.90
3465,-2.65,1.01,-4.88,212.402,40.527,744.141,-22.05,-14.85,-25.80,14.85
3477,0.14,-1.30,-5.87,162.109,-77.637,925.781,-24.30,-13.65,-28.35,15.04
3487,-1.97,-1.75,-3.79,169.434,72.266,956.543,-24.30,-13.65,-28.35,14.99
3497,-2.12,4.44,-7.14,64.453,-48.828,770.508,-23.40,-15.45,-24.90,14.71
3507,-4.29,4.22,-4.67,106.445,99.121,902.344,-19.65,-16.80,-23.10,14.66
3517,-2.12,0.50,-5.66,152.344,103.516,1053.711,-20.10,-13.65,-24.30,15.04
3527,-1.95,0.65,-3.38,119.629,-67.871,843.750,-22.05,-14.40,-26.85,15.14
3537,-0.93,-2.02,-5.13,296.875,-48.828,1378.418,-22.05,-14.40,-26.85,15.04
3549,-0.93,1.56,-6.89,91.797,88.867,924.316,-25.35,-15.90,-27.45,15.04
3559,-1.88,-1.43,-6.02,185.547,-64.941,1137.695,-22.65,-15.90,-24.15,15.04
3569,-2.69,-1.11,-4.91,241.699,-83.496,931.641,-22.65,-15.90,-24.15,14.99
3579,-0.53,2.25,-5.02,78.613,-19.531,1069.336,-20.85,-14.10,-25.05,14.61
3589,-0.78,-1.24,-5.93,275.879,50.293,1393.555,-24.30,-14.85,-27.60,14.80
3599,0.94,-1.92,-6.51,44.434,-88.867,1001.465,-26.25,-14.40,-28.05,14.99
3609,-3.11,0.22,-5.18,267.090,-38.574,1096.191,-22.80,-15.30,-25.05,15.14
3621,-1.67,-0.58,-7.48,229.492,40.039,1065.918,-22.80,-15.30,-25.05,14.90
3631,0.69,-2.81,-6.89,187.500,-79.590,1091.309,-20.25,-13.50,-24.90,14.99
3641,0.36,-1.62,-8.79,155.762,-10.254,1173.828,-23.70,-12.75,-28.65,14.99
3651,-1.22,0.68,-7.15,227.051,-96.680,948.730,-23.70,-12.75,-28.65,15.14
3661,0.61,-1.92,-7.56,226.562,6.348,996.094,-22.95,-15.90,-24.15,14.80
3671,-2.44,-2.50,-7.18,-15.137,16.602,932.129,-19.95,-15.90,-22.95,14.99
3681,2.88,-1.08,-7.32,280.762,-150.879,1000.488,-19.95,-14.25,-24.45,15.14
3693,-2.93,-1.91,-7.73,233.887,-85.449,765.137,-24.90,-13.80,-29.70,15.04
3703,-1.66,-1.89,-7.55,222.168,60.547,821.289,-24.90,-13.80,-29.70,14.90
3713,-1.42,-2.03,-5.66,104.004,34.180,1395.020,-21.90,-15.90,-23.70,15.04
3723,-1.93,-2.11,-6.36,176.758,-117.676,788.574,-20.10,-14.40,-22.80,15.14
3733,-2.28,0.26,-6.76,46.387,49.316,1000.488,-20.10,-14.40,-22.80,14.99
3743,-5.94,3.37,-9.47,155.762,128.906,1000.977,-25.50,-14.40,-28.80,14.80
3753,-1.74,0.57,-7.38,214.355,134.277,1191.406,-25.35,-15.45,-25.95,14.90
3765,-1.47,4.33,-9.54,-22.461,-39.063,692.871,-19.95,-14.25,-24.90,14.66
3775,-4.76,1.72,-7.50,281.250,-19.531,1360.840,-23.70,-12.75,-27.90,15.04
3785,-2.89,1.02,-9.06,207.520,-8.789,949.219,-25.35,-14.25,-27.90,15.19
3795,-1.92,2.72,-9.17,55.664,94.238,925.293,-23.40,-15.00,-25.65,14.90
3805,0.36,0.54,-4.85,151.855,45.898,1022.461,-23.40,-15.00,-25.65,14.90
3815,1.53,-3.11,-7.80,265.625,106.445,1086.426,-21.00,-13.50,-26.70,15.04
3825,1.43,-2.00,-7.08,91.797,134.277,1066.895,-25.80,-12.90,-28.35,14.80
3837,5.37,-4.79,-10.29,184.570,-102.051,1142.090,-25.80,-12.90,-28.35,15.14
3847,8.08,-4.23,-6.56,250.000,-133.789,1109.375,-20.70,-14.25,-23.25,14.80
3857,6.37,-3.39,-7.26,184.570,27.344,655.273,-21.00,-12.75,-24.15,14.99
3867,0.33,-5.06,-3.78,151.367,-287.598,802.734,-24.90,-13.05,-28.65,14.90
3877,-5.15,-3.16,-7.44,84.473,-39.551,1380.371,-23.55,-14.40,-26.55,15.04
3887,-7.33,-3.24,-6.92,84.961,27.832,689.453,-23.55,-14.40,-26.55,14.99
3903,-1.23,0.83,-8.49,145.020,115.234,1104.980,-20.25,-12.30,-25.20,15.04
3913,1.69,0.68,-9.43,338.379,158.691,1029.297,-25.35,-12.30,-28.65,14.71
3923,5.82,1.64,-6.14,122.070,20.020,484.375,-25.35,-12.30,-28.65,15.19
3932,8.42,-0.05,-4.79,190.430,-249.512,1354.980,-20.70,-13.50,-24.15,15.19
3942,6.25,6.65,-8.93,180.176,-97.168,723.633,-19.20,-11.85,-25.20,15.23
3952,2.73,6.28,-7.98,218.750,37.109,990.234,-23.70,-11.10,-28.95,14.90
3962,6.98,2.71,-11.40,254.883,-328.613,746.094,-25.65,-13.05,-27.15,14.66
3974,-1.43,3.53,-9.54,221.680,-51.270,1274.902,-25.65,-13.05,-27.15,15.04
3984,-2.90,3.67,-12.55,371.582,23.437,905.273,-19.95,-11.10,-25.20,14.80
3994,-3.66,-1.68,-10.27,152.832,59.082,844.727,-24.90,-10.65,-29.70,15.04
4004,-4.92,-3.14,-10.65,212.402,42.969,957.520,-24.90,-10.65,-29.70,15.04
4014,-1.00,-3.66,-12.43,144.043,79.590,850.098,-21.30,-14.10,-23.10,15.14
4024,2.91,-5.84,-8.08,84.961,-157.227,1003.906,-21.60,-10.50,-24.60,14.90
4034,0.71,-4.27,-14.54,239.258,-93.262,761.230,-26.10,-11.85,-28.20,15.04
4046,3.43,-8.43,-14.76,81.543,-92.773,777.832,-20.70,-13.05,-22.95,15.04
4056,-1.30,-8.56,-11.15,239.258,-303.223,1025.391,-22.80,-11.70,-25.80,15.14
4066,-1.77,-0.28,-11.58,46.875,-115.723,946.777,-24.75,-12.15,-28.35,14.71
4076,0.94,-4.50,-10.60,272.461,-128.418,752.930,-24.75,-12.15,-28.35,15.04
4086,-2.05,-2.61,-11.18,77.637,72.266,743.164,-20.70,-12.30,-23.25,14.99
4096,-1.76,4.90,-13.80,229.492,20.996,907.715,-24.60,-12.30,-27.90,15.04
4106,-2.20,5.69,-14.45,276.855,19.531,567.871,-24.60,-12.30,-27.90,15.23
4118,1.66,2.89,-16.33,1.465,-367.676,807.617,-21.00,-13.80,-24.45,15.04
4128,-2.08,1.23,-17.31,77.148,-174.805,1096.191,-19.65,-10.50,-26.55,15.14
4138,-0.78,3.40,-13.18,223.145,-141.113,418.945,-24.75,-11.70,-28.80,15.04
4148,-3.81,2.39,-17.28,-0.488,-195.312,650.391,-22.95,-13.05,-26.40,14.90
4158,-5.60,1.79,-14.78,-22.461,44.434,972.168,-22.95,-13.05,-26.40,14.85
4168,-3.52,3.49,-18.40,411.621,83.984,583.008,-23.70,-11.10,-27.90,15.04
4178,-2.78,0.16,-23.81,49.805,-281.250,645.996,-23.70,-13.50,-27.45,15.04
4190,-0.95,-2.78,-24.50,389.160,-107.910,711.914,-23.70,-13.50,-27.45,14.99
4200,1.16,-2.84,-17.90,152.832,-25.879,1000.000,-23.40,-10.65,-28.20,15.04
4210,-4.23,-0.79,-18.95,-29.785,-108.398,1764.648,-24.60,-11.55,-29.40,15.14
4220,-3.56,-1.46,-20.37,104.980,-17.090,1505.371,-21.00,-14.70,-25.65,14.71
4230,-1.08,-2.97,-18.20,270.020,10.742,632.324,-20.55,-11.70,-26.55,14.85
4240,4.18,-3.02,-15.24,313.477,-181.641,390.137,-20.55,-11.70,-26.55,14.90
4250,-3.89,-5.67,-18.78,250.000,-350.098,1403.809,-24.15,-12.30,-27.90,15.14
4262,-1.69,-1.75,-18.69,128.906,37.109,253.906,-19.50,-13.50,-24.90,15.04
4272,-3.53,-5.15,-18.10,86.914,-261.230,1513.672,-19.50,-13.50,-24.90,15.19
4282,-0.95,-2.79,-16.89,253.906,-53.223,1780.273,-22.80,-12.15,-27.60,15.14
4292,5.28,1.21,-17.59,167.480,-371.582,990.234,-20.70,-12.75,-24.15,15.04
4302,-0.20,-2.12,-17.13,124.023,-323.730,956.055,-21.60,-10.50,-28.05,15.04
4312,-3.09,-2.53,-21.74,-28.809,192.871,942.383,-23.25,-12.90,-29.10,15.14
4324,5.01,-4.37,-19.64,76.660,87.891,1692.871,-23.25,-12.90,-29.10,14.71
4334,3.65,-2.03,-19.14,197.266,-246.094,723.145,-19.50,-9.90,-27.45,14.90
4344,4.85,0.42,-22.85,33.203,38.574,705.078,-23.70,-11.10,-29.40,15.19
4353,0.77,-5.57,-21.14,-38.086,-303.711,1073.242,-23.70,-11.10,-29.40,15.04
4363,2.84,-1.78,-14.46,163.574,-94.727,1657.715,-18.75,-11.10,-27.90,14.80
4373,7.09,-0.01,-25.69,153.809,78.613,597.168,-23.55,-10.05,-29.55,15.14
4383,1.66,-2.78,-20.26,-173.340,-301.758,1877.441,-22.05,-13.20,-26.55,14.90
4395,2.91,1.73,-23.18,63.965,-137.695,1243.164,-21.45,-10.35,-26.70,14.80
4405,10.21,-1.21,-17.95,256.348,-452.148,630.371,-21.45,-10.35,-29.40,15.14
4419,1.66,2.02,-23.29,76.660,-344.727,1530.762,-19.95,-11.85,-25.20,15.14
4429,-4.65,2.38,-21.76,144.043,19.531,1253.418,-19.95,-11.85,-25.20,14.66
4439,-3.91,-1.96,-20.43,119.629,-190.430,768.555,-21.60,-11.70,-27.30,14.90
4449,-11.88,5.53,-23.89,-161.621,167.480,613.281,-19.20,-10.35,-25.20,15.04
4459,-5.10,4.23,-20.50,106.934,71.289,612.305,-22.05,-9.30,-27.60,14.99
4469,-3.18,0.97,-22.73,23.926,55.176,1333.008,-21.90,-11.85,-27.15,14.90
4481,-5.02,-1.68,-23.45,135.254,-383.301,1485.840,-19.50,-11.55,-25.20,15.04
4491,5.84,-2.77,-21.58,274.414,-527.832,831.543,-22.35,-8.55,-29.10,15.04
4501,-2.60,-1.07,-24.11,142.578,-333.984,1372.559,-21.90,-13.50,-26.40,14.99
4511,2.31,-5.05,-25.30,125.000,-437.500,691.406,-21.90,-13.50,-26.40,15.04
4521,-4.45,-7.78,-23.16,338.867,-579.102,1083.984,-22.05,-9.30,-27.30,14.99
4531,-6.11,-4.04,-26.19,199.707,-214.355,690.918,-22.05,-11.25,-26.85,15.04
4543,-3.24,-5.34,-26.09,-213.867,-44.434,1104.980,-22.05,-11.25,-26.85,15.04
4553,-5.06,-3.76,-26.95,122.559,-16.602,1232.422,-21.90,-7.95,-28.95,15.23
4563,0.26,-3.34,-26.50,28.809,-60.547,1836.426,-19.65,-11.70,-27.60,15.14
4573,-1.15,-0.64,-27.29,192.383,-86.426,1543.945,-18.60,-8.10,-26.10,15.14
4583,0.81,-3.05,-26.54,268.555,-452.637,1300.781,-21.90,-9.90,-29.40,15.14
4593,1.46,-0.08,-27.20,-50.293,-344.238,930.176,-21.90,-9.90,-29.40,15.14
4603,3.92,-1.64,-25.73,231.445,-316.406,496.582,-20.55,-8.85,-26.55,15.04
4615,-1.23,2.58,-27.40,246.582,25.879,1083.496,-22.65,-9.90,-28.65,14.99
4625,0.04,-2.95,-26.24,420.898,-212.402,1290.527,-22.65,-9.90,-28.65,14.85
4635,-1.87,3.15,-25.10,-233.887,-106.445,1025.391,-18.75,-7.05,-26.40,15.14
4645,-0.79,0.12,-26.82,328.125,-191.406,170.898,-21.45,-9.15,-27.90,15.14
4655,4.01,2.91,-24.44,171.387,-60.547,518.066,-18.45,-10.35,-24.15,15.38
4665,0.47,5.78,-27.55,-93.750,-187.012,876.465,-20.10,-7.35,-26.55,15.19
4675,2.85,4.08,-24.60,368.652,-148.926,857.910,-20.10,-7.35,-26.55,15.04
4687,-0.80,8.15,-35.56,89.355,-209.961,829.102,-20.85,-8.10,-28.35,14.99
4697,-3.99,7.78,-24.68,133.789,45.898,1127.930,-20.85,-8.10,-28.35,14.99
4707,-1.77,2.75,-26.56,396.973,44.434,1083.008,-18.00,-7.50,-24.45,15.14
4717,3.40,3.94,-25.76,150.879,-177.246,1454.102,-22.95,-7.95,-28.20,15.04
4727,2.44,2.97,-27.08,-243.652,-8.301,959.961,-19.35,-9.75,-25.35,15.04
4737,11.02,2.39,-24.62,224.121,-306.152,810.059,-20.25,-7.50,-26.40,15.04
4747,9.07,-0.33,-24.19,540.527,-86.914,891.113,-20.25,-7.50,-26.40,14.99
4759,8.27,-3.05,-27.53,294.922,-622.070,940.918,-18.60,-7.65,-25.35,15.04
4769,-9.66,-10.15,-22.97,172.852,-350.098,1438.965,-21.30,-6.15,-28.80,15.04
4779,-1.75,-7.21,-25.27,306.152,-379.395,736.816,-21.30,-6.15,-28.80,15.04
4789,-3.50,-12.69,-25.09,-106.445,-12.695,1302.246,-18.90,-6.45,-27.30,14.80
4799,3.27,-5.85,-23.60,-158.691,-101.074,740.234,-22.05,-7.35,-28.05,15.38
4809,2.29,-9.47,-26.94,-74.707,-72.754,1668.457,-19.35,-8.10,-24.30,15.04
4821,-5.69,-2.97,-39.42,183.105,-18.555,812.988,-20.85,-5.70,-28.35,14.99
4831,-10.50,0.10,-25.47,128.418,-349.609,777.832,-19.95,-8.25,-27.90,15.04
4841,-11.00,3.37,-24.45,-126.465,-158.691,990.723,-18.90,-5.70,-25.35,14.99
4851,-13.23,7.75,-25.93,125.488,59.570,802.246,-20.70,-4.65,-30.90,14.99
4861,-9.82,5.14,-30.71,-57.617,-272.949,1830.566,-20.70,-4.65,-30.90,15.33
4871,-4.45,6.60,-26.00,-6.348,-165.039,1503.418,-18.45,-4.65,-28.95,14.90
4881,0.89,10.15,-27.72,201.660,-200.195,632.812,-19.95,-6.75,-29.40,15.14
4893,-7.91,6.60,-47.96,54.199,-210.937,807.617,-16.80,-5.10,-25.20,15.14
4903,-6.97,5.40,-26.17,-15.625,-219.238,1046.875,-19.35,-3.30,-28.05,14.99
4913,-10.11,3.12,-30.66,-2.930,13.184,1122.070,-17.55,-6.75,-27.15,15.04
4923,-1.69,-0.03,-32.17,84.961,-33.203,840.332,-16.50,-5.10,-26.70,15.14
4938,-6.21,0.79,-30.18,238.770,-189.453,889.160,-19.50,-7.05,-28.95,15.04
4947,-14.96,-4.59,-53.44,25.391,185.059,1196.289,-18.00,-5.10,-27.90,14.85
4959,5.73,-2.54,-35.95,231.445,-373.535,1329.102,-18.00,-7.05,-26.40,14.99
4969,6.50,-6.03,-27.65,-148.437,-615.723,999.512,-18.00,-7.05,-26.40,15.04
4979,4.13,-7.32,-26.46,81.055,-508.301,852.539,-19.35,-6.45,-28.35,15.14
4989,-1.24,-3.59,-27.38,-426.758,-473.633,521.484,-15.75,-4.65,-25.65,15.19
4999,-1.62,2.76,-29.80,160.156,-173.340,1684.570,-17.85,-3.75,-28.35,15.14
5009,-4.58,-0.72,8.97,-275.879,-7.324,469.727,-16.65,-5.70,-25.80,15.04
5019,2.98,-8.83,-29.37,254.883,-67.383,1262.695,-16.65,-5.70,-25.80,15.14
5031,0.84,-10.60,-29.06,129.883,-294.434,1757.813,-18.15,-5.25,-29.10,15.04
5041,1.60,-6.20,-37.44,-71.289,-24.414,439.453,-15.15,-4.50,-23.10,14.85
5051,-10.05,-2.76,-29.42,-104.980,240.723,1204.590,-15.15,-4.50,-23.10,15.23
5061,0.84,5.50,-24.66,-218.750,102.051,-286.133,-17.10,-3.30,-26.10,15.19
5071,-10.89,7.43,-25.27,-278.809,-394.043,1420.410,-16.80,-3.90,-28.20,15.14
5081,0.24,11.57,-33.40,-252.441,215.820,583.984,-16.05,-4.35,-26.40,15.19
5091,-8.31,15.51,-37.34,4.395,-447.754,671.875,-15.75,-3.15,-25.65,15.04
5103,-1.70,5.47,-18.91,267.578,-176.758,983.887,-15.75,-3.15,-25.65,15.19
5113,0.73,6.08,-18.57,-23.437,-298.828,1999.939,-17.25,-3.15,-26.40,15.04
5123,-11.75,8.01,-35.80,-369.629,431.641,1364.746,-16.80,-2.70,-26.70,14.90
5133,-8.63,4.23,-26.85,190.430,-167.969,836.914,-16.80,-2.70,-26.70,15.04
5143,-5.21,-2.51,-30.95,113.770,-120.605,1755.371,-16.80,-4.65,-27.15,15.14
5153,-4.66,-6.40,-23.38,-27.344,-332.031,1999.939,-16.80,-3.45,-27.15,15.14
5165,6.11,-7.19,-29.45,-133.301,-205.566,1025.391,-17.25,-3.15,-28.20,15.04
5175,1.90,-2.90,-32.60,-227.539,-63.477,995.117,-16.80,-3.90,-27.90,15.14
5185,2.40,-6.21,-30.80,-152.344,-505.371,1828.125,-16.80,-3.90,-27.90,15.14
5195,-0.61,-3.66,-25.54,-289.062,-274.902,1061.523,-16.50,-3.90,-28.95,15.04
5205,-4.00,-3.48,-25.25,-14.160,-294.922,955.078,-16.20,-2.85,-29.55,14.85
5215,2.34,-0.90,-29.34,106.934,-381.348,979.980,-16.20,-2.85,-29.55,15.14
5225,0.17,-0.91,-29.11,-366.211,51.270,1384.766,-15.30,-3.15,-28.95,15.14
5237,5.23,1.02,-16.70,-273.437,91.797,1174.316,-15.45,-2.55,-28.35,14.99
5247,2.79,-1.65,-23.33,-175.293,-87.402,1319.336,-16.65,-3.75,-29.10,15.19
5257,6.98,4.15,-22.87,49.805,-3.906,1278.809,-15.15,-1.65,-28.80,15.38
5267,2.92,5.90,-23.96,-69.824,-357.422,821.777,-15.90,-2.10,-29.85,15.14
5277,-2.95,2.38,-24.24,-263.184,-140.625,806.152,-13.95,-1.35,-27.60,14.90
5287,-3.85,5.21,-23.94,-25.879,-33.691,1093.750,-13.95,-1.35,-27.60,14.85
5297,1.51,-0.96,-23.76,-33.203,-232.910,701.172,-14.40,-2.10,-28.35,14.90
5309,5.41,3.58,-23.72,-129.883,-133.789,875.000,-14.55,-0.75,-28.20,15.19
5319,11.59,-3.09,-26.18,-104.980,-216.797,1397.461,-14.40,-1.35,-27.30,15.19
5329,5.47,1.21,-24.60,-32.715,-556.641,937.012,-13.80,-1.05,-28.65,15.19
5339,-1.18,-3.49,-22.95,-54.199,-541.504,532.715,-14.55,-0.75,-28.20,15.33
5349,-6.77,-3.15,-21.03,-6.348,-434.570,1005.371,-13.05,-1.50,-28.65,15.19
5359,-15.46,-8.38,-26.60,-264.160,-346.191,865.234,-14.10,-1.50,-27.90,14.71
5369,-7.63,-9.35,-25.74,133.789,26.367,1124.512,-14.10,-1.50,-27.90,15.14
5380,9.62,-6.31,-27.24,46.387,72.266,1034.668,-14.40,0.15,-28.35,15.14
5390,15.30,-7.80,-26.42,-207.031,-279.785,950.684,-14.85,0.00,-28.20,14.99
5400,16.39,-10.45,-25.67,-35.645,-221.191,984.375,-14.85,0.00,-28.20,14.85
5410,4.59,-6.23,-24.11,45.898,-820.801,644.043,-13.95,0.15,-26.55,15.14
5420,-5.85,-8.89,-22.78,-225.586,-82.520,990.234,-14.55,1.05,-28.20,15.14
5430,-3.24,-1.40,-27.14,16.113,265.137,1103.516,-13.20,-0.90,-26.85,14.90
5440,-2.31,-3.73,-20.06,-193.359,-731.934,1233.887,-14.55,-0.75,-26.70,15.23
5457,-14.21,2.01,-24.95,-101.563,-59.570,1999.939,-14.55,-0.75,-26.70,15.14
5466,-3.29,7.79,-4.89,-185.547,15.625,779.297,-13.80,0.30,-26.40,15.04
5476,-8.62,3.02,-26.69,72.266,51.758,1594.238,-14.55,-1.05,-25.95,15.14
5486,-6.78,7.46,-27.27,33.691,-278.809,470.703,-14.55,-1.05,-25.95,15.23
5496,-6.39,3.37,-26.26,-137.695,91.797,1395.996,-14.85,-0.75,-26.40,14.71
5506,-4.71,7.15,-21.78,-356.934,77.148,850.098,-14.10,-1.05,-27.15,15.04
5516,-1.85,1.35,-21.78,46.387,-51.270,1818.359,-14.55,0.00,-27.90,15.04
5528,4.73,3.57,-26.43,69.336,-626.465,1266.113,-14.70,-0.15,-26.85,15.19
5538,1.11,-3.89,-23.64,-76.660,-434.570,1033.203,-13.50,0.90,-28.05,15.38
5548,16.40,-1.02,-4.36,-176.270,-182.129,838.867,-13.95,1.35,-26.85,15.04
5558,-2.66,-7.60,-86.60,3.906,-219.727,690.430,-13.95,1.35,-26.85,15.14
5568,-1.40,-2.62,-10.51,-140.137,-20.996,1271.484,-13.50,-0.45,-28.05,15.04
5578,7.83,-3.74,-29.06,333.984,-385.254,477.051,-13.20,0.90,-28.35,14.90
5588,4.28,-7.18,-23.91,-208.984,-274.902,821.289,-13.80,-0.75,-28.20,15.38
5600,3.23,-9.22,-21.08,-158.691,217.773,1290.527,-13.80,0.75,-27.15,14.80
5610,4.21,-0.99,-16.74,-55.664,-416.016,656.250,-13.80,0.75,-27.15,15.19
5620,8.34,1.35,-26.45,141.113,171.387,954.590,-13.20,-0.90,-27.30,15.19
5629,-13.89,4.56,-19.45,-213.867,458.008,573.242,-13.20,1.35,-26.10,15.23
5639,-18.08,6.85,-16.75,-47.363,170.898,687.012,-13.20,1.35,-26.10,15.04
5649,-11.85,3.88,-17.06,-312.500,162.109,855.469,-13.20,0.90,-28.05,14.71
5659,-7.54,1.61,-24.55,-124.512,64.453,1286.133,-13.35,1.05,-28.95,15.04
5671,-0.30,5.77,-6.21,-45.898,-125.000,692.871,-12.60,-0.30,-28.20,14.90
5681,-3.25,3.43,-18.71,-217.773,-286.621,1551.758,-12.00,1.35,-28.35,15.14
5691,-5.89,-2.27,-16.75,-11.719,-372.559,1293.945,-12.00,1.35,-28.35,15.14
5701,4.34,-3.27,-3.49,42.480,-271.484,636.230,-11.25,0.90,-26.85,15.23
5711,0.83,-2.69,-15.95,-270.508,-14.160,884.766,-12.60,1.95,-28.65,15.04
5721,-3.98,-1.80,-22.71,99.609,-141.113,1046.387,-12.60,1.95,-28.65,15.04
5731,-2.39,-2.08,-23.24,-280.273,161.133,1457.031,-11.25,-0.15,-26.55,14.99
5743,-3.51,-7.40,-24.08,143.066,-565.918,1480.469,-13.35,0.30,-27.90,14.99
5753,-4.69,-5.47,-24.31,-46.875,-317.383,583.008,-12.00,0.90,-25.35,15.14
5763,-11.30,0.06,-24.20,-116.699,-371.582,1461.914,-12.60,0.75,-27.90,15.23
5773,-13.00,-7.56,-22.25,-208.008,-182.129,1249.512,-13.20,0.45,-27.60,15.14
5783,-6.40,0.18,-25.87,-110.840,-127.930,941.895,-11.85,1.05,-25.20,15.14
5793,-10.31,-0.85,-25.89,-146.484,34.668,325.195,-13.80,0.30,-27.45,15.14
5803,-5.41,1.08,-22.36,-94.238,113.770,912.598,-13.80,0.30,-27.45,15.38
5815,6.01,-2.28,-24.17,179.199,-476.562,734.375,-12.30,1.05,-27.90,15.04
5825,2.11,-4.30,-23.40,150.879,-307.617,739.746,-13.20,0.15,-27.60,15.38
5835,-0.29,1.52,-12.61,-129.883,-41.504,437.012,-11.40,1.05,-27.15,14.90
5845,-10.16,-2.17,-19.30,-84.473,-106.445,1999.939,-12.30,1.05,-29.40,15.14
5855,-1.69,-1.09,-18.34,20.996,28.809,780.273,-12.00,0.15,-26.55,15.19
5865,-0.75,-2.66,-19.52,-4.395,20.020,966.797,-11.40,2.25,-27.15,15.19
5875,-3.53,-3.18,-14.43,89.355,112.305,817.871,-12.45,1.65,-29.10,15.14
5888,4.15,-1.24,-14.96,-163.574,103.516,1057.129,-12.00,2.10,-28.80,15.33
5898,16.21,-1.92,-18.18,237.793,-203.125,834.473,-12.45,0.45,-28.05,15.19
5908,6.14,6.63,-15.40,11.719,-239.746,797.363,-12.45,0.45,-28.05,14.90
5918,4.36,0.88,-18.45,144.531,-560.059,1746.094,-10.95,0.90,-28.05,15.14
5927,-14.78,0.18,-21.37,-92.773,-99.121,514.160,-10.65,1.05,-28.20,15.19
5937,-11.31,-0.31,-18.01,36.133,364.746,1431.152,-10.65,1.05,-28.20,15.14
5947,-17.57,-9.68,-20.01,91.309,189.941,1514.160,-11.10,1.05,-28.20,14.90
5959,-1.22,-8.76,-31.69,174.805,-186.523,1889.160,-11.40,1.05,-28.95,15.43
5980,8.20,-3.81,-20.05,147.461,-246.094,1020.508,-11.40,0.75,-25.95,15.14
5990,8.04,-3.01,-19.76,-29.297,-150.879,1287.109,-11.40,0.75,-25.95,14.90
6000,0.57,-1.85,-19.21,-280.273,-484.375,544.434,-11.10,0.75,-27.90,15.14
6010,-4.34,2.31,-19.89,148.437,-378.906,1529.785,-10.05,1.35,-26.85,14.90
6020,-2.87,1.47,-23.38,-85.449,-443.848,451.660,-11.25,1.65,-28.80,15.19
6030,1.19,5.69,-21.47,95.703,-202.148,769.531,-9.90,2.25,-26.70,15.33
6042,5.63,1.34,-19.34,108.887,-42.969,1032.715,-9.90,2.25,-26.70,15.23
6052,9.06,3.10,-18.47,-90.820,272.461,999.512,-11.85,1.50,-27.45,15.14
6061,15.05,2.29,-18.85,-77.148,-619.141,736.328,-10.95,1.35,-26.85,15.14
6071,1.33,-2.18,-18.95,189.941,-374.512,1645.508,-10.95,1.35,-26.85,14.99
6081,-1.85,-0.44,-18.23,-51.758,-484.375,420.410,-11.25,0.90,-26.85,14.99
6091,-5.02,-0.76,-18.67,74.707,-408.691,1417.480,-11.10,3.15,-27.45,15.33
6101,-1.90,-5.31,-17.27,-112.793,-289.062,555.176,-11.40,1.05,-27.90,15.38
6113,-5.37,-0.15,-18.42,-287.109,308.105,1176.270,-10.50,2.10,-27.30,15.23
6123,3.24,-4.51,-17.52,184.082,-223.633,1001.953,-10.50,2.10,-27.30,15.23
6133,-5.05,0.92,-18.27,11.719,208.984,1171.875,-10.35,0.00,-27.15,15.19
6143,-2.35,2.31,-44.70,-91.797,-99.121,1243.164,-9.90,1.95,-27.15,15.14
6153,-0.81,1.29,-15.88,-180.176,141.113,1376.465,-9.90,1.95,-27.15,15.04
6163,3.08,-1.45,-18.55,239.746,-219.727,1194.824,-9.15,1.95,-27.90,15.19
6175,3.10,-0.02,-22.29,-21.484,-223.145,1033.691,-10.65,2.25,-28.65,14.90
6185,-1.50,-2.68,-20.18,143.066,-661.621,1255.371,-9.90,1.05,-27.90,15.14
6195,-0.63,1.90,-18.37,-102.051,-254.395,604.980,-11.25,2.55,-28.35,15.23
6205,-5.24,-0.48,-21.08,71.289,60.059,1336.426,-11.25,2.55,-28.35,15.38
6215,1.02,-0.92,-19.23,-44.922,-202.637,872.070,-9.15,2.70,-27.15,15.38
6225,-2.08,-1.00,-23.63,-184.082,-3.418,1783.691,-9.75,2.55,-28.35,15.23
6235,8.17,1.14,-20.49,4.883,-418.457,705.566,-9.75,2.55,-28.35,15.04
6247,-0.84,-0.73,-24.24,99.609,-308.594,442.871,-9.30,2.85,-27.60,15.04
6257,1.95,-1.85,-18.40,200.684,-233.398,1010.742,-10.50,0.45,-29.10,14.99
6267,-7.76,1.39,-18.53,29.785,3.906,317.383,-9.75,2.55,-26.85,15.23
6276,-10.14,0.53,-19.17,-37.109,-372.070,1158.691,-9.15,2.70,-27.90,15.04
6286,-1.31,1.27,-19.54,131.836,61.523,895.996,-8.25,1.65,-26.85,15.14
6295,-5.80,3.99,-21.98,-1.953,-145.508,579.102,-8.55,3.30,-28.35,14.85
6305,-2.37,-1.13,-21.18,0.977,24.414,1166.016,-9.30,0.90,-28.80,15.33
6315,4.05,0.86,-18.10,-9.277,-390.137,566.895,-9.30,0.90,-28.80,15.14
6327,4.53,-2.03,-20.89,87.402,-419.922,241.211,-9.90,2.25,-29.70,14.99
6337,-1.14,2.02,-24.72,-213.379,40.039,1229.004,-9.00,2.10,-26.85,15.14
6347,5.44,-6.73,-21.15,-20.508,-330.078,745.117,-9.60,2.70,-27.90,15.19
6357,-0.06,-4.93,-22.02,-141.602,-55.176,1436.035,-9.00,2.10,-27.60,15.04
6367,-0.80,-4.19,-22.84,124.023,-519.043,768.066,-7.80,2.10,-26.85,15.04
6377,-6.60,-9.49,-23.17,-21.973,16.113,1294.434,-9.00,2.55,-26.85,15.33
6387,-3.41,-8.56,-26.15,191.406,-291.992,831.055,-7.80,2.55,-25.80,15.14
6399,5.75,-4.79,-24.44,124.512,-95.703,812.988,-8.55,1.35,-26.85,15.33
6409,-0.11,-8.24,-30.24,-85.938,-145.508,1164.551,-7.80,4.50,-28.80,15.38
6419,4.62,-0.64,-24.27,137.695,-428.711,692.383,-7.80,4.50,-28.80,15.19
6429,4.32,-0.77,-24.47,-15.625,-135.742,779.297,-7.20,3.15,-27.45,15.04
6439,5.62,7.56,-25.50,309.570,-671.875,950.684,-9.15,3.15,-29.70,15.23
6449,0.60,2.32,-24.82,117.676,-420.410,804.687,-6.90,1.05,-26.40,14.99
6458,-3.08,8.05,-26.05,-34.180,-84.473,1214.844,-8.25,3.75,-29.55,15.19
6470,0.55,9.21,-26.02,-236.328,-100.586,807.129,-8.25,3.75,-29.55,15.38
6480,2.17,-1.31,-21.37,2.441,77.637,1743.164,-5.10,2.85,-28.05,15.23
6495,7.40,0.63,-22.90,123.047,-312.012,728.027,-8.55,3.30,-29.55,15.19
6505,2.78,3.92,-18.56,-149.414,91.797,1573.730,-8.55,3.30,-29.55,14.99
6515,8.00,-1.21,-26.81,-24.414,-304.687,977.051,-7.80,3.75,-30.30,14.90
6525,2.35,1.79,-24.58,-64.941,-140.137,1066.895,-6.60,2.55,-27.60,14.85
6537,6.75,3.31,-22.40,-144.531,-127.930,1381.348,-7.65,3.90,-28.20,15.14
6547,-1.48,2.33,-25.69,247.559,-597.168,497.559,-7.95,1.05,-28.65,14.90
6557,0.41,-5.76,-23.90,-35.645,-251.465,1005.859,-7.95,1.05,-28.65,15.14
6567,-3.62,-1.79,-28.86,177.246,-318.359,675.781,-7.35,2.10,-29.10,15.23
6577,-8.35,-4.90,-24.03,17.090,-39.063,891.113,-6.15,2.25,-27.15,15.23
6587,1.15,-7.13,-21.67,-58.594,28.809,1419.434,-6.15,2.25,-27.15,15.14
6597,-5.41,1.90,-23.18,164.062,-161.621,808.594,-7.35,2.10,-28.05,14.80
6609,-1.32,1.55,-21.41,-11.230,-51.758,797.363,-7.05,3.75,-28.05,15.33
6619,-11.00,-1.54,-32.76,-191.895,20.996,1999.939,-6.15,3.45,-27.45,15.04
6629,-0.26,1.30,-25.82,616.699,-222.168,472.656,-6.15,3.45,-27.45,14.99
6639,-7.85,0.56,-30.55,-333.984,-95.703,1107.910,-6.30,2.55,-25.80,15.04
6649,-3.82,6.39,-27.61,-7.324,-32.715,1026.855,-7.65,5.10,-28.20,15.14
6659,3.04,7.02,-28.26,13.184,1.953,879.883,-7.65,5.10,-28.20,15.14
6668,1.63,3.10,-26.40,41.504,75.684,1700.195,-7.65,5.10,-28.20,14.90
6680,-2.76,5.65,-28.99,42.969,178.711,1039.063,-6.15,2.25,-30.15,15.33
6690,-0.98,-0.54,-25.63,271.973,-395.020,722.656,-6.15,4.35,-28.95,14.90
6700,-5.63,1.83,-26.69,-234.863,-185.547,1223.633,-7.80,3.75,-30.30,15.14
6710,-4.98,1.41,-30.41,42.969,25.391,1931.641,-5.10,4.05,-27.60,15.04
6720,4.28,-0.05,-29.02,166.016,-291.504,643.066,-6.60,5.25,-31.05,15.23
6730,1.07,-4.39,-25.56,-54.688,95.215,1556.152,-3.75,3.15,-28.65,15.14
6740,8.14,-3.13,-28.25,154.297,-62.988,652.344,-3.75,3.15,-28.65,15.04
6752,-3.78,-6.73,-25.89,83.008,45.410,451.660,-4.50,3.15,-28.95,15.14
6762,-6.82,-6.33,-20.34,363.770,-331.055,943.848,-3.75,4.35,-30.15,15.04
6772,-3.05,-8.24,-18.21,-229.004,-78.125,1092.773,-3.75,4.65,-29.70,14.99
6782,-9.04,-9.50,-23.54,-11.230,31.738,891.113,-3.60,2.85,-28.05,15.23
6792,1.98,-2.84,-23.00,280.273,-534.180,562.988,-5.10,4.05,-29.55,15.19
6802,-4.26,-3.60,-21.47,-95.215,-17.090,1628.418,-3.75,3.15,-27.90,15.14
6812,-5.18,-3.30,-26.29,-210.449,166.504,1330.078,-5.55,4.50,-29.85,15.04
6824,1.82,1.66,-25.76,-224.121,57.617,1186.035,-5.55,4.50,-29.85,15.23
6834,0.10,1.52,-31.40,385.742,-963.867,759.766,-4.80,5.70,-29.55,15.14
6844,-2.23,1.59,-28.21,-105.469,-437.012,1300.781,-3.90,2.85,-27.60,15.33
6854,-6.66,-1.02,-28.40,-182.617,-408.203,1143.066,-3.90,2.85,-27.60,15.04
6864,0.49,3.60,-27.38,71.777,-542.480,667.480,-4.50,3.90,-30.45,15.38
6874,-0.66,0.15,-31.32,-97.656,-214.355,883.301,-3.45,3.90,-29.40,15.14
6884,1.99,-3.37,-28.11,221.680,-173.340,1727.051,-4.50,3.90,-31.95,15.23
6896,-2.13,-5.75,-33.41,187.988,-77.637,938.477,-2.25,3.15,-29.40,15.38
6906,3.33,0.27,-33.31,-114.258,33.691,1562.012,-2.25,3.15,-29.40,15.14
6916,2.90,-2.02,-29.97,308.105,-467.773,654.297,-0.30,3.90,-27.15,15.19
6926,1.15,-3.95,-34.89,-132.324,-329.102,848.633,-2.10,5.25,-28.35,15.04
6936,3.15,-3.72,-33.73,238.770,-50.781,1337.402,-2.10,5.25,-28.35,15.04
6946,11.31,0.10,-36.21,6.836,-510.254,643.555,0.00,5.10,-27.90,14.90
6955,-1.24,-7.06,-33.88,-59.570,42.480,861.816,-0.30,1.95,-26.40,15.38
6967,4.67,-3.21,-30.05,63.965,-88.379,1217.773,-1.80,5.55,-27.90,15.19
6977,-2.07,-1.98,-27.15,-145.020,-360.840,776.855,-2.10,2.85,-28.05,15.23
6987,-3.93,2.15,-32.22,16.113,-265.625,691.406,-2.10,2.85,-28.05,15.38
6997,-7.10,5.98,-30.94,187.012,-243.652,967.773,-1.50,3.45,-29.40,15.33
7011,3.39,10.11,-30.34,-192.871,86.426,1245.605,-0.75,3.45,-25.95,15.19
7021,10.02,3.06,-28.66,191.406,-348.633,726.562,0.00,3.45,-25.65,15.23
7031,5.78,5.19,-32.27,123.047,-119.629,1131.836,-0.90,5.25,-29.10,15.33
7040,3.50,10.81,-36.64,-9.277,-224.609,838.867,0.00,2.70,-26.40,15.04
7052,10.50,7.15,-31.38,11.719,-374.023,927.246,-0.90,4.95,-28.05,15.14
7062,18.36,7.75,-26.30,-144.043,-717.285,953.125,-0.90,4.95,-28.05,14.99
7072,3.91,7.60,-36.29,-84.961,-850.098,1166.992,-1.20,5.25,-28.80,15.23
7082,-11.97,8.10,-41.40,264.160,219.238,1650.879,-0.15,3.75,-27.30,15.14
7092,-7.40,3.56,-37.78,-392.578,-316.895,1364.746,-0.15,3.75,-27.30,15.14
7102,-13.61,5.53,-36.37,569.336,-633.301,811.523,-0.45,3.30,-26.85,15.14
7112,-20.95,-1.72,-33.35,-122.070,-341.797,1146.484,0.75,4.35,-27.15,15.19
7123,-9.09,2.01,-23.87,58.594,177.734,1360.352,-1.05,1.50,-27.45,14.90
7133,-6.14,-2.12,-28.67,114.258,332.031,1212.402,0.00,2.70,-27.45,15.04
7143,-0.31,0.44,-38.66,-208.496,-367.676,1462.891,-0.75,3.15,-28.65,15.14
7153,-2.35,-0.25,-27.06,166.992,-254.395,409.668,2.10,4.95,-25.80,15.14
7163,-7.55,-3.13,-29.37,396.973,-272.949,1176.270,-0.45,3.75,-26.85,15.19
7173,1.28,-7.95,-22.89,142.090,-260.254,1949.219,-0.45,3.75,-26.85,15.33
7183,-4.60,3.21,-30.24,10.254,178.711,1076.660,0.30,2.70,-27.15,14.85
7195,-9.69,-2.83,-21.66,-521.484,303.223,1961.426,1.65,2.55,-27.30,15.33
7205,1.82,-3.63,-23.63,107.910,-1.953,1030.273,1.05,3.45,-28.65,15.14
7215,-2.18,3.00,-22.67,-327.637,-72.266,841.309,2.55,2.25,-27.45,15.04
7225,-17.85,-0.42,-22.18,343.750,-130.859,808.594,0.00,3.90,-28.95,15.14
7235,-11.69,-4.87,-24.85,271.973,-86.914,1334.473,1.20,2.85,-26.55,15.23
7245,-0.71,-8.82,-27.70,-35.156,-698.242,1347.168,1.05,4.35,-28.95,15.04
7255,-5.84,-8.83,-25.73,-315.430,-343.750,1416.016,1.05,4.35,-28.95,15.38
7267,9.70,-9.38,-29.68,57.617,162.109,1999.939,1.50,2.25,-27.45,15.33
7276,29.99,-9.04,-33.00,29.297,-755.371,1007.324,2.25,1.05,-26.40,14.90
7286,25.66,-30.19,-36.31,-340.820,-1072.266,-44.434,2.55,4.35,-28.65,15.38
7296,7.88,-6.66,-26.71,342.773,-317.871,1999.939,3.75,3.45,-28.20,15.19
7305,5.84,-15.45,-36.56,259.766,-647.461,587.402,2.25,2.70,-28.20,15.14
7315,2.87,-17.64,-33.66,-130.859,-252.930,468.750,3.75,3.45,-27.15,15.33
7325,3.64,-11.62,-30.13,-58.105,-286.621,514.160,2.10,3.30,-28.35,14.99
7337,4.69,-13.93,-33.96,897.949,-88.867,747.559,2.10,3.30,-28.35,15.38
7347,16.92,-28.92,-28.01,324.219,-390.625,1979.492,1.20,2.85,-29.55,14.90
7357,-7.30,-21.15,-187.80,-289.062,-426.758,699.707,3.00,3.15,-27.90,15.19
7367,-10.48,-19.82,-35.32,-275.391,-899.902,1457.031,3.00,3.15,-27.90,15.14
7377,-11.50,-13.42,-38.55,127.930,-612.305,1371.094,2.55,3.45,-27.15,15.23
7387,-3.48,-17.54,-27.90,115.723,-291.504,817.871,0.15,2.10,-28.35,15.23
7397,-5.08,-10.98,-32.80,-252.930,-395.508,819.824,2.40,4.05,-27.30,15.33
7409,-26.94,-11.39,-32.29,-2.930,-233.398,783.691,0.75,1.50,-28.20,15.23
7419,-20.77,-7.80,-42.47,-20.996,-17.090,660.645,0.75,1.50,-28.20,15.23
7429,-20.32,-10.18,-42.57,-179.199,-231.934,777.832,2.10,4.50,-28.80,14.99
7439,-22.40,-5.18,-37.64,50.293,100.098,796.387,2.10,4.50,-28.80,15.23
7448,-5.13,-16.05,-32.82,183.105,-131.348,1665.527,2.10,4.50,-28.80,15.19
7458,-1.70,-15.90,-37.50,-153.809,-349.121,748.535,4.50,3.90,-27.15,15.14
7468,-0.14,-7.79,-38.31,-286.133,-697.266,845.703,0.75,2.70,-28.65,15.43
7480,-17.45,-8.98,-41.48,-473.633,-368.164,1171.387,0.90,1.65,-29.55,15.23
7490,-12.87,10.07,-41.02,-1056.641,6.348,840.820,0.90,1.65,-29.55,15.14
7499,11.79,8.95,-36.25,62.500,167.480,683.594,0.90,1.65,-29.55,14.90
7508,18.96,15.17,-38.31,73.242,-841.309,937.012,1.05,3.45,-28.95,15.23
7522,18.10,15.66,-44.63,373.535,-564.453,427.246,3.15,4.05,-27.60,15.14
7532,6.43,12.23,-33.99,200.684,-1009.277,1384.277,4.35,3.75,-27.30,15.23
7544,-16.86,15.49,-35.25,-57.129,-486.816,645.020,3.00,3.15,-29.40,14.99
7554,-21.83,6.56,-36.72,65.430,48.828,1045.898,3.90,4.05,-27.60,15.23
7564,-10.52,3.05,-33.62,129.883,260.742,1319.336,3.00,3.90,-28.65,15.19
7573,14.19,-3.90,-32.63,121.094,-224.609,1274.414,3.00,3.90,-28.65,15.38
7583,25.76,5.04,-31.69,131.836,-636.230,1777.344,2.25,3.15,-28.20,14.99
7593,21.74,8.08,-32.76,-139.160,-896.973,556.641,5.10,2.55,-28.80,14.90
7602,15.05,3.97,-28.89,-71.777,-712.402,926.270,5.10,2.55,-28.80,15.33
7613,5.04,6.09,-35.21,277.832,-1084.961,143.066,5.70,3.90,-27.90,15.23
7622,-13.70,-4.29,-35.82,-108.887,-395.996,916.504,3.75,3.15,-29.40,15.14
7632,-16.47,-0.53,-36.77,-471.191,-8.789,1495.605,5.70,3.15,-27.15,15.04
7642,-20.21,5.42,-34.42,-344.727,514.160,1017.578,3.60,4.05,-29.10,15.19
7652,-13.06,1.76,-33.73,-290.527,-248.535,690.918,3.60,4.05,-29.10,15.38
7662,-2.77,4.27,-36.44,-149.414,35.156,850.098,4.20,2.70,-29.70,15.38
7671,3.22,-1.03,-37.76,99.121,-507.324,1634.766,7.05,3.30,-28.05,15.04
7682,-3.31,-1.97,-46.28,-106.934,-125.000,1317.383,7.05,3.30,-28.05,15.23
7692,-3.86,2.40,-36.11,211.426,-458.496,1725.098,6.90,3.15,-27.90,14.99
7702,3.17,6.75,-41.60,-146.484,82.031,672.363,4.50,2.25,-29.40,15.38
7711,5.40,3.24,-44.06,133.301,-714.844,870.117,7.05,3.30,-27.30,15.43
7721,8.02,3.02,-43.95,55.664,-498.535,1079.590,5.10,5.25,-29.55,15.23
7730,0.47,-1.37,-41.53,263.184,-712.891,1327.637,7.80,1.65,-27.30,14.99
7740,-3.51,-0.72,-43.05,123.535,-800.781,1032.227,6.45,4.65,-28.65,14.99
7752,0.84,-3.79,-46.53,-79.102,-430.664,1507.813,7.35,3.30,-26.55,15.23
7762,-4.26,-5.57,-42.05,-140.625,-229.492,1239.746,7.35,3.30,-26.55,15.23
7772,-9.68,-5.31,-44.85,59.570,52.734,1312.500,8.70,3.90,-27.90,15.33
7781,4.95,1.04,-42.29,-104.980,-208.008,1157.715,7.20,3.45,-30.15,15.23
7791,0.81,5.19,-42.73,-130.371,-463.379,863.281,8.25,3.30,-28.05,15.14
7800,-1.85,3.46,-48.16,108.398,-651.367,1248.535,7.65,4.65,-28.95,15.14
7810,-7.07,3.79,-41.60,301.758,-1036.621,1200.195,10.65,3.45,-28.65,15.23
7822,1.67,3.92,-41.94,-20.020,-108.887,755.371,7.05,2.55,-29.85,15.38
7832,0.93,2.36,-40.50,77.148,-1.953,1001.953,8.70,2.25,-28.95,15.33
7842,1.10,0.53,-42.14,-112.305,-619.629,1736.328,8.70,2.25,-28.95,15.33
7851,7.98,3.10,-41.16,-44.922,-326.172,744.141,11.10,2.25,-28.65,15.04
7861,5.50,2.03,-42.91,-203.125,-159.180,556.641,8.70,2.70,-30.15,15.14
7870,-3.99,3.14,-38.44,199.707,-466.309,963.379,8.70,2.70,-30.15,15.23
7880,2.11,-1.66,-42.57,188.477,-565.918,831.543,8.70,2.70,-30.15,14.90
7892,-0.40,-0.34,-40.26,-13.184,-373.535,494.629,10.35,2.70,-27.90,15.33
7902,-8.13,-0.08,-41.79,124.023,-543.457,941.406,9.30,2.55,-29.10,15.23
7912,-7.98,-0.69,-40.72,159.180,-303.223,1041.992,10.65,3.45,-30.45,15.33
7922,-1.53,-0.46,-39.68,-14.160,-392.578,980.469,10.65,3.45,-30.45,15.14
7932,7.11,-0.19,-44.44,-112.305,-1003.418,1088.379,10.50,4.05,-28.80,15.19
7942,2.35,0.51,-36.18,201.172,-954.102,894.043,10.35,2.70,-30.15,15.14
7952,-1.41,1.02,-39.88,83.984,-698.242,1075.684,10.35,2.70,-30.15,15.33
7964,-3.43,4.05,-41.73,-42.480,-85.449,1296.875,10.65,1.05,-29.40,15.23
7974,3.96,3.32,-39.11,-10.742,-100.586,688.477,12.00,4.05,-28.35,15.14
7984,5.37,-3.25,-43.06,104.004,-779.785,1238.281,10.50,2.55,-30.30,15.33
7993,1.60,2.24,-43.83,-191.895,-470.703,800.293,13.05,3.90,-28.65,15.14
8003,-0.37,3.31,-40.14,-175.781,-314.453,647.949,13.05,3.90,-28.65,15.14
8013,-0.89,-0.19,-41.56,-130.859,-428.223,1044.922,12.60,3.90,-29.70,15.19
8029,-1.29,0.47,-42.34,-315.918,-537.109,669.922,13.20,2.10,-29.85,15.38
8039,5.06,-1.91,-46.81,-71.777,-631.836,636.719,13.20,2.10,-29.85,15.23
8049,-0.13,-0.87,-40.53,-13.184,-251.953,1107.422,12.00,2.10,-29.85,15.19
8059,-6.80,1.44,-42.15,-156.738,-329.590,1191.406,13.20,3.75,-28.80,14.99
8069,1.88,0.20,-43.31,-51.270,-559.570,772.949,12.30,1.05,-28.95,15.14
8078,1.96,-1.41,-48.89,-79.102,-209.961,1018.066,13.50,2.55,-28.80,15.14
8088,9.59,3.72,-44.64,-122.559,-480.469,608.887,13.35,2.25,-29.40,15.33
8100,-1.36,-1.52,-43.14,-354.980,-314.941,526.367,12.00,0.90,-30.30,15.23
8110,13.92,1.51,-42.80,-8.789,-1574.707,865.723,12.00,0.90,-30.30,15.38
8120,-9.43,-13.19,-46.69,-178.711,-404.785,1863.770,13.80,2.70,-28.95,15.33
8130,5.23,-6.78,-43.74,-176.758,211.426,1558.105,13.35,1.95,-30.45,15.23
8140,2.66,-3.02,-42.63,-98.145,-158.203,1118.164,13.35,1.95,-30.45,15.19
8150,-2.54,-5.85,-44.54,-302.734,-241.211,1399.414,13.50,1.65,-30.30,15.14
8160,4.20,-0.82,-35.34,-48.340,-147.949,316.895,14.40,1.35,-29.10,15.33
8172,-6.03,-0.11,-45.76,-116.699,-646.973,803.711,14.85,2.25,-30.15,15.23
8182,7.50,-6.86,-40.92,255.859,-372.559,1493.164,14.70,0.45,-29.55,15.14
8192,-4.38,-3.51,-47.26,-21.484,-901.367,1388.184,14.70,0.45,-29.55,15.19
8202,-1.21,-2.08,-42.38,-120.117,-378.906,965.820,15.45,2.10,-29.10,15.23
8212,-0.76,-1.19,-46.03,-106.445,-74.219,1341.797,14.10,0.75,-29.70,15.14
8222,6.89,-4.24,-44.52,-291.504,-240.234,1232.910,14.10,0.75,-29.70,15.14
8232,1.88,2.62,-48.27,-204.590,-336.914,500.488,16.05,1.05,-30.45,15.23
8243,2.95,0.46,-46.74,-425.781,-740.723,791.504,15.15,2.55,-30.75,15.14
8253,-4.96,2.81,-47.46,-545.898,-212.891,1163.574,16.65,2.10,-31.05,15.23
8263,-2.43,2.38,-48.60,134.277,-189.453,624.023,15.45,1.35,-30.75,15.33
8272,4.25,3.44,-47.67,-148.437,-161.133,1307.129,15.45,1.35,-30.75,15.04
8282,4.63,5.51,-46.15,45.410,-182.129,750.488,17.55,2.25,-31.20,15.19
8292,6.21,-1.37,-49.36,-229.980,-102.539,743.652,16.65,0.90,-29.10,15.33
8302,3.08,-3.73,-50.02,41.992,-387.695,1199.219,16.65,0.90,-29.10,15.33
8314,-3.30,-0.65,-50.53,-117.676,-805.664,1116.211,17.10,0.15,-30.75,15.23
8324,0.13,-1.82,-46.56,-254.395,-707.031,532.715,17.40,0.90,-31.05,15.14
8334,1.53,-6.57,-44.44,-158.691,-612.793,964.844,17.25,0.30,-31.65,15.23
8344,8.98,3.95,-45.40,-337.891,123.047,1373.535,16.80,0.00,-30.90,14.99
8354,15.48,5.60,-43.46,-70.313,-521.973,917.480,16.80,0.00,-30.90,15.33
8364,-1.09,-0.73,-49.07,-165.039,-913.574,583.008,17.55,0.00,-31.65,15.38
8374,-19.09,2.69,-50.71,-65.430,-637.207,1747.070,17.55,0.00,-30.90,15.23
8386,-12.46,3.02,-45.05,-252.930,-341.797,1421.387,17.55,0.00,-30.90,15.38
8396,0.56,7.99,-46.47,-143.555,384.766,834.961,18.00,-0.30,-31.95,15.23
8406,3.11,1.58,-44.97,369.629,157.715,1999.939,17.55,-1.50,-31.65,15.43
8415,10.24,0.04,-45.73,-444.824,-322.754,732.422,18.00,0.75,-31.20,14.90
8425,3.17,-3.34,-43.43,76.660,-1029.297,1315.918,18.90,-0.90,-31.05,15.14
8435,1.02,-2.63,-47.94,22.461,-568.359,1270.508,18.90,-0.90,-31.05,15.23
8445,-4.27,-1.13,-42.81,-16.602,-162.598,840.820,18.45,-1.05,-31.20,15.38
8457,4.35,-4.86,-45.30,215.820,-560.547,113.281,19.65,0.15,-29.85,15.38
8467,4.58,-7.63,-38.67,294.922,-760.742,1216.797,19.65,0.15,-29.85,15.38
8477,0.16,-4.82,-46.17,-291.992,-481.934,1356.445,18.75,-0.75,-31.65,15.19
8487,3.09,-2.35,-39.60,14.648,-355.957,943.848,18.00,-1.50,-31.65,15.23
8497,1.09,1.48,-43.24,-62.500,-554.199,904.785,18.90,-1.35,-31.50,14.99
8507,-8.05,4.69,-39.51,-305.176,-372.559,423.340,19.35,-1.65,-31.50,15.14
8517,-0.40,10.58,-39.14,71.777,-564.453,749.512,19.35,-1.65,-31.50,15.43
8529,-0.62,4.88,-37.24,-51.758,-122.559,778.320,18.90,-2.10,-32.55,15.04
8543,0.78,5.60,-41.27,53.711,-559.570,1763.672,19.20,-1.95,-31.65,15.19
8553,-2.62,5.20,-39.02,-310.547,141.113,1855.957,20.10,-2.10,-32.55,15.23
8563,8.88,7.69,-41.18,100.098,-55.664,1152.832,19.35,-1.65,-30.75,14.80
8572,10.40,-0.20,-40.69,-35.156,-526.855,624.512,19.20,-1.95,-31.65,15.38
8582,6.84,-1.18,-39.40,-75.195,-773.926,839.355,18.60,-2.55,-32.25,15.23
8592,-3.66,-2.95,-38.82,161.621,-588.867,1557.129,20.55,-2.10,-31.80,15.23
8604,-0.07,0.00,-40.48,-189.941,-429.199,568.848,20.85,-2.55,-31.80,15.52
8614,5.29,-6.85,-35.79,57.129,-60.059,1489.746,19.50,-2.25,-30.45,15.43
8624,1.02,-1.79,-30.61,85.938,-3.418,1488.770,19.50,-2.25,-30.45,15.23
8634,7.80,-1.63,-35.09,-242.676,300.293,1970.215,21.90,-3.90,-30.15,14.80
8644,0.11,5.60,-38.34,76.660,-246.582,465.820,19.65,-3.30,-32.25,15.33
8654,7.59,-1.94,-39.41,-290.527,-271.484,920.410,20.85,-3.30,-31.05,15.33
8664,11.59,-2.60,-33.95,111.328,-616.699,600.098,19.35,-4.05,-33.00,15.19
8676,-6.62,0.76,-41.18,-359.863,-200.195,326.660,19.95,-3.90,-30.45,15.52
8686,5.39,-5.93,-30.32,140.625,-331.543,-135.254,19.95,-2.70,-32.70,15.33
8696,-2.99,-3.76,-31.03,35.156,-263.672,1065.430,20.55,-3.30,-31.05,15.19
8706,-5.44,-7.93,-35.02,-100.098,-42.969,1874.512,20.55,-3.30,-31.05,15.14
8716,-5.02,-3.25,-33.23,-51.758,241.699,687.500,21.45,-4.35,-31.95,15.14
8726,0.37,3.92,-32.07,-167.480,-119.629,807.129,21.00,-3.45,-33.90,15.19
8738,-5.81,1.27,-33.38,-51.270,-56.152,950.195,21.00,-3.45,-33.90,15.14
8748,-2.62,-3.37,-35.51,-116.211,-457.031,602.539,21.45,-3.90,-33.90,15.38
8758,-7.20,-1.36,-32.32,-26.367,-189.453,418.945,22.05,-3.30,-31.05,15.19
8768,-10.74,3.71,-34.69,-314.941,-243.652,157.227,20.85,-4.50,-32.25,15.23
8778,-1.94,-2.05,-30.44,12.207,-125.000,1140.137,21.00,-5.10,-30.15,15.23
8788,-7.64,-9.39,-32.15,-151.855,-433.105,1999.939,21.00,-5.10,-30.15,15.23
8798,-7.73,-1.01,-31.58,-66.895,472.168,1881.348,22.95,-5.85,-31.65,15.19
8810,7.66,1.85,-35.02,10.742,-748.047,1351.563,22.20,-4.65,-31.65,15.14
8820,7.78,-1.35,-30.02,43.457,-594.727,1262.695,22.20,-4.65,-31.65,14.90
8830,8.63,0.27,-37.45,160.645,-577.148,1339.844,22.80,-4.50,-32.25,15.38
8839,-13.37,-4.11,-31.54,-69.336,-104.492,257.812,23.25,-5.70,-30.30,15.23
8849,-5.45,-3.73,-30.81,-255.859,-592.773,1012.207,21.90,-4.35,-32.40,15.38
8859,-6.40,-4.44,-37.11,199.219,-150.391,1359.863,22.80,-7.65,-31.80,14.99
8869,-1.11,-3.44,-36.72,-202.637,-49.316,1633.301,22.80,-7.65,-31.80,15.04
8881,18.05,-5.74,-34.08,39.063,-696.777,1119.141,21.60,-5.25,-32.25,15.14
8891,13.82,-3.59,-34.68,125.000,-1040.039,909.668,21.60,-5.25,-32.25,14.99
8901,5.02,-2.15,-34.53,-15.137,-351.562,1365.723,22.20,-5.85,-32.40,15.38
8911,0.26,1.77,-38.27,-252.930,-367.187,1122.070,21.90,-7.05,-31.95,15.19
8921,-10.71,4.82,-37.58,-245.117,-384.277,532.227,22.35,-7.05,-31.95,15.33
8931,-13.42,9.72,-34.86,-146.973,-40.039,62.012,22.35,-7.65,-32.25,15.19
8941,-7.89,4.60,-31.79,146.484,-183.594,750.488,22.35,-7.65,-32.25,15.14
8953,0.95,9.49,-35.31,33.691,-365.234,481.445,23.25,-7.65,-32.55,15.19
8963,4.95,5.08,-30.08,-160.156,-356.934,1134.277,22.95,-5.55,-30.90,15.04
8973,9.42,1.21,-33.21,-53.711,-685.547,1097.656,22.95,-5.55,-30.90,15.14
8983,7.89,2.55,-29.68,430.176,-665.039,1521.973,23.40,-6.75,-31.95,15.19
8992,-12.19,6.24,-35.85,-127.441,-133.301,480.957,22.80,-7.35,-32.25,15.38
9002,-14.27,3.52,-32.64,-147.461,34.668,381.348,23.70,-6.75,-33.45,15.57
9012,-10.63,-0.38,-33.56,-28.809,-207.031,739.746,23.70,-8.25,-31.95,15.04
9024,7.21,2.69,-38.53,-343.262,24.414,809.570,23.40,-7.50,-33.15,15.23
9034,12.49,1.21,-34.34,145.020,-471.680,638.184,24.00,-9.30,-32.55,15.14
9044,4.50,-1.35,-32.00,47.852,-838.379,1670.410,23.55,-7.35,-31.50,15.19
9058,8.21,0.81,-33.26,-59.082,-638.672,1494.629,23.55,-7.35,-31.50,15.19
9068,-5.90,5.68,-30.28,-84.961,-379.395,873.047,24.30,-7.35,-32.25,15.52
9078,-4.66,7.68,-36.02,-13.184,-49.805,828.613,22.95,-9.15,-33.45,15.04
9088,2.69,2.69,-32.52,67.383,-668.945,820.312,24.75,-7.65,-33.30,15.04
9100,-21.40,7.45,-34.01,-111.328,4.395,135.254,23.25,-9.75,-32.25,15.04
9110,-14.61,11.17,-37.28,13.184,617.676,640.137,24.15,-9.45,-32.70,14.90
9120,3.06,4.16,-24.47,221.680,343.750,648.437,23.40,-9.15,-31.95,15.19
9130,6.58,8.12,-30.09,-99.609,-221.191,1352.539,25.35,-7.05,-31.95,15.33
9140,-3.08,6.44,-39.69,-28.320,-364.746,1355.957,25.35,-7.05,-31.95,15.33
9150,-4.19,2.95,-27.42,99.121,-83.008,926.270,25.35,-8.25,-33.45,15.23
9160,0.31,0.98,-35.23,-106.445,-306.152,784.180,22.80,-8.85,-33.30,15.14
9172,-1.05,3.82,-37.00,55.664,-346.680,1028.809,24.90,-10.35,-32.40,15.04
9182,9.63,0.54,-30.44,58.105,-734.375,841.309,25.35,-9.45,-33.15,15.14
9192,11.02,-10.16,-30.73,336.426,-707.031,630.859,25.05,-10.95,-32.25,15.38
9202,4.78,-5.89,-33.32,101.563,-394.043,793.945,24.60,-10.35,-33.15,15.14
9212,-1.42,-11.73,-31.62,83.008,-816.406,1513.672,24.60,-10.35,-33.15,15.33
9222,-1.71,-4.41,-34.73,-41.992,-541.992,1244.141,23.70,-9.90,-33.15,15.19
9232,-2.06,-6.01,-34.96,-127.441,-555.176,1277.832,24.75,-11.25,-32.55,15.43
9244,-1.31,-1.97,-31.08,56.152,-196.777,1602.051,24.75,-11.25,-32.55,15.38
9254,2.39,0.12,-31.34,13.184,128.906,1351.074,24.60,-11.10,-32.40,15.19
9263,3.65,7.68,-35.24,-120.605,-237.305,855.469,24.60,-11.10,-31.20,15.19
9273,5.86,7.04,-32.53,-135.254,-407.227,1186.035,24.90,-11.10,-32.40,15.23
9283,1.75,9.95,-40.34,-150.391,-417.480,881.836,24.00,-8.85,-34.05,15.19
9293,-1.44,1.81,-37.89,146.484,-124.023,1069.824,24.00,-8.85,-34.05,15.33
9303,1.20,4.93,-30.80,-180.176,-356.934,1449.219,24.15,-11.10,-33.15,15.38
9315,-8.78,-1.10,-31.63,-25.391,-344.727,659.180,24.60,-12.75,-30.90,15.33
9325,-3.40,2.94,-35.88,91.309,-572.754,597.168,24.60,-12.75,-30.90,15.04
9335,4.28,-1.21,-37.79,40.527,-479.980,957.031,25.05,-12.90,-32.55,15.14
9345,10.24,-6.87,-34.82,-39.063,-963.379,888.672,24.60,-11.85,-34.20,15.23
9355,1.54,-3.07,-27.85,101.074,-650.879,1162.598,25.50,-12.15,-32.55,15.38
9365,3.05,-5.69,-36.56,169.922,-512.207,962.891,24.00,-12.15,-34.50,15.23
9376,-7.83,-7.84,-33.77,96.191,-313.477,1455.566,24.00,-12.15,-34.50,15.33
9386,-6.94,-2.41,-23.95,306.641,-102.051,1374.512,23.40,-12.75,-34.20,15.23
9396,-9.89,-7.68,-32.56,26.855,-67.871,1327.148,25.50,-13.20,-30.75,15.38
9406,-6.26,-0.95,-34.24,-278.320,337.402,1366.211,25.50,-13.20,-30.75,15.04
9416,-3.53,-0.69,-32.13,-301.270,-237.793,448.242,24.90,-14.70,-31.65,15.23
9426,-2.40,-0.85,-36.38,0.488,-121.582,905.762,23.40,-13.50,-33.90,15.23
9436,-1.07,-4.26,-33.01,6.348,-255.371,1101.074,27.00,-14.85,-32.55,15.38
9448,1.50,-0.89,-34.32,-289.062,-350.098,685.059,25.65,-13.05,-34.65,15.33
9458,-3.61,3.98,-35.37,32.227,64.941,928.223,25.65,-13.05,-34.65,15.14
9468,-9.79,1.00,-31.91,-263.184,-72.754,1380.371,24.75,-13.20,-34.05,15.33
9478,-4.65,0.36,-29.13,-62.012,-21.973,638.672,27.15,-14.25,-32.40,15.38
9488,-7.24,-0.28,-36.73,2.930,96.191,1201.172,27.15,-14.25,-32.40,15.04
9498,6.53,2.50,-28.92,156.250,-335.937,1228.516,25.65,-15.45,-32.40,15.23
9507,0.15,2.74,-33.73,52.246,-575.684,694.336,24.90,-15.45,-34.20,15.14
9519,1.28,7.17,-53.15,-227.539,-399.414,296.387,25.50,-14.40,-32.25,15.23
9529,4.05,0.23,-29.89,-211.426,-576.660,960.937,25.35,-15.90,-34.20,15.23
9539,3.55,0.93,-32.27,-177.246,-328.125,1086.914,25.35,-13.05,-32.40,15.19
9549,6.47,-1.99,-34.35,83.496,-309.570,779.297,24.60,-17.10,-32.40,15.14
9559,3.13,-0.39,-33.69,122.559,-469.238,1450.684,26.70,-15.30,-33.75,15.23
9573,2.24,-1.95,-29.87,26.855,-326.172,985.352,25.65,-15.90,-33.15,15.38
9583,6.13,0.18,-32.10,1.953,-603.027,808.105,25.35,-16.65,-32.70,15.33
9595,-1.35,-4.24,-35.29,208.984,-319.336,1009.277,26.40,-15.90,-32.40,15.23
9605,-0.44,-2.76,-34.91,-109.375,-161.621,1109.863,26.70,-18.00,-33.75,15.43
9615,0.56,-3.56,-38.15,-74.219,-500.488,1082.520,25.65,-15.45,-33.90,15.33
9625,-2.66,-3.35,-31.68,-53.223,-592.773,1291.016,25.80,-17.25,-33.30,15.14
9635,-5.14,-3.08,-32.73,-44.922,-506.348,1377.441,24.00,-16.80,-33.75,15.19
9645,-2.82,-0.49,-35.00,30.762,-487.305,1717.285,24.00,-16.80,-33.75,15.38
9655,-0.49,1.37,-31.45,218.262,-312.500,1137.207,25.05,-15.60,-33.75,15.38
9667,-18.38,8.85,-39.87,-207.520,65.918,778.320,25.35,-16.20,-32.70,15.23
9677,-7.24,6.07,-38.55,89.844,-213.867,1110.840,25.35,-16.20,-32.70,15.38
9687,-7.80,9.01,-38.87,169.922,-86.426,893.555,25.50,-17.25,-33.00,15.33
9697,-3.58,10.82,-39.70,-85.938,-23.437,768.555,23.40,-17.10,-34.20,15.04
9707,5.10,9.53,-37.38,98.633,-400.879,547.852,25.80,-17.25,-33.00,14.99
9717,3.08,9.84,-36.21,-148.926,-433.594,713.867,25.35,-18.30,-34.20,15.19
9727,-1.08,0.34,-35.48,-201.660,-227.539,1084.473,25.35,-18.30,-34.20,15.19
9739,0.24,-5.79,-34.89,356.934,-120.605,831.055,25.80,-18.90,-34.80,15.14
9749,5.62,-3.14,-35.76,309.082,-576.172,735.840,25.65,-17.40,-32.70,15.19
9759,-5.75,0.19,-32.00,452.637,-220.215,865.723,25.65,-17.40,-32.70,15.43
9769,-8.81,-9.25,-34.71,398.926,-278.320,1414.063,24.30,-17.25,-34.80,15.14
9779,-4.45,-3.84,-29.93,138.184,-242.676,1139.160,25.35,-20.25,-32.40,15.04
9789,1.19,-0.85,-32.56,136.230,-415.039,1575.195,24.60,-17.40,-34.20,15.43
9799,-0.27,-8.95,-36.92,45.410,-411.133,1441.406,26.25,-20.40,-32.55,15.14
9811,-1.84,-1.54,-32.34,-341.797,-351.074,1005.859,26.25,-20.40,-32.55,15.33
9821,-2.85,5.12,-31.76,-420.410,-250.977,1271.973,25.35,-19.05,-32.70,15.38
9831,-0.35,3.90,-32.38,-328.613,-540.039,760.742,24.90,-19.05,-34.20,15.14
9841,0.58,3.58,-35.85,-65.918,-459.473,1319.336,24.90,-19.05,-34.20,15.33
9851,-2.01,4.08,-33.92,171.875,-561.523,1092.285,22.80,-20.40,-34.50,15.38
9861,-0.47,-1.70,-36.59,-353.516,25.879,1005.371,25.35,-19.50,-32.70,15.14
9873,-4.61,-0.53,-36.06,39.063,-658.203,1494.141,24.30,-19.65,-34.05,15.23
9883,-10.05,2.53,-41.40,-103.516,-743.652,1093.262,24.30,-19.65,-34.05,15.14
9893,-4.04,-1.65,-37.66,161.133,-668.457,1088.867,24.75,-18.00,-34.50,15.23
9903,-0.21,0.10,-37.22,-236.816,-304.199,846.680,26.10,-20.70,-33.90,15.43
9913,4.76,0.20,-37.73,-82.520,-394.531,1104.492,26.10,-20.70,-33.90,15.04
9923,-2.50,0.20,-36.95,-308.594,-896.973,772.461,25.05,-20.85,-33.30,15.38
9933,-5.60,-3.76,-40.59,-174.805,-502.441,1733.398,23.55,-21.60,-34.05,15.38
9945,0.83,-6.56,-36.70,123.535,-268.555,1619.629,24.60,-20.25,-33.45,15.23
9955,3.63,0.91,-37.64,248.047,-576.660,859.863,23.40,-22.65,-33.15,15.23
9965,-2.26,-4.63,-37.60,-107.910,-814.941,1177.734,25.35,-20.70,-34.65,14.80
9975,-3.55,-4.98,-36.15,-22.949,-264.160,680.664,24.75,-22.05,-33.75,15.23
9985,-8.18,-5.73,-34.04,-263.672,-369.629,1089.355,23.70,-20.70,-33.90,15.19
9995,-11.85,1.14,-36.51,-207.520,-404.297,1128.418,23.70,-20.70,-33.90,15.43
10005,-11.82,-1.85,-33.08,51.270,126.465,953.125,24.15,-22.20,-34.20,15.23
10017,3.04,1.23,-31.31,190.430,-643.555,694.824,23.40,-23.10,-32.70,15.38
10027,0.23,0.25,-34.05,-10.742,-337.891,1262.207,24.00,-22.50,-34.50,15.14
10037,4.53,4.56,-35.45,72.266,-740.723,637.695,24.60,-22.20,-32.40,15.23
10047,4.60,-3.20,-32.02,287.109,-589.355,1314.453,23.40,-21.90,-33.15,15.14
10057,2.18,3.90,-35.86,188.477,-571.777,1114.258,23.70,-22.20,-33.90,15.38
10067,-1.67,-3.37,-32.93,3.906,-702.148,1343.750,23.40,-25.05,-33.90,15.38
10079,-1.75,-3.39,-36.67,141.602,-402.344,1259.766,23.40,-25.05,-33.90,15.23
10094,3.61,-2.21,-36.53,-159.180,-361.328,753.418,23.70,-23.40,-34.65,15.23
10103,3.60,-3.15,-38.94,-179.687,-633.789,1004.883,23.70,-23.40,-34.65,15.14
10113,-5.61,-1.24,-39.11,105.469,-407.715,1500.488,23.55,-22.80,-35.55,15.14
10123,-3.30,2.81,-34.63,-50.781,-178.223,969.238,24.00,-21.60,-34.05,15.19
10133,-2.11,-1.41,-36.41,65.918,-288.086,1619.629,24.00,-25.95,-33.75,15.33
10145,0.58,-3.62,-35.44,160.645,-482.422,1081.543,23.55,-22.50,-34.50,15.19
10155,-3.03,4.91,-37.66,299.805,-486.328,1085.938,23.55,-22.50,-34.50,15.19
10165,0.59,4.85,-39.86,308.594,-616.699,1142.090,23.40,-23.10,-33.90,15.23
10174,-6.60,-3.37,-41.41,5.859,-529.297,1188.965,24.00,-24.45,-33.00,15.23
10184,-5.23,3.08,-40.47,77.148,-382.324,1009.277,24.00,-24.45,-33.00,14.99
10194,-0.24,-3.92,-36.78,274.902,-540.039,616.211,24.15,-23.85,-33.15,15.14
10204,0.97,-3.32,-40.69,-75.684,-332.031,1344.238,22.65,-25.80,-34.20,15.23
10216,-0.40,-3.11,-36.60,-314.941,-521.973,757.324,24.00,-23.25,-33.75,14.99
10226,-2.45,2.47,-34.55,-54.688,-547.363,1085.938,23.40,-26.25,-34.20,15.43
10236,-4.33,1.17,-37.66,311.523,-392.090,645.020,23.40,-26.25,-34.20,15.33
10246,-5.80,-5.30,-34.54,64.453,-440.918,1999.939,23.40,-26.55,-33.45,15.38
10256,-0.61,-2.59,-44.75,-245.117,-336.914,452.148,22.20,-25.80,-34.65,15.23
10266,3.74,-5.38,-40.69,-278.320,-285.645,1145.996,22.20,-25.80,-34.65,14.90
10276,7.38,-4.61,-40.55,133.789,-291.016,714.844,22.80,-27.15,-34.50,15.19
10288,0.44,0.66,-20.44,-11.719,-872.070,629.395,22.20,-24.60,-34.95,14.90
10298,-11.04,-3.86,-32.60,-230.469,-454.590,514.160,23.25,-27.60,-33.30,15.14
10308,-5.60,-3.21,-40.28,-132.324,-573.730,580.078,22.35,-25.65,-33.75,15.23
10318,-2.45,-1.69,-35.17,-212.402,-166.016,867.187,22.35,-25.65,-33.75,15.23
10328,1.46,0.70,-39.65,223.633,-435.547,333.984,21.90,-27.00,-35.40,15.43
10338,3.39,-1.67,-38.26,94.238,-340.820,979.004,22.35,-25.95,-32.25,15.23
10350,1.23,-4.36,-35.63,25.391,-523.926,1386.230,22.35,-25.95,-32.25,15.23
10360,5.38,-3.43,-33.73,63.477,-699.707,1213.379,22.35,-25.20,-34.50,15.23
10370,1.85,4.63,-36.47,28.320,-775.879,1390.625,22.20,-27.45,-33.90,15.19
10379,-1.30,-4.25,-38.38,413.086,-534.180,1623.047,21.00,-26.55,-34.95,15.23
10389,-11.26,3.05,-33.44,-229.004,-356.934,1278.320,22.20,-27.75,-33.45,15.38
10399,-6.93,-1.02,-38.99,-128.906,-339.844,749.512,22.20,-27.75,-33.45,15.14
10409,-3.46,-0.94,-35.38,32.227,-377.930,1020.996,22.65,-27.45,-33.45,15.14
10422,0.44,-0.17,-36.63,87.891,-217.285,1339.355,21.60,-29.25,-33.75,15.14
10432,4.79,1.38,-59.27,115.234,-324.707,1085.938,21.60,-29.25,-33.75,15.33
10442,0.18,-5.42,-36.58,307.617,-492.187,951.172,21.45,-28.95,-33.45,15.38
10452,3.77,-7.28,-38.79,235.352,-158.691,1406.250,20.55,-28.35,-34.80,15.23
10462,0.63,0.63,-34.05,110.840,-319.824,664.551,22.35,-25.95,-34.05,15.14
10472,5.73,-0.76,-36.27,-197.754,-219.727,1029.297,21.30,-29.55,-33.30,15.23
10482,7.83,3.40,-35.32,-30.273,-586.426,463.379,19.95,-27.75,-33.90,15.23
10493,-3.80,1.87,-29.24,378.418,-359.863,980.957,20.25,-28.65,-35.40,15.23
10503,-7.22,4.27,-29.09,-337.891,-86.426,1122.559,20.25,-28.65,-35.40,15.19
10513,-3.02,2.41,-27.22,-18.066,-453.125,1006.348,19.65,-28.80,-34.50,15.19
10523,-1.51,1.75,-28.76,41.504,-268.066,1336.426,18.90,-27.15,-34.05,15.14
10533,-0.31,-1.48,-25.71,565.918,-559.570,1403.320,18.90,-27.15,-34.05,15.19
10543,-3.59,3.91,-48.27,-51.270,-128.418,739.746,19.50,-28.65,-34.95,15.23
10553,3.21,-0.66,-30.96,-139.648,-343.262,780.273,20.55,-28.80,-33.00,15.19
10565,6.79,-3.50,-25.29,-2.441,-424.316,964.355,19.50,-29.40,-33.15,15.38
10575,8.31,-2.99,-26.41,-66.406,-676.270,688.965,19.65,-27.15,-33.00,15.43
10585,3.31,-0.08,-7.95,108.887,-431.641,986.816,19.65,-27.15,-33.00,15.33
10595,-5.15,-3.29,-26.46,247.559,-282.227,1511.719,19.65,-28.35,-33.30,15.04
10616,1.27,-2.25,-31.82,244.629,-375.000,944.824,20.85,-29.25,-32.55,15.33
10626,5.17,-1.15,-27.46,-126.465,-122.070,600.098,18.75,-27.45,-34.20,15.38
10638,-1.47,4.11,-27.79,10.742,-264.648,520.020,19.35,-31.20,-31.80,15.23
10648,-5.32,0.50,-27.60,-22.461,-218.750,875.000,18.75,-27.75,-34.95,15.23
10658,-1.54,5.19,-26.34,268.555,-486.816,1040.527,19.35,-29.55,-34.05,15.43
10668,-4.27,3.94,-26.96,-185.547,50.293,1483.887,19.35,-29.55,-34.05,15.23
10678,7.10,-0.87,-31.31,160.645,-271.973,441.406,19.65,-29.25,-33.75,15.38
10688,5.43,-1.40,-30.31,453.125,-317.871,452.637,20.25,-31.05,-32.70,15.14
10698,1.60,-2.77,-27.92,-130.859,-352.539,1340.332,20.25,-31.05,-32.70,15.14
10710,-4.48,-6.88,-26.40,472.168,-702.148,1159.668,19.50,-29.85,-32.70,15.04
10720,-6.44,-4.53,-27.21,24.414,-362.793,1301.270,18.75,-31.05,-33.15,15.43
10730,-5.38,-3.72,-22.58,-216.797,-165.039,536.621,17.25,-28.65,-33.45,15.23
10740,3.20,-8.62,-27.45,207.520,-308.594,539.551,18.75,-30.60,-31.95,15.14
10750,-7.50,-5.31,-24.08,-231.445,-347.168,1019.531,18.75,-30.60,-31.95,15.23
10760,3.00,-4.83,-26.77,-157.715,-277.832,1298.828,18.60,-30.00,-33.00,15.23
10772,5.38,-2.49,-27.38,-2.930,-554.199,1391.602,17.55,-30.60,-32.70,15.19
10782,0.70,1.09,-29.15,-89.355,-209.961,1243.652,17.55,-30.60,-32.70,15.33
10792,5.38,2.34,-29.04,323.242,-475.586,467.773,19.35,-31.65,-32.25,15.04
10801,0.53,-2.62,-30.40,147.461,-552.246,916.016,16.65,-31.20,-33.00,15.33
10811,0.92,-3.08,-29.85,261.230,-771.973,979.004,18.90,-28.35,-32.25,15.38
10821,-2.99,2.02,-26.37,-247.559,-228.516,1315.430,18.00,-32.25,-32.70,15.23
10831,-3.42,1.27,-30.33,601.562,-601.562,1705.078,18.00,-32.25,-32.70,15.38
10843,0.35,-4.03,-30.50,189.941,-287.598,1284.668,17.10,-32.85,-32.25,15.38
10853,-3.74,2.73,-34.06,-119.141,-293.457,457.520,17.10,-32.85,-32.25,15.23
10863,-4.66,1.24,-42.28,-51.270,-39.551,521.484,17.10,-32.85,-32.25,15.14
10873,-0.85,-2.21,-27.05,20.996,-266.602,1293.457,16.05,-31.05,-33.15,15.23
10883,8.05,1.72,-32.89,31.738,-217.285,336.914,16.05,-31.05,-33.15,15.33
10893,5.46,-0.14,-26.32,-319.336,-185.547,979.004,16.50,-30.45,-31.80,15.38
10903,3.89,-2.39,-29.38,208.984,-359.375,1771.484,16.20,-30.45,-31.80,15.23
10915,0.31,1.33,-28.29,-240.234,-572.754,1182.617,16.80,-31.80,-32.70,15.33
10925,-5.55,-6.65,-28.70,14.160,-767.578,1667.969,17.55,-33.45,-31.95,15.33
10935,-4.78,1.46,-30.74,289.062,-480.957,786.133,17.55,-33.45,-31.95,15.14
10945,-4.91,-1.05,-32.77,-122.070,-649.902,1040.527,17.40,-33.15,-30.75,15.14
10955,4.25,-1.60,-29.22,-4.395,-489.258,474.121,15.75,-31.05,-32.70,15.23
10965,1.08,-1.31,-36.05,-175.293,-4.883,1339.355,15.45,-31.65,-31.80,15.52
10975,3.52,-0.26,-20.76,-214.355,-363.770,902.344,16.05,-32.55,-31.20,15.23
10987,6.83,-7.72,-64.85,-109.375,-210.937,979.980,15.90,-30.45,-32.25,15.43
10997,1.22,-7.85,-27.99,325.195,-841.309,1149.414,15.90,-31.65,-31.05,15.23
11007,-1.69,-7.76,-33.01,-54.199,-354.004,726.074,15.45,-33.15,-32.55,15.23
11017,-8.60,0.68,-32.01,-258.301,268.066,1241.211,15.45,-33.15,-32.55,15.14
11027,6.94,0.13,-28.30,236.328,-346.680,187.500,15.75,-33.45,-32.40,14.99
11037,-2.16,1.34,-30.51,-103.516,-285.156,921.387,14.70,-32.85,-32.55,15.04
11049,-3.86,6.49,-33.20,284.180,-401.855,799.805,14.70,-32.85,-32.55,15.38
11059,-22.43,5.73,-26.36,-586.914,-291.504,1164.063,16.05,-33.45,-30.45,15.23
11069,-1.44,-0.36,-35.19,250.488,-55.664,1090.332,14.70,-31.65,-32.25,15.38
11079,1.38,9.86,-26.69,-60.547,187.012,756.348,14.85,-31.35,-31.20,15.23
11089,13.64,-2.24,-29.85,-182.617,-676.758,1555.176,16.50,-34.20,-31.65,15.14
11099,5.07,-2.04,-25.96,75.684,-506.836,818.359,16.50,-34.20,-31.65,15.23
11109,1.47,0.44,-28.77,-223.633,-751.953,1353.027,15.45,-30.45,-31.50,15.04
11121,4.86,0.67,-28.44,-176.270,59.570,808.105,15.45,-32.40,-32.25,15.14
11136,9.11,-6.24,-28.25,298.828,-685.059,906.738,15.90,-32.40,-31.50,15.38
11146,0.04,0.85,-33.75,50.781,-384.766,375.977,17.10,-31.65,-33.00,15.23
11156,-4.75,5.05,-29.06,-466.797,-935.547,1207.031,15.45,-30.45,-32.55,15.23
11166,-9.82,-0.09,-29.63,-10.254,-296.875,850.098,14.55,-32.25,-32.40,15.38
11176,-7.22,6.73,-41.37,-451.172,-70.801,1280.273,14.55,-32.25,-32.40,15.23
11186,-3.69,5.96,-33.14,-21.484,-258.301,1537.598,15.15,-32.40,-33.00,15.04
11198,2.98,6.02,-38.01,84.961,-136.719,1470.215,14.70,-32.85,-31.80,15.04
11208,7.68,0.12,-30.64,97.656,-478.516,564.941,14.70,-32.85,-31.80,15.19
11217,8.52,1.74,-30.53,-119.141,-839.355,497.070,15.15,-30.75,-32.25,15.19
11227,-0.92,9.37,-32.46,-290.039,69.336,988.770,15.15,-31.65,-32.25,15.33
11237,10.99,-3.92,-29.05,152.832,-939.453,1471.680,14.70,-31.65,-32.25,15.14
11247,0.82,0.92,-29.98,-1.465,-220.703,1145.996,14.10,-31.35,-31.95,15.19
11259,-2.00,-1.86,-29.37,-278.320,-130.859,650.391,14.10,-31.35,-31.95,15.19
11269,6.46,5.44,-29.56,-104.004,-498.535,839.355,14.10,-31.35,-32.70,15.14
11279,7.24,-1.33,-28.86,-280.273,-555.176,277.832,14.10,-32.25,-32.40,15.04
11289,12.07,2.21,-31.92,6.348,-504.395,823.242,14.10,-32.25,-32.40,15.38
11299,8.66,5.45,-31.13,-294.434,-394.043,1656.738,14.40,-31.95,-32.25,15.23
11309,9.24,0.85,-31.05,-470.215,-578.125,1044.434,14.70,-32.40,-33.30,15.33
11319,5.22,-0.36,-32.44,-287.109,-535.645,1308.105,14.40,-32.40,-33.30,15.33
11331,-2.29,-0.56,-34.82,-222.656,-484.863,1053.711,13.95,-32.40,-32.25,15.67
11341,0.98,1.29,-34.29,-9.277,-443.359,1710.938,13.95,-32.40,-32.25,15.43
11351,6.29,-2.29,-27.44,-52.734,-574.707,1066.406,13.80,-31.35,-33.45,15.14
11361,5.19,1.05,-33.69,-187.988,-243.164,786.621,12.60,-32.55,-32.70,15.38
11371,2.39,1.11,-25.08,-74.707,-612.305,947.266,12.60,-32.55,-32.70,15.14
11381,-0.15,-0.54,-32.44,-150.391,-331.543,1533.691,13.80,-32.55,-33.45,15.23
11391,0.21,-3.19,-44.60,-244.141,-505.859,1634.766,13.50,-32.40,-33.00,15.38
11403,6.84,-6.03,-32.55,161.133,-655.273,1159.668,14.55,-31.80,-32.40,15.38
11413,1.06,-5.75,-37.95,21.484,-597.656,1466.309,14.10,-33.45,-33.15,15.33
11423,-0.65,-4.71,-34.37,-50.781,-656.738,719.727,13.95,-33.15,-33.30,15.04
11433,1.02,3.69,-39.53,-333.496,-296.875,486.816,13.50,-32.40,-32.55,15.14
11443,9.73,1.34,-28.99,-62.988,-771.973,991.699,12.60,-31.80,-33.45,15.23
11453,3.54,1.31,-35.13,-177.734,-1148.926,928.223,12.60,-31.80,-33.45,15.23
11465,6.50,4.29,-35.76,-79.102,-92.773,726.074,13.80,-33.45,-31.95,15.33
11475,9.31,4.92,-34.82,-114.258,-546.875,452.148,12.00,-31.95,-32.25,15.23
11485,9.93,-0.08,-29.88,-55.664,-330.566,1026.367,12.00,-32.40,-31.50,15.23
11495,-1.04,0.62,-33.47,-34.668,-214.355,1029.785,14.85,-33.75,-32.70,15.38
11505,-0.59,5.28,-37.81,-101.563,-487.793,1645.996,13.20,-31.95,-33.30,15.23
11515,-0.79,0.87,-32.37,-108.398,-338.867,1243.164,14.40,-32.40,-33.00,15.04
11525,0.33,1.75,-33.10,64.453,1.953,1187.012,14.40,-32.40,-33.00,15.33
11536,3.18,0.89,-45.60,-51.270,-156.738,1046.875,12.75,-32.85,-31.50,15.38
11546,10.85,2.13,-23.88,-137.207,-938.477,1406.738,12.60,-32.55,-32.70,15.38
11556,3.98,-4.56,-39.74,-248.047,-349.121,427.246,13.05,-32.25,-32.40,15.14
11566,4.13,4.22,-36.05,-128.418,-320.312,753.418,12.45,-31.20,-32.55,15.23
11576,4.54,-2.44,-39.26,-41.016,-711.914,1344.238,13.50,-33.15,-32.25,15.14
11586,4.91,-1.94,-39.12,-117.188,-795.410,1943.359,12.60,-32.25,-31.95,14.90
11596,-1.62,7.95,-108.89,-27.344,-171.387,823.242,13.80,-33.00,-30.90,15.23
11607,-1.39,-2.16,-46.14,-89.355,-460.449,899.902,13.80,-33.00,-30.90,15.38
11617,-0.34,8.63,-33.03,-159.668,-292.480,1102.051,12.00,-32.85,-32.25,15.38
11627,-1.98,3.47,-37.66,-276.367,-54.199,1060.547,12.45,-33.15,-31.80,15.19
11637,-0.51,2.70,-37.27,-102.539,-132.812,1137.695,12.45,-33.15,-31.80,15.38
11652,-5.92,4.24,-29.31,-9.766,-472.656,838.867,12.00,-31.95,-32.25,15.38
11661,-5.98,1.24,-39.44,-78.613,-209.961,876.953,12.00,-33.60,-33.00,15.38
11671,-7.82,0.05,-40.84,-105.957,-316.895,1322.754,12.00,-32.85,-32.55,15.38
11681,-4.79,-4.08,-40.24,-103.027,-46.875,856.934,11.70,-34.35,-31.80,15.14
11693,5.58,-1.53,-33.47,-84.961,-666.016,1137.207,11.70,-34.35,-31.80,15.33
11703,2.65,-5.62,-40.05,5.859,-320.312,705.566,12.45,-33.15,-33.00,15.33
11713,10.50,-2.90,-40.71,-348.633,-285.156,503.906,12.30,-33.45,-31.95,15.33
11723,14.17,-2.47,-37.60,-232.422,-795.410,1041.992,12.30,-33.45,-31.95,15.19
11733,9.11,-3.40,-34.83,-347.656,-825.195,1188.965,12.00,-33.60,-31.80,15.38
11743,5.69,-2.79,-39.08,-290.527,-611.816,1681.152,12.60,-33.45,-30.45,15.33
11755,-0.33,-4.61,-36.20,-100.586,-625.977,1791.992,10.65,-34.65,-30.45,15.38
11765,-0.85,1.02,-39.24,-12.695,-518.066,1181.641,10.65,-34.65,-30.45,15.33
11775,0.83,-5.27,-39.18,-280.273,-474.121,1011.719,11.70,-33.15,-32.55,15.43
11785,-1.60,-5.24,-47.50,-222.656,-677.734,876.465,9.90,-34.95,-31.65,15.23
11795,1.46,-3.47,-36.98,-318.848,-69.336,1180.664,9.90,-34.95,-31.65,15.23
11805,-0.38,-2.23,-34.40,-177.246,-244.629,1693.359,11.40,-33.75,-31.20,15.14
11815,2.03,-4.43,-39.11,-98.633,-460.449,972.168,11.25,-35.55,-31.50,15.23
11827,-7.69,-0.29,-40.21,-232.910,-459.961,1076.172,10.65,-33.75,-30.90,15.04
11837,0.18,-4.21,-41.14,-12.695,-593.262,862.305,9.60,-35.40,-31.20,15.33
11847,-2.34,-6.26,-38.18,-128.418,-224.609,813.965,9.60,-35.40,-31.20,15.23
11857,0.04,-3.68,-39.29,-22.949,-599.121,942.383,10.50,-35.25,-31.50,15.38
11867,1.69,-4.10,-43.62,-208.496,-371.582,769.043,8.40,-33.75,-30.15,15.67
11877,0.12,2.50,-34.39,-161.621,-327.637,752.930,8.40,-33.75,-30.15,15.23
11887,-3.42,-1.85,-37.47,-192.871,-115.234,1223.145,9.30,-34.80,-30.75,15.14
11899,3.18,4.09,-38.43,-174.805,-469.727,1453.125,8.40,-35.40,-31.65,15.23
11909,5.56,6.21,-39.24,-426.270,-228.027,1084.961,9.30,-35.25,-30.30,14.90
11919,3.32,1.52,-37.87,-11.230,-781.738,1034.180,9.75,-34.80,-31.05,15.52
11929,-6.62,6.05,-43.46,-251.465,-738.770,782.715,9.75,-34.80,-31.05,15.14
11939,-4.72,2.73,-41.37,-159.180,-885.254,751.953,9.60,-34.20,-30.15,15.38
11949,0.15,1.32,-40.56,19.043,-328.125,452.148,9.00,-35.25,-30.75,15.38
11958,-2.27,-0.78,-41.06,-214.844,-444.824,1586.426,9.00,-35.25,-30.75,15.04
11970,-2.81,-0.40,-47.15,-396.973,-752.930,1153.809,8.55,-34.35,-30.75,15.23
11980,-1.10,2.05,-43.76,174.316,-446.289,573.730,7.95,-35.40,-30.90,15.14
11990,0.89,-4.80,-46.06,-129.395,-550.293,987.305,8.40,-34.95,-30.45,15.19
12000,1.62,-2.37,-44.90,-189.941,-881.836,1318.848,7.80,-34.80,-30.30,15.43
12010,-0.13,-3.91,-42.35,-231.445,-494.141,1045.898,7.80,-34.80,-30.30,15.38
12020,6.15,-0.70,-45.50,-55.664,-823.730,1188.965,8.70,-35.40,-29.70,15.38
12032,-3.18,-1.63,-41.73,-178.711,-41.016,601.074,8.55,-34.35,-30.30,15.23
12042,-3.73,0.58,-43.47,40.039,-531.738,466.797,8.55,-34.35,-30.30,15.19
12052,-1.13,-3.09,-41.18,202.637,-642.090,779.785,8.70,-35.85,-29.40,15.14
12062,-2.05,-0.43,-46.42,-358.887,-557.129,1175.293,7.35,-37.20,-29.85,15.14
12072,2.44,-2.18,-47.19,-17.578,-201.172,985.840,7.20,-36.15,-28.95,15.23
12082,1.64,-3.64,-39.76,-80.566,-275.879,1290.527,6.60,-36.45,-31.05,15.23
12092,8.19,-6.21,-45.97,124.512,-876.465,1205.566,6.60,-36.45,-31.05,15.38
12103,5.71,-2.59,-49.34,-180.176,-655.273,1214.844,7.65,-35.85,-30.45,15.23
12113,1.80,0.56,-42.56,-167.969,-405.273,1058.105,6.30,-35.55,-29.55,15.38
12123,0.03,0.88,-50.77,-213.379,41.992,747.070,6.30,-35.55,-29.55,15.19
12133,-0.44,-1.80,-47.34,-77.637,-582.520,720.703,6.90,-36.15,-29.40,15.52
12143,0.74,-1.18,-56.17,-293.457,-613.281,1347.168,6.30,-36.45,-30.30,15.23
12153,-1.63,-1.02,-41.93,125.488,-651.367,997.070,5.55,-36.00,-29.85,15.38
12170,-12.33,3.08,-49.12,-250.977,-36.133,1043.457,7.35,-36.75,-30.30,15.38
12179,3.66,0.08,-49.34,117.188,-538.086,869.629,5.70,-36.60,-30.15,15.38
12189,5.43,-3.25,-49.39,-74.707,-83.008,1223.145,6.15,-36.15,-29.70,15.23
12199,4.94,1.80,-46.09,-373.535,-190.918,1124.512,6.15,-36.15,-29.70,15.14
12209,6.59,4.29,-44.74,104.980,-581.055,789.551,5.85,-37.20,-29.10,15.33
12218,4.69,-5.66,-44.14,-208.496,-851.074,1349.609,5.85,-36.75,-29.10,15.38
12228,-3.74,-5.15,-47.61,-253.906,-407.227,1112.305,4.80,-37.65,-30.30,15.38
12240,-5.23,-1.78,-48.28,-283.203,-438.477,170.898,4.50,-36.60,-30.15,15.23
12250,-1.84,-6.82,-51.89,-174.316,-191.406,738.770,5.85,-37.20,-28.80,15.19
12260,0.27,-3.15,-46.45,-255.371,-332.031,714.844,4.35,-36.75,-29.10,15.14
12270,8.23,-5.60,-44.31,-288.574,-375.000,1268.555,3.45,-37.80,-27.90,15.43
12280,13.89,0.81,-49.55,134.766,-876.465,1644.043,3.45,-37.80,-27.90,15.43
12290,0.99,3.34,-70.39,54.199,-762.207,712.891,2.85,-38.40,-29.10,15.33
12299,-7.34,2.11,-43.72,-226.074,-527.832,1368.652,3.15,-38.40,-30.30,15.23
12311,-8.12,3.53,-48.15,-195.312,-617.187,818.359,3.45,-37.35,-31.20,15.33
12321,-10.89,-0.65,-42.44,-341.797,-168.945,1001.953,2.40,-37.65,-30.75,15.43
12331,-2.42,0.47,-43.15,-112.793,-284.180,781.250,3.45,-37.35,-29.40,15.38
12341,4.02,-5.18,-37.08,70.801,-633.789,1174.316,2.25,-38.55,-30.90,15.33
12351,1.32,-2.92,-45.40,-20.508,-436.035,902.832,2.10,-37.95,-29.55,15.23
12361,2.74,-4.28,-44.80,47.852,-678.711,1204.102,2.10,-37.95,-29.55,15.52
12371,-6.21,-0.66,-45.60,-24.902,-364.746,449.707,1.65,-36.45,-29.85,15.43
12383,-55.77,-2.93,-250.14,-52.246,-839.355,879.395,3.15,-38.40,-28.35,15.38
12393,3.49,-0.87,-18.24,-58.594,-281.738,1436.035,3.15,-38.40,-28.35,15.38
12403,9.74,-2.42,-45.03,-113.770,-408.203,890.137,2.25,-37.80,-28.95,15.38
12413,6.71,6.75,-39.63,-17.578,-328.125,716.309,1.65,-38.40,-29.85,15.04
12423,7.72,-1.30,-42.51,-62.988,-409.180,777.344,0.90,-37.95,-28.35,15.38
12433,4.90,0.63,-37.18,-161.621,-453.125,499.512,0.15,-38.40,-28.80,15.38
12445,-4.34,-6.63,-41.94,-1.953,-446.777,1418.457,0.15,-38.40,-28.80,15.23
12455,5.35,0.47,-39.96,394.531,-616.211,1297.363,-1.05,-39.30,-28.95,15.38
12465,3.25,-0.34,-41.51,-201.172,-434.082,1602.051,-1.05,-39.30,-28.95,15.52
12475,4.73,5.53,-42.01,-149.902,-632.324,102.539,-1.05,-39.30,-28.95,15.14
12485,1.15,-2.50,-40.94,-35.156,-693.848,249.512,0.15,-37.95,-28.80,15.43
12495,-0.84,-2.14,-47.70,-286.621,-743.164,678.223,0.15,-37.95,-28.80,15.14
12505,-0.52,-3.91,-44.75,-238.281,-376.465,595.703,-1.05,-38.25,-28.65,15.23
12517,7.27,1.65,-46.11,-28.809,-579.590,1566.406,-1.05,-38.25,-28.65,15.14
12527,2.15,-1.71,-37.64,-234.375,-434.570,926.758,-1.65,-38.40,-29.55,15.38
12537,-2.50,6.73,-50.72,-162.109,-621.582,846.680,-1.05,-38.55,-28.65,15.19
12547,-5.73,3.38,-45.11,-221.680,-541.992,681.152,-1.05,-38.55,-28.65,15.19
12557,-9.63,6.81,-38.66,-20.996,-538.574,840.332,-2.40,-37.65,-29.85,15.38
12567,-6.79,4.18,-46.20,-58.105,-502.441,1203.613,-2.25,-39.00,-29.40,15.14
12577,2.47,1.84,-44.92,-287.598,-62.500,986.816,-1.80,-37.80,-30.15,15.19
12589,13.76,10.52,-48.91,19.043,-265.625,759.277,-2.25,-38.25,-29.40,15.19
12599,5.60,4.01,-43.26,81.543,-930.664,859.863,-2.25,-38.25,-29.40,15.04
12609,-1.44,-3.92,-41.51,-29.297,-617.676,1111.816,-3.00,-38.55,-29.40,15.33
12619,13.18,6.05,-88.70,-137.695,-581.543,1263.672,-3.45,-37.80,-28.20,15.38
12629,-6.11,0.23,-51.19,-240.723,-261.719,968.262,-3.45,-37.80,-28.20,15.38
12639,-3.99,-3.18,-45.24,-121.094,-354.492,1200.684,-3.15,-37.20,-29.10,15.33
12649,4.60,0.18,-43.07,-30.762,-354.492,1057.129,-2.55,-38.25,-29.40,15.04
12661,5.85,-5.66,-44.17,-120.117,-407.227,1024.414,-3.60,-38.70,-28.80,15.14
12671,10.29,-11.71,-42.82,-218.262,-355.469,822.266,-5.25,-37.35,-29.70,15.23
12686,3.73,-4.34,-40.98,-43.945,-333.496,594.238,-5.25,-37.35,-29.70,15.43
12695,-4.44,0.63,-39.67,-302.734,-341.797,373.047,-4.20,-37.80,-28.95,15.38
12705,-4.05,2.66,-44.89,-284.180,-435.059,721.191,-3.60,-36.75,-28.35,15.33
12715,-3.41,0.48,-35.02,-214.844,-391.602,1594.238,-3.60,-36.75,-28.35,15.19
12727,-8.41,4.07,-36.38,-146.973,-396.484,820.801,-5.55,-37.20,-29.10,15.23
12737,-8.40,4.47,-45.31,-209.473,-257.812,1094.727,-4.50,-36.60,-29.40,15.23
12747,-5.68,4.89,-39.64,30.762,-271.484,1067.871,-5.10,-37.95,-29.10,14.90
12757,3.74,0.11,-40.14,-24.902,-223.145,454.590,-5.10,-37.95,-29.10,15.38
12767,6.44,1.45,-46.56,-382.324,-479.004,928.223,-4.35,-36.75,-28.05,15.38
12777,8.15,9.44,-43.95,-136.719,74.707,642.090,-5.25,-38.25,-30.15,15.57
12787,3.70,4.42,-50.34,-136.719,-170.410,1300.293,-5.25,-38.25,-30.15,15.23
12799,-2.60,10.21,-38.75,-163.086,-368.652,658.203,-4.95,-37.80,-28.95,15.23
12809,7.90,7.95,-39.02,229.004,-875.977,248.047,-5.70,-35.40,-28.65,15.19
12819,-2.10,7.73,-39.17,189.453,-162.109,1376.953,-5.85,-37.20,-28.35,15.38
12829,0.77,4.95,-42.75,-273.926,-436.035,1406.250,-5.85,-35.55,-28.80,15.14
12839,-5.21,7.08,-40.13,104.004,-391.602,475.098,-5.85,-35.55,-28.80,15.33
12849,-10.31,2.89,-46.66,-223.145,-81.543,1381.836,-7.05,-35.55,-29.10,15.38
12861,2.21,3.86,-38.14,-61.523,29.297,1033.203,-5.85,-36.75,-26.85,15.23
12871,7.36,-0.60,-42.39,-163.574,-636.719,1241.699,-5.85,-36.75,-26.85,15.38
12881,2.19,-2.79,-39.66,-98.633,-371.582,557.617,-6.90,-35.85,-28.65,15.43
12891,4.81,2.18,-40.20,-100.586,-841.797,681.152,-6.90,-38.25,-28.65,15.38
12901,-9.05,3.88,-48.38,-267.090,-512.207,994.629,-6.30,-36.75,-27.60,15.04
12911,-1.60,1.79,-43.85,-212.402,-479.492,769.531,-8.40,-36.15,-28.20,15.14
12921,-2.47,1.58,-39.52,3.906,-180.176,1024.902,-8.40,-36.15,-28.20,15.14
12933,3.83,1.97,-41.85,278.320,-439.453,1282.715,-7.35,-37.20,-28.35,15.38
12943,2.03,5.36,-39.47,162.109,-362.305,1190.918,-7.95,-36.60,-28.65,15.38
12953,-4.67,6.25,-40.35,24.902,-569.336,482.422,-7.95,-36.60,-28.65,15.38
12963,-3.21,2.46,-40.44,101.074,-185.059,1165.527,-7.65,-37.05,-27.90,15.23
12973,-2.64,3.35,-40.61,-276.855,304.687,1270.996,-8.25,-36.00,-27.60,15.38
12983,12.53,4.02,-39.09,-318.848,99.121,1247.559,-8.55,-36.00,-27.30,15.14
12993,12.43,5.58,-41.02,122.070,-557.617,1157.715,-7.95,-35.40,-27.90,15.23
13005,-6.66,1.03,-38.98,-73.730,-1038.086,78.125,-8.55,-36.75,-26.85,14.90
13015,-1.75,-6.88,-59.35,-35.645,-498.535,538.086,-8.40,-35.40,-28.20,15.33
13025,-7.58,-9.56,-39.47,-98.145,-290.039,1343.750,-8.40,-37.35,-28.20,15.43
13035,-5.56,-6.89,-37.08,-288.086,-209.473,929.199,-8.40,-37.35,-28.20,15.33
13045,-4.76,-4.14,-43.83,45.410,-319.824,1122.070,-7.80,-36.00,-27.60,15.19
13055,1.76,-8.14,-45.89,-87.891,-336.914,1100.586,-9.90,-35.85,-28.20,15.23
13067,-6.24,2.33,-44.68,-70.801,-299.805,938.965,-10.50,-35.25,-27.30,15.23
13077,7.34,-0.18,-41.65,-22.949,-737.305,956.543,-10.65,-33.45,-27.90,15.33
13087,10.63,-3.79,-44.05,-334.961,-532.715,1447.266,-10.05,-34.80,-27.60,15.14
13097,5.11,4.94,-45.74,110.840,-542.969,961.426,-10.50,-33.15,-27.60,15.23
13107,-1.74,2.03,-38.14,-168.457,-593.750,1161.133,-10.50,-33.15,-27.60,15.19
13117,-1.34,5.03,-42.15,-119.629,-416.504,1680.176,-10.50,-34.05,-28.05,15.38
13127,-2.78,7.23,-44.56,98.145,-425.781,1137.695,-10.50,-33.60,-28.05,15.52
13139,-4.66,5.34,-36.12,-69.824,-261.719,797.363,-10.50,-33.60,-28.05,15.14
13149,2.63,4.40,-42.66,37.598,-366.211,1129.395,-11.85,-33.45,-28.65,15.23
13159,-2.05,3.13,-38.14,142.578,-270.996,1465.820,-10.35,-34.95,-26.40,15.38
13169,1.32,1.14,-43.00,-92.285,-448.242,645.996,-10.35,-31.80,-27.90,15.23
13179,8.05,0.87,-38.13,411.133,-539.551,663.086,-10.95,-33.15,-27.60,15.38
13189,1.56,-0.92,-34.92,204.102,-495.117,1563.965,-10.95,-33.15,-27.60,15.38
13205,10.56,2.08,-42.25,-227.051,-389.648,998.047,-11.25,-32.85,-26.55,15.38
13214,9.83,-6.15,-40.73,151.367,-627.930,1133.301,-12.60,-33.00,-26.40,15.23
13224,1.69,-6.95,-39.01,47.363,-666.992,1212.402,-12.60,-33.00,-26.40,15.33
13234,-4.47,-5.79,-44.95,-206.543,-222.168,1282.715,-13.05,-33.45,-27.90,15.14
13244,-5.47,-2.77,-36.59,55.176,-265.137,852.539,-13.05,-31.35,-28.95,15.43
13254,2.28,-5.87,-36.31,48.340,166.016,1471.680,-13.50,-31.95,-26.55,15.23
13264,2.50,5.05,-36.43,-21.973,-389.160,437.988,-13.80,-31.80,-28.95,15.38
13276,-5.15,7.55,-40.47,-217.285,-125.488,1069.824,-13.80,-31.80,-28.95,15.38
13286,-6.71,5.50,-38.98,133.301,-347.656,954.102,-13.05,-31.35,-27.90,15.33
13296,-6.56,4.77,-38.57,-210.449,-316.406,375.977,-13.05,-31.35,-27.90,15.38
13306,4.63,3.89,-36.69,-135.254,-337.891,1162.598,-13.05,-31.35,-27.90,15.04
13316,4.84,4.07,-34.87,-303.223,-465.332,1215.820,-13.50,-31.65,-27.30,15.04
13326,-1.60,2.95,-26.99,-28.320,-853.516,1289.551,-13.50,-31.65,-27.30,15.23
13336,-13.49,-0.96,-41.46,123.535,-430.664,1368.652,-13.50,-30.45,-26.85,15.23
13348,-6.48,0.85,-36.38,186.035,-66.895,1099.609,-13.05,-31.35,-27.15,15.38
13358,4.92,-2.59,-34.78,36.133,-558.594,1043.457,-12.75,-30.75,-27.30,15.19
13368,1.63,2.53,-42.21,-16.602,-106.445,455.078,-14.10,-31.05,-27.45,15.23
13378,3.08,-3.89,-44.99,102.539,-178.711,722.168,-14.10,-31.05,-27.45,15.23
13388,-0.63,3.82,-37.30,51.270,-612.793,644.043,-13.80,-30.15,-25.65,15.04
13398,4.03,2.28,-40.43,16.113,-641.113,634.766,-13.50,-31.20,-27.30,15.38
13410,1.79,2.09,-36.21,-135.742,-221.191,1599.609,-12.75,-28.80,-26.85,15.23
13420,-1.63,8.72,-35.67,-339.844,-183.105,879.395,-13.20,-29.25,-26.85,15.33
13430,10.10,9.98,-39.11,31.738,-12.207,1015.625,-10.50,-28.80,-27.30,15.43
13440,13.11,7.32,-41.72,-34.668,-900.879,1375.977,-13.50,-30.75,-26.85,15.19
13450,4.39,10.43,-41.28,-135.742,-642.578,634.277,-12.75,-28.80,-27.30,15.38
13460,0.92,11.05,-33.73,267.090,-490.723,842.773,-12.75,-28.80,-27.30,15.57
13470,-8.11,12.15,-41.98,-5.371,-26.367,429.687,-14.10,-28.95,-27.45,15.14
13482,0.40,2.07,-34.43,209.961,-543.945,1167.969,-12.75,-28.35,-26.55,15.33
13492,-7.60,2.63,-42.77,-119.629,-976.074,1124.512,-13.20,-29.25,-26.55,15.14
13502,-6.62,-2.69,-38.18,-461.914,-324.219,1817.871,-13.50,-28.05,-27.30,15.38
13512,-3.64,9.16,-42.51,-311.523,110.352,424.805,-13.05,-31.05,-24.15,15.52
13522,8.50,7.30,-51.37,144.043,139.160,375.977,-12.60,-28.20,-27.45,15.14
13532,18.05,2.64,-35.82,1177.734,-1010.254,1250.977,-12.75,-27.60,-25.80,15.38
13542,8.50,6.57,-31.08,108.887,-1924.805,1114.258,-12.75,-27.60,-25.80,15.52
13554,-10.62,9.40,-13.73,-63.965,173.828,-191.895,-12.60,-28.20,-26.40,15.19
13564,-3.65,-4.08,-49.64,421.875,-86.914,1999.939,-13.20,-28.05,-26.10,15.14
13574,1.21,-8.65,6.06,957.031,-264.648,487.793,-13.20,-28.05,-26.10,15.14
13584,-6.99,-2.96,-46.41,301.758,299.805,1999.939,-13.50,-28.35,-25.35,15.33
13594,12.31,-2.31,-34.27,511.719,-251.465,1700.195,-13.20,-27.60,-26.55,15.43
13604,4.65,-9.37,-30.06,-146.484,-151.855,934.570,-13.05,-27.75,-24.90,15.38
13616,11.96,-12.96,-36.44,-273.437,-1258.789,1625.000,-13.95,-28.80,-25.05,15.38
13626,3.58,-16.22,-43.77,236.328,-1798.340,1857.422,-13.95,-28.80,-25.05,15.38
13636,-4.27,-27.16,-37.56,-425.781,-606.934,1999.939,-13.95,-26.85,-23.55,15.38
13646,7.24,-22.25,-36.33,-93.262,-289.551,1812.012,-16.05,-27.00,-24.15,15.38
13656,3.17,-21.02,-37.75,420.898,-543.945,1449.707,-16.05,-27.00,-24.15,15.19
13666,-6.38,-27.27,-44.33,-97.168,-472.656,942.383,-16.80,-27.00,-22.95,15.33
13676,-11.15,-23.92,-44.47,379.883,-781.250,643.066,-16.05,-25.05,-24.15,15.52
13688,-12.68,-19.35,-19.35,99.609,-22.949,966.309,-18.15,-25.95,-24.60,15.38
13698,-5.03,-20.98,-58.89,98.633,238.281,1011.230,-18.15,-25.95,-24.60,15.52
13708,-11.53,-13.41,-43.34,368.652,-62.012,670.410,-17.40,-25.95,-23.85,15.38
13723,-10.36,-8.02,-39.24,255.859,246.094,416.992,-17.85,-24.90,-24.30,15.23
13732,-2.79,-14.56,-41.43,-355.469,-673.340,214.844,-17.85,-24.90,-24.30,15.23
13744,-4.55,-11.95,-37.01,-55.176,-156.250,209.961,-18.60,-25.65,-23.85,14.90
13754,-11.80,-11.92,-40.83,-381.348,-985.840,937.500,-16.20,-23.70,-23.10,15.38
13764,18.25,-10.09,-43.15,-64.453,-89.844,752.441,-17.85,-25.95,-22.05,15.23
13774,16.62,-6.59,-41.13,-724.609,-1358.887,1999.939,-17.85,-24.90,-23.85,15.52
13784,30.04,10.94,-33.34,-169.434,-41.504,1500.488,-17.85,-24.90,-23.85,15.43
13794,28.73,3.75,-36.45,148.926,-1125.488,642.578,-18.15,-24.45,-23.85,15.38
13804,14.56,7.50,-34.56,-22.949,-868.652,974.121,-17.85,-23.70,-22.80,15.23
13815,23.83,5.92,-28.10,-595.703,-581.055,1444.824,-17.85,-23.70,-22.80,15.23
13825,1.42,5.47,-5.37,24.902,-488.770,1492.188,-18.00,-25.05,-23.70,15.38
13835,6.98,11.82,-44.89,352.539,-1025.879,1066.895,-18.75,-24.60,-23.25,15.23
13845,13.47,14.72,-40.08,-303.223,-795.410,1601.074,-19.65,-24.45,-23.10,15.23
13855,-10.39,12.79,-42.47,13.672,-913.086,1680.664,-18.90,-24.00,-24.30,15.38
13865,-11.54,11.76,-46.18,-164.551,-748.535,915.039,-18.90,-24.00,-24.30,15.38
13877,-0.18,8.67,-72.60,-50.293,-670.898,1171.387,-18.45,-24.60,-23.70,15.38
13887,-6.56,5.48,-58.39,-442.871,-170.898,1349.609,-18.45,-24.60,-23.70,15.43
13897,6.40,-8.59,-48.31,429.199,-546.875,1852.539,-18.90,-22.05,-25.05,14.99
13907,6.51,-9.93,-55.08,-8.301,-484.375,402.832,-19.35,-24.90,-23.10,15.33
13917,-3.79,-20.40,-39.87,602.539,-968.750,996.582,-19.35,-24.90,-23.10,15.38
13927,-7.28,-17.97,-66.94,-317.871,-583.984,1241.211,-19.35,-24.45,-23.10,15.38
13937,-7.44,-21.52,-52.72,164.551,-589.355,1467.773,-19.35,-24.45,-23.10,15.04
13949,-24.36,-18.65,-49.91,-201.172,-295.410,696.777,-20.70,-23.10,-24.90,15.19
13959,-18.69,-17.56,-49.25,-161.133,-317.383,1741.211,-18.60,-24.45,-23.85,15.43
13969,3.56,-9.84,-51.64,-360.840,-367.676,28.320,-18.60,-24.45,-23.85,15.23
13979,-5.46,-4.80,-47.22,183.594,-476.074,256.836,-20.70,-24.30,-23.70,15.19
13989,-14.66,-4.69,-62.91,-405.273,-555.176,846.191,-19.95,-23.85,-24.15,15.23
13999,3.02,-3.72,-76.70,-290.039,-212.891,1181.152,-21.30,-24.45,-24.60,15.23
14011,5.26,-0.91,-63.30,-58.105,-336.426,1481.445,-20.25,-24.30,-22.95,15.23
14021,6.11,6.05,-44.47,33.203,-272.949,15.137,-20.70,-22.65,-24.15,15.19
14031,1.46,6.77,-44.40,-198.242,-669.434,1304.199,-21.60,-22.50,-24.60,15.38
14041,-0.37,8.73,-37.62,-172.363,-532.715,1089.844,-20.10,-23.70,-22.35,15.23
14051,13.99,-0.17,-44.11,21.484,-619.141,1999.939,-20.10,-23.70,-22.35,15.04
14061,-3.95,-0.65,-43.06,301.758,-714.355,1754.883,-22.05,-22.80,-22.80,15.23
14071,-1.98,-3.81,-55.71,406.250,-297.363,1625.488,-21.90,-22.65,-22.95,15.33
14083,-7.42,-3.98,-41.79,-88.867,-663.086,1685.547,-21.30,-21.60,-24.60,15.38
14093,7.66,-6.73,-48.25,-111.328,-589.355,804.199,-21.45,-24.30,-22.20,15.38
14103,8.45,-1.85,-50.89,229.004,-514.648,1168.457,-22.05,-22.05,-24.30,15.38
14113,18.09,-2.97,-43.60,-344.727,-310.547,1499.512,-20.55,-20.40,-22.80,15.38
14123,4.15,1.24,-48.49,-224.609,-824.707,1197.754,-20.85,-23.25,-22.05,15.52
14133,14.28,-0.40,-32.98,57.617,-709.961,821.777,-20.85,-23.25,-22.05,15.19
14145,12.79,4.99,-36.44,200.684,-258.789,376.465,-21.45,-21.00,-22.20,15.33
14155,10.96,6.98,-41.53,-123.535,-243.652,576.660,-23.70,-21.90,-22.95,15.14
14165,10.71,6.67,-42.13,-123.535,-369.629,1228.516,-22.35,-18.45,-22.35,15.38
14175,6.62,9.05,-41.68,314.941,-462.402,1999.939,-22.05,-22.80,-20.55,15.33
14185,8.40,2.58,-36.11,472.656,-594.238,1195.801,-22.65,-19.05,-24.15,15.38
14195,2.22,-1.15,-44.89,30.273,-686.523,947.266,-23.25,-20.40,-22.05,15.57
14205,-14.91,-2.82,-43.18,93.750,-634.277,963.867,-22.80,-22.80,-22.80,15.33
14217,3.47,-8.46,-47.05,-140.137,-949.707,1068.848,-22.80,-22.80,-22.80,15.38
14227,41.37,-34.11,13.24,416.016,-598.633,524.414,-22.95,-22.05,-22.35,15.43
14242,-7.37,-0.89,-44.19,-265.625,19.531,807.617,-22.95,-19.80,-23.70,15.33
14251,1.58,-11.82,-37.36,183.594,-272.461,1326.660,-22.65,-21.90,-22.95,15.38
14261,2.34,-11.93,-49.65,67.871,48.340,916.504,-22.95,-19.05,-25.20,15.14
14271,-2.28,-0.66,-45.88,-257.324,288.574,1426.270,-21.45,-18.60,-23.25,15.43
14281,9.02,-8.46,-47.95,158.203,-792.969,1563.477,-22.35,-21.30,-24.60,15.04
14293,-10.51,-2.81,-43.85,-18.066,-602.051,1092.773,-22.35,-21.30,-24.60,15.19
14303,-13.12,1.74,-43.27,-65.430,-208.008,279.785,-21.45,-19.50,-21.75,15.04
14313,-14.04,3.24,-37.65,496.582,-551.270,791.016,-22.95,-20.70,-24.15,15.19
14323,-23.80,-3.29,-94.27,-596.680,-1043.457,1502.930,-22.95,-20.70,-24.15,15.23
14333,-15.49,5.11,-56.21,98.633,-477.051,1000.488,-22.80,-21.60,-23.10,15.33
14343,0.02,7.46,-37.27,-604.004,-285.645,930.176,-23.25,-17.25,-23.55,15.52
14353,-0.08,1.76,-48.85,594.727,-353.027,1703.613,-21.30,-18.45,-22.05,15.38
14365,21.57,1.14,-51.25,453.125,-1111.328,1433.594,-21.90,-21.00,-21.45,15.23
14375,14.18,-3.50,-55.93,341.309,-791.016,679.199,-21.90,-21.00,-21.45,15.23
14385,11.43,-0.37,-51.73,-382.812,-116.211,1048.828,-21.60,-17.70,-21.60,15.04
14395,3.62,-7.85,-42.83,621.094,-1088.379,1523.438,-22.05,-19.20,-20.85,15.57
14405,5.03,-3.82,-51.50,-220.215,-684.570,1071.289,-22.05,-19.20,-20.85,15.38
14415,-12.21,-8.08,-43.07,-145.508,-629.395,1256.836,-23.40,-17.10,-22.20,15.52
14427,-17.91,4.42,-40.36,-138.672,-526.855,1092.285,-22.20,-19.05,-19.50,15.43
14437,-2.22,-0.05,-36.05,248.535,-474.121,1042.969,-24.30,-19.20,-22.35,15.38
14447,5.76,13.34,-39.40,-576.172,75.684,1159.180,-22.20,-16.20,-21.45,15.38
14457,10.12,9.42,-46.24,670.898,-409.180,1309.082,-22.20,-16.20,-21.45,15.52
14467,8.06,6.93,-32.91,154.785,-631.836,1502.930,-24.30,-16.50,-21.60,15.14
14477,-2.36,4.15,-37.70,152.344,-653.809,709.473,-22.95,-15.90,-20.25,15.38
14487,-2.31,-1.73,-65.15,232.910,-1074.707,338.867,-22.95,-15.90,-20.25,15.38
14499,2.57,-1.61,-35.10,717.773,-724.121,1769.531,-22.65,-14.70,-19.50,15.23
14509,-2.69,-2.95,-43.84,-42.969,-760.254,1290.527,-24.60,-17.10,-21.45,15.43
14519,-10.17,-6.51,-39.80,766.602,-880.371,1654.297,-25.05,-13.20,-22.05,15.38
14529,0.75,-3.69,-44.00,-451.660,-141.602,517.090,-25.05,-13.20,-22.05,15.19
14539,-7.17,-7.11,-48.29,465.332,-756.836,1145.996,-24.75,-16.80,-23.10,15.38
14549,3.22,-7.30,-52.89,-368.652,-301.270,1134.277,-23.55,-14.85,-23.55,15.14
14561,9.61,-3.07,-46.81,54.199,-595.703,679.199,-23.55,-14.85,-23.55,15.19
14571,-0.92,-5.03,-30.19,-271.484,-362.793,1580.078,-24.15,-16.65,-22.95,15.14
14581,11.88,-8.19,-38.46,229.492,-766.113,771.484,-22.35,-14.10,-23.10,15.38
14591,-7.73,4.68,-43.37,-323.242,-488.281,801.270,-21.90,-16.20,-22.20,15.52
14601,-3.23,-11.55,-41.65,306.152,-348.145,720.215,-24.00,-15.60,-23.55,15.52
14611,-15.79,-5.76,-45.95,-139.160,-187.012,1999.939,-24.00,-15.60,-23.55,15.67
14621,-0.09,-6.69,-36.42,265.137,-225.098,1121.094,-21.60,-14.40,-22.35,15.23
14633,0.17,-7.17,-46.76,452.637,-311.523,1228.027,-23.55,-14.40,-23.55,15.52
14643,5.11,-4.72,-48.63,-4.883,-452.148,1224.121,-23.55,-14.40,-23.55,15.23
14653,4.35,-0.22,-54.44,-76.172,-91.309,647.949,-24.00,-15.60,-20.85,15.14
14663,10.97,-9.47,-41.59,330.566,12.695,985.840,-22.65,-16.65,-22.20,15.33
14673,24.30,-13.41,-46.83,781.738,-451.660,1999.939,-24.30,-13.20,-22.05,15.38
14683,18.30,-12.77,-34.12,-355.469,-500.977,1543.945,-23.25,-12.15,-22.80,15.33
14693,5.13,-9.96,-41.13,345.215,-850.098,635.254,-23.25,-12.15,-22.80,15.38
14705,-17.42,-5.75,-35.11,1049.316,-385.742,1422.852,-25.05,-13.20,-24.30,15.52
14715,-12.99,0.34,-27.36,-155.273,-419.434,1408.203,-23.40,-10.65,-21.75,15.33
14725,-7.93,1.90,-39.24,221.680,-911.133,854.004,-23.40,-10.65,-21.75,15.38
14735,-11.98,14.15,-29.71,-1134.766,-333.008,887.207,-22.65,-12.75,-22.50,15.14
14745,3.92,2.56,-28.31,685.547,-527.344,1683.105,-23.70,-11.55,-21.45,15.33
14761,17.44,0.47,-38.70,1201.172,-630.859,1597.168,-24.75,-13.20,-22.80,15.38
14771,4.45,12.73,-41.20,-454.102,-373.047,1162.109,-23.55,-10.95,-22.80,15.38
14781,-6.73,-0.51,-41.78,216.797,-818.848,1136.719,-22.80,-14.10,-21.60,15.43
14791,-12.73,2.97,-44.81,55.176,-167.480,1059.082,-23.25,-11.70,-23.10,15.23
14801,-12.20,-2.26,-36.50,251.465,-373.535,1151.855,-23.25,-11.70,-23.10,14.99
14811,-11.36,1.45,-43.36,36.133,-401.855,153.320,-22.95,-12.30,-21.45,15.33
14821,-1.56,-0.19,-50.59,160.645,291.504,-233.887,-23.55,-12.45,-22.80,15.43
14834,23.48,-5.27,-34.51,536.621,-240.723,977.051,-22.35,-9.30,-23.55,15.19
14844,21.47,2.18,-39.54,-610.840,-429.687,1317.871,-21.45,-11.10,-22.95,15.33
14854,11.31,-6.03,-32.66,943.848,-832.031,1141.113,-22.65,-12.75,-22.95,15.52
14864,6.37,2.11,-41.82,220.703,-499.023,764.160,-24.00,-10.05,-24.30,15.43
14874,-15.13,-7.41,-35.63,-161.133,-688.477,553.711,-22.20,-9.15,-22.50,15.52
14884,-5.83,-13.42,-33.07,574.707,-854.004,1247.559,-22.20,-9.15,-22.50,15.38
14894,-10.47,-5.28,-38.67,-329.102,467.773,963.867,-23.25,-11.70,-24.60,15.14
14906,-6.72,2.96,-40.19,79.590,32.715,1016.602,-21.60,-9.30,-22.05,15.33
14916,12.96,1.82,-37.28,-281.250,-166.016,465.332,-23.40,-13.05,-23.25,15.33
14926,5.98,-4.53,-22.78,357.422,-848.633,1080.566,-24.00,-11.70,-23.55,15.33
14936,5.66,4.93,-32.28,-745.117,157.227,1471.680,-23.40,-9.45,-23.70,15.23
14946,9.80,-2.84,-43.99,353.027,-804.199,1275.879,-22.05,-10.95,-22.35,15.52
14956,6.23,-2.34,-27.87,6.348,-717.773,1662.598,-22.95,-12.30,-24.15,15.38
14968,-0.82,-2.50,-31.60,936.035,-592.285,1958.984,-22.95,-12.30,-24.15,15.33
14978,0.45,-0.18,-36.56,-410.645,-570.312,801.758,-22.65,-10.65,-23.25,15.38
14988,-4.05,-8.46,-41.93,384.277,-496.582,867.676,-22.65,-10.65,-23.25,15.43
14998,2.31,-8.38,-39.95,428.711,-476.562,1104.980,-22.65,-10.65,-23.25,15.14
15008,-6.63,-1.58,-35.77,-515.137,-147.949,916.504,-20.25,-9.15,-24.90,15.38
15018,15.97,-9.99,-37.69,248.047,-302.246,500.977,-20.25,-9.15,-24.90,15.67
15028,10.07,1.11,-41.56,282.715,-531.250,519.043,-21.90,-9.45,-24.90,15.33
15040,20.03,-4.74,-27.74,707.520,-1131.348,749.512,-20.25,-8.70,-24.45,15.38
15050,-14.76,0.24,-36.95,-251.465,-63.477,1002.930,-20.55,-8.55,-23.10,15.33
15060,-12.73,-2.60,-42.45,-114.258,-123.047,739.258,-22.35,-8.85,-24.30,15.38
15070,-9.02,-0.15,-28.12,86.914,-1044.922,423.340,-22.35,-8.85,-24.30,15.33
15080,-29.07,-0.92,-35.04,-139.160,-351.074,720.215,-20.10,-8.10,-21.60,14.90
15090,-15.31,1.34,-36.11,-542.969,229.492,1988.770,-21.00,-8.70,-23.25,15.33
15102,-3.49,-1.65,-41.34,232.422,-212.891,1205.566,-20.25,-7.50,-22.95,15.23
15112,11.43,-7.79,-35.01,-32.227,-86.914,1793.945,-20.70,-6.75,-23.25,15.57
15122,12.56,-3.66,-35.78,322.754,-839.355,707.031,-20.70,-6.75,-23.25,15.23
15132,1.76,-6.06,-39.75,249.023,-374.023,1350.586,-20.70,-8.25,-24.45,15.38
15142,0.11,0.96,-46.87,-273.926,-140.625,1287.109,-20.85,-6.45,-22.80,15.57
15152,-4.44,2.70,-41.96,-172.852,-62.988,583.984,-20.85,-6.45,-22.80,15.04
15162,8.08,4.39,-33.62,749.023,-728.027,1126.465,-21.30,-8.10,-23.10,15.04
15174,-9.89,3.87,-41.94,-75.684,-312.988,492.676,-21.45,-5.85,-22.95,15.14
15184,6.00,18.88,-40.56,-475.586,-565.918,595.703,-20.85,-5.25,-23.85,15.04
15194,-5.08,20.24,-41.62,-590.332,-409.180,755.371,-20.55,-7.65,-24.30,15.38
15204,0.49,12.74,-51.12,-431.152,113.281,474.609,-20.55,-7.65,-24.30,15.33
15214,-3.58,3.01,-45.41,390.625,374.512,1127.441,-20.10,-5.70,-24.30,15.38
15224,-12.44,-9.79,-38.45,77.637,450.684,783.203,-19.35,-4.50,-23.85,15.33
15234,2.26,-1.14,-52.31,225.098,590.332,1596.680,-19.35,-4.50,-23.85,15.38
15246,-17.64,-6.26,-49.05,541.992,-681.641,304.687,-19.50,-6.30,-24.90,15.38
15256,-19.26,-9.67,-48.18,-133.301,-554.687,1751.953,-18.00,-5.10,-25.65,15.33
15266,-12.61,-3.21,-47.02,-481.445,348.633,-47.363,-18.90,-5.25,-25.35,15.14
15288,-15.92,3.42,-37.82,-888.672,-914.551,751.953,-17.40,-4.05,-23.55,15.43
15297,-1.54,-2.94,-35.68,280.762,-798.340,903.320,-17.10,-5.70,-24.60,15.57
15307,3.73,-2.71,-38.95,328.613,-1168.457,891.602,-18.45,-3.45,-25.65,15.52
15317,-23.24,3.41,-45.32,-712.891,-1196.289,449.707,-18.45,-3.45,-25.65,15.33
15329,22.84,2.16,-36.71,-97.656,-1093.750,1234.375,-18.60,-3.75,-24.30,15.67
15339,10.35,-2.70,-44.87,106.934,-1232.910,1663.574,-16.50,-2.70,-23.25,15.23
15349,-5.96,-3.10,-41.83,-509.277,175.293,521.973,-16.20,-3.30,-23.10,15.14
15359,8.50,1.07,-34.56,-268.066,-43.457,348.145,-16.20,-3.30,-23.10,15.43
15369,-16.65,-3.13,-47.48,-135.742,554.687,964.355,-16.80,-4.65,-21.75,15.23
15379,10.80,2.11,-36.02,-453.613,727.539,247.070,-17.40,-2.85,-21.30,15.52
15391,12.26,0.27,-24.01,-74.219,-1342.285,214.355,-17.40,-2.85,-21.30,15.38
15401,-4.39,2.72,-41.86,-587.402,-780.762,520.996,-17.40,-6.15,-21.30,15.38
15411,-14.37,2.23,-44.55,-448.730,-132.812,1318.848,-18.60,-4.95,-23.10,15.52
15421,2.34,0.09,-43.85,-461.914,186.035,956.543,-18.15,-2.85,-22.80,15.23
15431,5.87,-1.75,-40.92,-230.957,386.230,1643.555,-15.90,-4.50,-22.05,15.38
15441,11.95,-7.00,-34.79,-167.969,364.746,1751.953,-17.10,-4.50,-23.55,15.38
15451,39.25,-7.04,-29.60,597.168,-1082.520,891.113,-15.75,-5.10,-22.95,15.23
15462,8.03,-7.59,-54.50,258.789,47.363,1301.270,-17.55,-3.90,-24.15,15.52
15472,15.30,-6.88,-32.48,707.031,-655.273,1999.939,-17.55,-3.90,-24.15,15.38
15482,13.39,0.66,-40.25,-231.934,-692.871,1170.410,-16.05,-3.15,-23.70,15.14
15492,-4.72,2.37,-36.09,-486.328,-160.645,1528.809,-16.65,-4.05,-25.35,15.33
15502,-1.37,3.18,-41.21,-291.504,278.320,627.930,-18.45,-1.95,-23.70,15.14
15512,9.60,0.24,-37.26,291.016,-980.957,1435.547,-15.15,-1.35,-24.30,15.23
15522,-1.89,3.18,-41.20,724.121,-1280.762,745.117,-16.50,-1.50,-23.25,15.23
15534,-20.69,-2.59,-37.11,-521.484,3.418,325.195,-16.20,-2.85,-24.30,15.33
15544,-8.40,-6.75,-35.68,321.289,302.734,1368.652,-15.15,-0.45,-23.85,15.38
15554,17.31,-10.21,-33.77,69.824,-78.613,685.547,-15.15,-0.45,-23.85,15.43
15564,13.23,-5.00,-17.84,309.082,172.363,963.379,-16.20,-0.15,-24.30,15.43
15574,15.47,-3.20,-42.41,704.590,137.207,460.937,-13.80,-1.50,-22.50,15.38
15584,1.27,-6.19,-36.62,198.242,416.992,1999.939,-15.45,-2.55,-22.05,15.23
15596,-1.38,-5.91,-30.49,277.344,-1550.781,1135.742,-16.05,-1.95,-23.25,15.43
15606,-19.82,-10.17,-68.95,0.977,-1349.609,785.645,-16.05,0.30,-23.25,15.14
15616,-18.19,-0.21,-18.11,64.941,-612.305,380.371,-15.45,-0.15,-23.10,15.23
15626,-27.42,5.44,-33.08,-438.965,189.941,264.160,-15.15,-1.35,-24.30,15.14
15636,-23.21,0.31,-40.01,-336.914,297.852,1504.395,-15.15,-1.35,-24.30,15.52
15646,1.73,-0.49,-53.21,232.422,-227.051,1730.469,-13.95,0.15,-24.30,15.38
15656,9.60,-2.46,-25.47,-81.055,430.176,1619.141,-15.15,0.15,-25.80,15.67
15668,8.59,11.34,-34.25,-318.848,-385.742,475.098,-15.15,0.15,-25.80,15.38
15678,-0.88,7.37,-30.96,-73.242,-363.281,1322.266,-13.80,-1.05,-25.95,15.52
15688,0.41,2.95,-31.47,461.914,410.645,160.645,-13.50,-0.45,-25.80,15.14
15698,-4.09,-5.36,-38.73,-227.539,-513.184,1594.238,-12.75,-0.15,-25.05,15.19
15708,10.58,6.26,-39.46,232.910,-1017.578,435.059,-13.20,-0.45,-24.60,15.38
15718,-1.24,4.02,-42.73,88.379,-855.957,1251.465,-13.20,-0.45,-24.60,15.23
15728,7.82,0.13,-38.56,-435.547,-1072.754,1064.453,-12.45,-0.45,-23.85,15.19
15740,18.47,0.88,-17.69,-165.039,-1134.766,1868.164,-13.20,-0.15,-23.85,15.38
15750,8.17,3.56,-49.21,-78.125,-401.855,1323.242,-13.35,0.00,-22.50,15.23
15760,12.49,-7.74,-45.05,-481.934,-330.566,917.969,-13.80,-0.75,-24.90,15.38
15770,18.66,-5.50,-37.89,643.555,-1281.250,1167.969,-13.05,0.00,-24.15,15.14
15780,16.31,-10.46,-40.42,422.363,-907.227,1626.465,-13.20,1.65,-23.55,15.43
15790,8.24,-4.44,-52.66,-190.430,-1161.621,1204.590,-13.20,1.65,-23.55,15.23
15808,19.27,-1.61,-43.31,-183.105,-1262.207,165.527,-11.85,1.95,-25.65,15.43
15817,9.99,4.86,-51.08,-182.617,-1582.031,966.797,-11.40,1.05,-27.15,15.67
15827,-8.33,2.86,-53.37,-663.086,-1875.000,156.250,-11.40,1.05,-27.15,15.23
15837,-24.64,-0.48,-43.71,-169.434,-1372.070,30.762,-11.85,2.70,-24.45,15.33
15847,-17.33,-3.50,-52.13,-727.051,-632.812,1999.939,-12.30,1.05,-24.90,15.14
15857,-10.19,7.45,-37.18,556.152,-895.020,1999.939,-11.70,2.10,-24.60,15.43
15867,6.15,-3.31,-45.98,-541.016,-429.199,1010.742,-12.60,0.75,-24.90,15.38
15879,3.62,-0.50,-38.51,-130.859,-525.391,1881.836,-12.60,0.75,-24.90,15.38
15889,9.36,-4.22,-46.24,-262.207,-639.648,1221.191,-11.25,1.35,-26.85,15.38
15899,8.40,-2.64,-50.10,-58.105,-902.344,916.992,-11.25,2.10,-26.55,15.38
15909,5.27,-7.74,-42.44,-207.031,-928.223,1066.406,-11.25,2.10,-26.55,15.38
15919,-5.25,-2.82,-48.73,-356.934,-739.258,783.691,-10.95,3.30,-25.35,15.52
15929,-1.75,0.02,-48.72,-60.547,-228.516,597.656,-11.10,0.75,-25.20,15.04
15939,-5.18,3.60,-50.63,-395.508,-872.559,-111.816,-10.05,2.55,-24.60,15.38
15951,-3.60,4.51,-45.31,-274.902,-695.801,1326.660,-10.05,2.55,-25.05,15.33
15961,0.55,1.70,-50.94,-205.078,-249.512,753.906,-9.75,2.10,-25.80,15.52
15971,18.89,2.68,2.91,-27.832,-1263.184,1165.039,-10.35,3.45,-25.20,15.19
15981,-3.35,1.79,-37.76,-444.824,-70.801,1649.414,-10.35,3.45,-25.20,15.57
15991,3.76,5.60,-51.60,-87.891,-1017.090,1180.664,-9.90,2.70,-25.20,15.52
16001,-2.92,4.35,-49.70,-42.480,-568.848,1232.910,-9.90,3.45,-26.70,15.23
16011,-8.44,3.08,-43.78,-477.051,-727.051,900.391,-8.70,3.45,-25.65,14.80
16022,-11.79,7.91,-43.48,-74.707,-842.773,1085.449,-10.05,3.75,-25.80,15.33
16032,-9.74,3.85,-52.82,-239.258,-354.004,797.852,-9.60,3.45,-26.70,15.33
16042,0.57,-1.21,-51.48,220.215,-1005.859,1598.633,-8.25,4.05,-26.55,15.38
16052,2.45,6.52,-52.21,-168.945,-488.770,1134.766,-7.65,3.45,-25.65,15.38
16062,2.12,0.61,-51.06,-397.949,-691.895,854.492,-7.65,3.45,-25.65,15.43
16072,4.10,-3.57,-49.39,-136.719,-726.562,681.641,-7.65,3.90,-25.65,15.14
16084,17.37,-0.58,-53.60,-395.996,-942.871,323.730,-7.65,5.55,-24.90,15.38
16094,9.77,-3.68,-55.67,124.023,-908.691,130.859,-7.20,2.70,-25.95,15.52
16104,-0.51,-6.24,-46.39,41.992,-1033.203,1858.887,-8.25,4.50,-25.80,15.04
16114,7.86,-3.86,-50.75,-737.305,-974.609,35.156,-7.80,3.75,-26.55,15.52
16124,-14.23,-7.23,-49.17,-676.270,-83.984,1999.939,-7.35,4.50,-25.35,15.57
16134,15.15,3.02,-43.11,-406.250,-317.871,1041.016,-7.20,3.15,-27.15,15.14
16144,19.98,2.53,-14.52,169.434,-1575.684,449.707,-7.20,3.15,-27.15,15.33
16156,-3.94,2.28,-38.38,-213.379,-475.098,1188.477,-6.15,3.45,-26.40,15.57
16166,-4.23,0.24,-42.22,26.367,-1055.664,456.543,-6.45,4.65,-26.40,15.33
16176,-5.89,0.46,-46.66,-226.562,-962.891,1473.633,-6.45,4.65,-26.40,15.14
16186,-1.09,1.85,-42.40,-352.539,-519.043,912.109,-8.25,3.30,-25.05,15.04
16196,-13.02,-3.85,-54.09,-104.980,-830.566,848.633,-7.35,3.75,-26.55,15.33
16206,0.47,4.19,-46.18,-324.219,45.410,1729.492,-6.45,4.35,-26.70,15.33
16215,15.49,0.08,-46.14,-180.664,-969.727,1130.371,-6.30,3.75,-26.10,15.38
16227,-0.36,7.24,-41.59,-436.035,-516.602,498.535,-6.30,3.75,-26.10,15.38
16237,-6.45,8.85,-47.76,-352.051,-367.187,1633.301,-5.85,4.05,-27.60,15.43
16247,8.79,11.17,-40.79,184.570,-642.578,1026.367,-5.10,6.45,-27.60,15.04
16257,9.04,7.08,-39.73,-362.305,-618.164,979.980,-5.10,6.45,-27.60,15.43
16267,-0.69,2.04,-55.81,-360.840,-604.004,1371.582,-4.50,3.45,-28.20,15.38
16277,1.60,5.38,-49.73,209.473,-453.613,943.359,-3.45,4.65,-27.15,15.38
16286,-0.10,-3.25,-43.64,-8.789,-850.098,1336.914,-3.90,5.25,-27.60,15.38
16298,-11.83,-4.25,-45.74,-129.883,-737.793,1543.457,-2.85,5.70,-28.05,15.43
16308,-11.18,-4.26,-51.50,-493.164,-297.363,646.973,-2.85,5.70,-28.05,15.19
16322,6.86,-7.90,-40.56,84.961,-543.945,717.773,-3.75,5.55,-26.70,15.38
16332,8.11,-12.18,-38.76,-126.953,-750.977,1728.516,-3.75,5.55,-26.70,15.38
16342,-5.37,-7.15,-47.58,-292.480,-335.937,833.984,-2.85,5.70,-27.30,15.38
16352,-5.30,-3.88,-54.66,-165.527,-484.863,917.480,-3.00,5.55,-29.40,15.23
16364,-3.63,-2.65,-49.40,-207.520,-525.391,693.848,-2.85,6.90,-29.85,15.43
16374,-3.65,-1.59,-38.73,91.309,-780.762,1131.836,-1.50,5.55,-29.70,15.38
16384,-1.34,-9.00,-39.98,-242.187,-661.133,1999.939,-1.50,5.55,-29.70,15.19
16394,-6.75,-1.02,-41.55,-494.629,-591.797,-17.578,0.15,4.95,-26.85,15.38
16404,0.93,-3.52,-40.98,-261.719,-726.074,492.187,0.30,4.35,-27.15,15.23
16414,1.89,1.99,-40.95,-82.031,-903.320,1591.797,0.30,4.35,-27.15,15.43
16423,5.40,0.80,-40.93,-227.051,-459.961,908.203,-0.30,5.85,-27.15,15.38
16435,14.82,0.23,-43.89,-235.352,-772.949,903.809,-0.90,4.50,-26.85,15.38
16445,2.64,4.25,-43.39,-4.395,-304.687,1472.656,-0.90,6.15,-26.55,15.33
16455,5.60,-1.50,-37.08,3.418,-968.262,644.043,-0.30,4.65,-26.70,15.04
16465,0.79,-4.07,-42.33,6.348,-809.082,1352.539,-0.30,4.65,-26.70,15.33
16475,-0.09,2.13,-47.65,-197.754,-343.262,995.117,-0.15,5.70,-26.55,15.52
16485,4.85,2.53,-42.82,-657.715,-9.277,688.965,0.75,5.55,-26.70,15.43
16494,9.84,0.08,-41.40,-305.664,-901.367,197.754,0.75,5.55,-26.70,15.33
16505,12.54,10.11,-43.37,-214.844,-622.070,1720.215,0.45,5.70,-25.80,15.19
16515,0.07,11.77,-44.09,-107.910,-729.980,1027.344,-0.30,5.55,-25.65,15.23
16525,-19.64,7.15,-43.59,-61.523,-656.738,757.324,-0.45,5.25,-26.55,15.43
16535,-21.86,3.21,-43.36,-142.578,-533.691,1999.939,-0.15,4.50,-26.10,15.57
16545,-35.26,5.98,-44.01,-134.277,-251.465,267.090,-0.15,4.50,-26.10,15.38
16555,-19.23,4.33,-37.35,-40.039,-833.984,1551.758,1.05,5.55,-25.65,15.38
16566,-26.11,0.25,-41.00,173.828,-79.590,1810.059,1.50,4.35,-26.40,15.38
16576,-24.32,6.40,-44.36,-108.887,261.719,1278.320,1.50,4.35,-26.40,15.43
16586,-9.33,5.29,-46.29,-110.352,-621.094,896.484,2.55,4.35,-26.70,15.14
16596,-11.02,0.73,-48.78,-381.836,-418.457,1999.939,2.55,4.65,-26.70,15.38
16606,-21.26,5.24,-46.64,-14.160,-242.676,1166.016,1.20,4.95,-25.35,15.52
16616,1.01,-10.76,-39.86,-577.637,-7.812,1134.766,2.10,3.75,-25.35,15.23
16626,15.34,-12.11,-45.73,-315.918,-306.641,150.391,3.45,3.15,-25.95,15.23
16638,28.57,-17.92,-39.26,-175.781,-843.262,1433.105,3.45,3.15,-25.65,15.38
16648,24.23,-21.66,-35.66,-486.328,-1147.461,702.148,2.85,3.30,-25.35,15.38
16658,20.14,-18.05,-40.52,-17.578,-1083.984,1408.691,2.85,3.30,-25.35,15.23
16668,-1.45,-16.76,-42.92,-150.879,-1004.883,326.172,2.25,4.65,-25.65,14.90
16678,-3.24,-24.63,-42.01,-333.008,-736.816,960.937,2.10,4.95,-26.10,15.23
16688,-11.73,-33.90,-54.26,-457.520,-771.973,522.461,3.15,3.75,-26.10,15.67
16698,-19.18,-26.40,-44.22,-61.523,366.211,1999.939,2.25,4.65,-25.95,15.33
16710,26.95,-27.98,-38.91,526.855,-272.461,500.977,1.50,3.90,-25.65,15.38
16720,-7.60,-20.48,-37.69,-198.242,-779.297,613.770,1.65,2.85,-26.10,15.33
16730,-31.08,-17.02,-34.15,-1057.129,64.453,940.430,2.10,5.70,-26.10,15.23
16740,-27.54,-27.34,-40.13,147.949,-1310.547,384.277,2.10,5.70,-26.10,15.14
16750,-21.28,-19.13,-33.69,-194.824,-545.410,1589.355,1.80,4.65,-26.70,15.23
16760,-25.47,-13.41,-42.66,-312.500,-978.516,1153.320,0.75,4.65,-27.45,15.52
16770,-26.02,-9.24,-34.63,-731.934,-617.676,1999.939,0.90,3.75,-27.60,15.38
16782,-7.44,0.20,-39.76,-552.246,-270.020,1796.875,2.10,4.50,-26.85,15.38
16792,14.13,14.81,-33.46,-798.340,-621.582,1565.430,3.00,4.65,-26.70,15.43
16801,20.72,26.00,-37.16,-15.137,-649.902,823.730,3.45,4.35,-27.90,15.52
16811,9.01,28.11,-31.45,-394.531,-938.965,-48.828,3.45,4.35,-27.90,15.04
16821,9.13,16.63,-58.75,119.629,-575.195,1939.941,1.20,4.05,-28.80,15.38
16835,-6.82,17.08,-39.28,-192.871,-501.465,1876.465,3.15,2.85,-28.05,15.38
16845,-5.95,9.47,-38.80,-110.352,-766.113,1274.902,3.45,4.65,-28.20,15.38
16857,0.91,14.69,-40.66,-144.043,-396.973,911.133,4.20,4.35,-30.15,15.23
16867,4.44,11.98,-50.78,-63.965,-770.996,927.246,4.35,3.75,-28.35,15.23
16877,4.62,6.60,-44.66,3.906,-1202.637,789.551,4.50,3.15,-29.70,15.23
16886,-5.18,-2.49,-49.27,-59.082,-435.059,1645.020,5.85,3.75,-28.35,15.19
16896,-0.85,3.23,-47.67,40.039,-245.605,65.430,5.85,3.75,-28.35,15.67
16906,7.83,10.26,13.73,133.789,-566.895,1115.234,5.55,4.50,-28.35,15.43
16915,7.93,-7.12,-66.63,43.945,-867.187,788.574,7.05,4.95,-28.80,15.23
16927,18.97,-11.52,-25.18,-219.727,-609.375,805.176,7.20,5.55,-28.20,15.38
16937,-13.50,0.37,-79.85,-308.105,-538.574,656.250,5.25,4.65,-29.70,15.19
16947,-8.60,5.53,-85.48,78.125,-551.270,1146.973,7.20,5.85,-30.15,15.38
16956,10.59,-0.22,-60.06,163.574,-754.883,805.664,7.20,3.45,-27.90,15.38
16966,-1.07,3.02,-49.92,-200.684,-324.707,1102.539,7.35,3.75,-29.10,15.23
16976,0.73,2.50,-51.56,-25.879,-845.215,701.172,7.35,3.75,-29.10,15.19
16985,3.13,-0.96,-53.44,-357.910,-1150.879,1143.555,8.55,3.75,-29.85,15.04
16997,-6.66,-0.90,-55.66,-192.871,-794.434,752.441,7.95,5.10,-28.65,15.19
17007,-5.66,-0.97,-51.99,-130.859,-1039.063,839.355,7.80,3.75,-29.85,15.43
17017,0.92,2.69,-53.67,-145.996,-843.262,1478.516,8.70,3.45,-28.20,15.67
17026,4.09,-0.26,-54.24,-473.145,-1060.547,1251.465,8.55,4.05,-29.55,15.14
17036,1.05,-5.11,-53.11,-130.371,-888.184,49.805,10.05,4.05,-29.55,15.04
17046,8.42,6.82,-52.60,-260.254,-973.145,715.820,9.60,3.45,-29.70,15.14
17055,7.67,7.03,-44.25,-129.883,-551.270,1084.473,9.60,3.45,-29.70,15.38
17069,2.31,-0.86,-51.79,-326.172,-1021.484,905.273,9.00,4.05,-29.10,15.14
17079,-1.64,-1.37,-50.27,26.367,-805.176,802.734,10.95,4.05,-28.05,14.90
17089,-7.85,-5.53,-52.74,-402.344,-591.797,1918.457,9.90,4.35,-28.20,15.67
17099,-1.47,4.94,-45.44,-74.219,-764.648,1499.023,10.35,4.65,-30.15,15.38
17109,-1.97,2.01,-45.58,-334.961,-812.500,1235.352,8.40,3.15,-29.70,15.43
17119,2.95,3.01,-44.89,-185.547,-655.762,1342.773,10.05,3.75,-29.85,15.23
17128,9.19,0.89,-40.80,-118.164,-640.625,850.586,11.10,1.95,-29.70,15.23
17139,6.82,2.56,-55.62,-325.195,-403.320,857.910,11.10,1.95,-29.70,15.43
17149,11.34,3.27,-54.82,109.375,-664.551,570.801,10.50,4.05,-30.75,15.33
17159,4.56,-1.91,-45.82,-80.078,-534.180,1378.906,11.10,3.45,-29.70,15.43
17169,6.09,-0.92,-39.89,-339.355,-689.453,999.023,11.10,3.45,-29.70,15.38
17179,0.37,2.53,-50.56,-244.141,-760.742,487.305,12.45,2.85,-29.10,15.23
17189,-3.58,-4.31,-51.27,-254.395,-216.797,1565.430,11.10,3.45,-30.15,15.23
17199,2.60,-2.71,-43.63,43.457,-642.578,1476.563,11.85,3.45,-28.20,15.23
17211,6.69,-5.68,-46.69,-266.113,-858.398,857.910,12.75,3.30,-28.05,15.04
17221,7.57,-10.12,-51.97,-21.484,-777.832,1034.180,12.75,3.30,-28.05,15.38
17231,-5.44,-11.08,-44.52,-438.965,-435.059,1485.840,13.80,2.70,-29.70,15.43
17241,5.56,-6.58,-53.48,-81.055,-373.047,954.590,13.80,2.70,-29.70,15.23
17251,-5.69,-6.92,-2.76,-291.992,-511.719,1474.609,13.80,2.70,-29.70,15.38
17261,4.06,-14.13,-52.95,133.301,-722.656,1408.203,13.50,1.65,-29.85,15.43
17273,1.27,-3.47,-64.65,-170.410,-41.016,778.320,13.20,2.85,-28.80,15.19
17283,-6.82,-8.79,-46.53,-85.938,-514.648,796.387,12.30,2.25,-28.95,15.43
17293,6.97,-1.24,-35.74,-184.082,-415.039,743.652,12.30,2.25,-28.95,15.23
17303,-0.99,1.92,-42.47,-189.453,-713.867,861.816,13.50,2.10,-29.10,15.38
17313,-10.08,1.63,-39.55,-205.078,-545.898,1441.406,13.80,2.25,-30.45,15.14
17323,0.80,7.91,-41.78,-289.551,-400.391,704.590,13.80,2.25,-30.45,15.38
17333,-1.60,5.41,-46.56,-160.645,-827.637,395.020,15.15,2.85,-30.30,15.52
17350,-0.23,-1.19,-44.41,-139.160,-450.195,1999.939,14.55,0.75,-28.95,15.38
17359,0.55,1.40,-47.71,-539.062,-681.641,906.250,14.55,0.30,-30.45,15.14
17369,6.01,3.69,-49.24,-19.043,-585.449,1167.480,15.90,1.65,-29.55,15.38
17378,3.29,-0.42,-48.84,-106.445,-666.504,1465.332,15.90,1.65,-29.55,15.43
17388,-1.90,3.80,-47.09,-166.016,-778.320,643.066,14.40,0.45,-29.85,15.38
17398,6.63,-0.18,-49.47,-73.730,-340.332,1851.074,15.45,2.10,-30.75,15.38
17408,15.73,-0.86,-49.18,-339.844,-1121.094,1453.613,15.45,2.10,-30.75,15.19
17420,0.33,-2.56,-46.49,-126.953,-305.664,1118.164,16.80,0.75,-30.90,15.23
17430,-4.81,-2.32,-54.99,-133.301,-1108.887,1843.750,15.30,-0.75,-29.40,15.38
17440,-1.07,-6.31,-35.47,-150.391,-519.531,1241.211,17.25,0.30,-30.45,15.38
17450,8.13,-2.26,-49.30,-510.742,13.672,1298.828,17.25,0.75,-30.45,15.38
17460,11.50,4.69,-38.69,-214.844,-562.500,1516.602,17.25,0.75,-30.45,15.23
17470,0.00,1.82,-49.89,-104.492,-1028.320,1981.445,17.10,1.35,-30.30,15.52
17479,-9.60,3.10,-47.18,-180.664,-856.934,1147.949,17.40,-0.45,-31.05,14.99
17491,-11.31,9.21,-43.05,-351.074,84.961,1347.656,17.40,-0.45,-31.05,15.23
17501,-0.63,3.58,-55.92,26.367,-505.371,514.648,16.20,-0.15,-29.55,15.38
17511,3.95,2.01,-47.17,-9.277,-708.008,655.273,17.25,-0.75,-30.15,15.38
17521,2.53,-0.15,-59.28,-304.199,-475.586,1211.426,17.85,-1.35,-31.05,15.19
17531,2.63,3.74,-48.36,-212.891,-272.949,677.246,17.40,-0.15,-30.30,15.23
17541,-2.04,3.09,-55.46,-162.598,-261.719,805.664,17.40,-0.15,-30.30,15.38
17551,1.66,3.72,-51.15,-151.367,-209.961,494.629,15.90,-0.15,-29.85,15.14
17563,-3.67,0.70,-60.08,-214.844,-424.316,776.367,18.45,-0.75,-30.90,15.23
17573,11.05,-0.24,-47.97,-147.461,-478.516,313.477,18.60,-0.90,-30.30,15.43
17583,-9.21,-0.06,-46.96,71.289,-509.766,895.020,19.20,-0.30,-30.90,15.04
17593,-0.22,-3.44,-46.52,-363.281,-480.469,1356.445,18.60,-2.10,-30.30,15.43
17603,5.44,-4.37,-45.60,-177.734,-581.055,1331.055,18.45,-0.75,-31.65,15.57
17613,3.44,2.16,-58.79,-304.687,-249.023,1231.445,18.45,-0.75,-31.65,15.23
17625,5.03,-1.05,-48.08,-144.043,-766.113,1085.938,19.20,-1.50,-30.45,15.38
17635,-0.95,5.54,-46.73,-504.395,-628.418,1311.523,20.70,-0.75,-31.95,15.38
17645,0.40,2.49,-43.13,-102.539,-1087.891,888.184,20.70,-0.75,-31.95,15.43
17655,-9.11,0.90,-46.08,-246.582,-1078.125,1118.164,19.95,-0.30,-31.65,15.33
17665,-13.51,8.89,-45.63,-318.848,-624.512,748.047,20.25,-0.30,-31.65,15.14
17675,-0.92,7.45,-50.15,-209.473,-591.309,1301.758,20.10,-1.35,-32.25,15.43
17685,-1.40,5.42,-45.42,-144.043,-113.770,1266.602,19.65,-1.35,-31.80,15.43
17696,-6.97,3.58,-46.47,-192.383,-402.832,1228.516,19.65,-1.35,-31.80,15.38
17706,-3.48,2.92,-49.79,214.355,-472.656,1183.594,21.00,-3.15,-30.45,15.67
17716,-2.77,3.79,-47.15,-215.820,-211.426,583.008,20.85,-3.30,-31.50,15.14
17726,0.49,-8.37,-53.69,-186.523,-585.449,1145.996,20.85,-3.30,-31.50,15.14
17736,5.48,-6.93,-50.95,-77.637,-500.977,1384.277,20.25,-2.70,-32.70,15.14
17746,-3.59,-5.34,-52.87,-34.668,-354.980,998.535,20.25,-3.15,-31.65,15.67
17756,-1.34,-7.12,-47.98,11.230,-315.918,808.105,20.55,-3.75,-31.50,15.19
