Time_ms,GyroX_degps,GyroY_degps,GyroZ_degps,AccelX_g,AccelY_g,AccelZ_g,MagX_uT,MagY_uT,MagZ_uT,Temp_C
1312,-2.15,1.76,-0.25,-16.113,39.551,1008.789,-19.95,-15.00,-34.20,14.71
1346,-1.34,-0.92,-3.92,-6.348,45.898,1020.996,-17.25,-14.70,-33.90,14.66
1355,0.15,-2.69,-0.29,-10.254,30.762,1016.113,-17.25,-14.70,-33.90,14.61
1365,0.25,-0.24,-2.81,-18.555,38.086,1015.137,-18.75,-15.45,-33.90,15.04
1375,0.63,-2.92,-1.43,-6.836,45.410,1011.719,-19.95,-15.45,-33.45,14.99
1385,-1.12,-0.08,-2.07,3.906,40.039,1016.602,-19.35,-14.85,-34.05,14.99
1395,-0.71,-1.50,-0.29,-8.301,43.457,1011.719,-19.65,-14.10,-33.30,15.04
1405,-1.51,-0.69,-1.63,-15.625,38.086,1019.043,-19.35,-15.60,-33.00,15.04
1418,-0.09,1.02,-3.24,4.883,48.828,1018.066,-19.20,-15.00,-33.45,15.04
1428,-0.93,0.41,-1.53,5.371,41.992,1011.230,-20.10,-16.05,-33.75,15.04
1438,-0.69,-0.36,0.53,4.883,40.039,1020.508,-20.10,-16.05,-33.75,14.99
1448,-1.02,-4.66,1.35,-2.441,37.598,1020.020,-19.20,-15.00,-33.15,14.71
1458,1.18,-1.07,-0.14,-2.441,31.738,1015.625,-19.35,-15.60,-33.30,14.90
1468,1.41,-0.21,0.46,-6.348,32.227,1025.879,-19.35,-15.60,-33.30,14.85
1478,0.87,-0.24,-3.81,-2.930,38.086,1007.812,-20.10,-16.05,-33.75,14.90
1490,1.62,1.37,-1.36,-7.812,44.434,1032.715,-19.35,-15.30,-31.80,14.85
1500,0.27,-1.96,-0.34,-8.301,46.875,1004.395,-19.95,-16.20,-33.90,15.04
1510,-0.60,-0.50,-2.85,-8.789,37.598,1012.207,-19.35,-14.85,-33.75,14.71
1520,0.45,0.84,-0.21,-4.883,37.109,1029.785,-19.35,-14.85,-33.75,15.04
1530,-0.79,1.90,-2.50,1.465,47.852,1005.859,-19.65,-15.60,-34.05,14.80
1540,-0.34,-2.01,0.84,-12.695,37.598,1012.207,-19.50,-15.90,-33.15,14.90
1550,1.80,-0.94,-2.24,-44.922,49.316,1025.391,-19.50,-15.90,-33.15,14.85
1562,2.10,-2.57,0.14,20.996,-2.930,997.559,-19.50,-15.00,-32.70,15.04
1572,0.24,-1.45,-1.83,-49.316,47.852,1070.313,-19.50,-15.00,-32.70,14.90
1582,-0.87,-1.20,-1.67,-23.926,36.133,1032.715,-20.25,-15.00,-33.45,14.85
1592,-0.37,-0.98,0.63,-35.156,51.270,1003.418,-20.55,-17.25,-33.75,14.99
1602,0.43,-0.69,1.69,-16.113,31.250,1007.324,-20.55,-17.25,-33.75,14.90
1612,-0.87,0.65,-0.89,-21.973,51.758,1017.090,-19.65,-15.30,-34.05,14.61
1622,-0.44,-0.18,-0.85,-10.742,33.691,1004.395,-18.60,-16.50,-33.30,14.99
1634,-0.05,-1.11,1.00,-19.043,18.066,1007.324,-18.15,-15.60,-33.30,14.71
1644,0.31,-1.50,-1.52,14.160,45.898,995.117,-20.10,-16.50,-32.55,14.80
1654,0.79,-0.16,1.02,2.441,47.852,1000.488,-19.35,-16.05,-33.75,14.99
1664,-0.26,0.96,-1.06,6.348,50.781,991.699,-19.95,-16.20,-33.15,15.04
1674,-0.85,1.21,-0.26,37.598,41.992,1004.395,-18.75,-15.90,-33.15,15.04
1684,-0.66,0.78,1.17,18.066,58.594,1002.441,-18.75,-17.10,-32.70,14.66
1693,-0.54,-1.08,-0.50,83.496,13.184,1009.277,-19.65,-17.70,-32.25,15.14
1705,0.05,-1.24,-2.65,95.215,29.785,1016.113,-19.65,-17.70,-32.25,14.85
1715,0.03,-1.03,0.89,5.859,36.133,1027.344,-18.15,-16.50,-31.50,14.90
1725,0.07,1.80,-0.81,80.078,52.246,1023.437,-18.15,-16.80,-33.30,15.19
1735,0.69,-0.34,-0.06,47.363,43.945,998.535,-19.35,-16.50,-32.55,15.14
1745,0.76,-0.57,-0.26,40.039,43.945,985.840,-18.75,-15.00,-32.70,14.99
1755,-0.44,-0.73,-1.53,64.453,53.223,1002.930,-16.50,-16.65,-31.95,14.90
1765,-0.11,-0.81,-0.18,23.926,37.598,1022.949,-17.55,-15.00,-32.40,15.14
1777,-2.31,-0.28,-2.41,47.363,23.437,1009.277,-18.00,-16.20,-31.65,14.99
1787,0.95,-1.50,-1.24,27.832,13.672,1030.762,-18.00,-16.20,-31.65,14.80
1797,-1.23,3.36,-0.36,94.238,38.086,1068.848,-18.45,-15.00,-32.40,15.23
1807,0.60,-2.18,-1.46,17.578,21.484,1009.766,-19.20,-15.90,-34.20,14.99
1817,0.37,-2.30,-1.13,45.898,45.410,1035.156,-19.20,-15.90,-34.20,15.14
1827,-0.87,-1.91,0.06,95.703,38.086,1021.484,-18.00,-16.20,-33.45,15.04
1837,0.67,1.51,-2.95,75.195,37.598,1014.648,-18.15,-16.05,-32.55,14.85
1860,1.18,1.78,-2.14,43.945,44.434,1023.437,-18.00,-14.70,-33.45,15.14
1870,1.85,-3.21,0.51,50.293,23.926,967.773,-18.00,-14.70,-33.45,14.99
1880,1.67,1.92,-3.09,29.785,30.762,998.535,-18.15,-16.80,-33.30,14.90
1889,-0.07,2.56,-1.06,20.508,50.293,1005.859,-18.60,-15.30,-34.50,15.14
1899,-0.64,1.72,-3.90,21.973,13.184,1035.156,-18.60,-15.30,-34.50,15.04
1909,-0.02,1.58,-3.89,115.723,76.172,1030.762,-19.50,-16.65,-33.45,15.04
1920,0.55,-2.64,-2.90,54.199,34.180,1015.137,-20.25,-17.40,-34.95,14.99
1930,0.27,1.44,-0.51,137.695,43.457,1088.867,-19.95,-16.20,-34.20,14.85
1940,0.59,-2.10,-0.23,110.352,66.895,985.352,-20.70,-16.65,-33.90,15.14
1950,-1.49,-1.15,0.31,47.363,6.836,1019.531,-20.70,-16.65,-33.90,15.04
1960,-0.04,-0.35,-4.00,74.219,56.641,994.629,-20.55,-17.25,-34.05,15.19
1970,-0.71,-0.11,-0.69,20.020,48.340,1060.059,-19.65,-16.80,-34.50,15.33
1980,1.10,0.27,-0.16,-23.926,20.996,1017.090,-19.65,-16.80,-34.50,15.14
1991,0.95,-1.72,-3.43,98.633,47.363,1040.527,-19.95,-15.00,-34.65,14.80
2001,-0.82,0.77,-4.31,50.293,72.754,913.086,-21.45,-15.00,-33.90,14.85
2011,0.21,-0.98,-2.83,82.520,31.250,1084.961,-20.85,-16.05,-34.80,15.19
2021,-0.53,0.73,0.05,109.863,68.848,996.094,-21.30,-16.05,-35.25,15.04
2030,-0.42,-0.55,-0.13,56.152,-46.387,1011.230,-22.35,-16.05,-35.25,15.14
2040,-1.30,-0.16,-2.23,31.738,18.555,1086.426,-20.85,-14.85,-35.25,14.80
2050,0.32,-0.26,1.15,101.074,-13.184,999.512,-21.00,-17.40,-35.40,14.71
2062,-0.60,-1.40,-0.81,91.309,30.762,995.605,-21.00,-17.40,-35.40,14.90
2072,-0.43,-1.73,0.44,99.609,8.789,1048.340,-21.60,-16.50,-34.80,14.90
2082,-0.25,-2.73,-2.73,71.289,45.898,977.051,-21.30,-16.50,-34.50,15.14
2092,-0.03,-0.18,-0.35,27.832,14.648,1069.824,-21.30,-16.50,-34.50,15.04
2102,0.08,0.92,0.35,55.664,25.879,995.117,-20.25,-16.20,-33.90,15.33
2112,-0.27,-2.66,-1.87,100.586,37.109,1030.762,-19.50,-15.00,-32.70,15.14
2122,1.66,0.58,-1.55,121.094,32.715,982.422,-18.75,-16.65,-33.15,14.71
2134,0.52,-2.42,-1.25,48.828,72.266,1009.766,-18.75,-15.45,-33.45,15.33
2144,-0.34,-0.37,-2.39,37.598,34.668,1025.879,-18.75,-17.10,-31.65,14.85
2154,-0.18,0.20,-3.88,73.730,59.570,999.023,-19.35,-16.50,-32.25,15.14
2164,0.86,-0.02,-0.26,108.887,68.848,1014.160,-19.35,-16.50,-32.25,14.80
2174,0.32,0.21,-2.40,129.395,77.637,1005.371,-17.55,-16.20,-31.20,15.14
2184,1.39,1.10,-0.81,18.555,37.109,981.445,-17.85,-17.25,-31.80,15.19
2193,0.34,2.10,-3.16,40.527,47.363,1042.969,-17.85,-17.25,-31.80,14.90
2205,0.81,1.04,-2.94,137.695,34.180,1082.031,-17.10,-15.30,-32.55,15.23
2215,0.05,0.13,-1.96,113.770,54.688,992.187,-17.10,-15.30,-32.55,14.99
2225,1.02,-1.19,-2.41,15.137,48.828,1046.387,-18.15,-14.40,-33.30,15.23
2235,-0.13,0.95,-4.44,57.129,52.246,1040.527,-19.65,-16.50,-34.05,15.14
2245,-1.66,-0.96,-2.57,161.621,11.230,1057.129,-19.65,-16.50,-34.05,15.23
2255,0.08,-1.43,-0.72,117.676,51.758,945.312,-19.20,-16.65,-34.20,15.19
2265,1.31,3.08,-1.27,-4.883,20.020,1042.480,-20.85,-15.60,-34.50,15.04
2277,0.80,-0.18,-2.85,156.250,17.090,933.594,-20.70,-15.00,-34.65,15.23
2287,-1.34,-0.70,-0.22,190.430,-13.672,985.352,-21.60,-14.40,-34.80,15.14
2297,-0.79,-0.86,-5.61,-16.113,63.965,989.258,-21.60,-14.40,-34.80,14.90
2307,-0.13,0.19,-0.02,92.773,-37.598,1098.633,-22.35,-16.80,-34.50,15.38
2317,-0.18,-0.49,-3.05,240.234,-15.625,1070.801,-21.60,-18.45,-34.50,15.04
2327,-1.44,-2.92,-4.19,-44.434,57.129,1009.277,-21.60,-18.45,-34.50,15.19
2337,1.15,-1.55,-2.31,-22.461,-1.465,1094.727,-19.65,-15.60,-32.25,15.14
2349,-1.64,0.36,-3.62,233.398,99.609,1098.145,-19.35,-16.50,-33.00,15.19
2359,0.42,-1.33,-5.95,7.324,43.457,878.418,-19.35,-16.50,-31.50,15.14
2375,0.98,0.43,-3.75,134.277,-11.230,1077.637,-17.55,-17.10,-31.20,14.99
2384,-1.46,1.20,-6.37,243.652,80.078,1033.691,-16.65,-16.50,-31.50,15.14
2394,3.28,-0.93,-6.06,-75.195,0.000,1154.785,-17.10,-16.50,-31.80,15.38
2404,-0.95,0.63,-5.84,172.363,-39.063,1053.711,-17.10,-16.50,-31.80,15.19
2414,-1.60,2.06,-6.18,157.715,62.988,945.801,-19.50,-17.10,-31.20,15.23
2424,1.50,1.69,-6.69,-54.199,52.246,1120.605,-19.65,-17.70,-34.50,15.19
2436,-2.08,0.37,-4.82,184.082,12.207,950.195,-19.65,-17.70,-34.50,15.23
2446,-1.08,-0.92,-7.33,1.465,99.121,1167.480,-21.00,-15.00,-34.95,15.38
2456,-1.01,0.23,-4.50,60.059,72.754,1033.203,-22.35,-14.40,-34.80,14.90
2466,-2.80,-1.94,-6.67,285.645,-11.230,755.859,-22.35,-16.05,-35.25,14.90
2476,-1.69,1.82,-6.92,39.063,217.773,1156.250,-22.35,-17.25,-33.30,15.04
2486,1.29,-1.76,-4.13,351.562,-28.320,661.621,-22.35,-17.25,-33.30,15.14
2496,-2.17,1.37,-4.26,1.953,129.883,1111.816,-20.25,-17.10,-33.15,15.23
2507,1.10,-4.24,-3.64,66.406,63.965,1173.828,-19.35,-16.50,-31.05,15.23
2517,1.52,0.44,-3.50,87.402,-11.719,763.184,-19.35,-16.50,-31.05,15.33
2527,-3.18,-0.95,-8.27,15.625,-11.719,1232.422,-17.55,-17.40,-30.90,15.04
2537,0.11,-0.09,-8.98,227.051,150.879,768.066,-17.55,-16.20,-30.15,15.04
2547,-1.63,-0.34,-3.22,69.824,28.809,1288.574,-17.85,-17.25,-31.05,15.23
2557,-0.31,-2.18,-5.24,227.539,-72.266,815.430,-16.20,-16.80,-34.05,15.23
2567,1.64,-1.22,-7.10,29.297,47.363,1181.641,-16.20,-16.80,-34.05,15.19
2578,1.30,0.47,-8.95,229.004,48.828,823.242,-20.85,-18.00,-34.80,15.19
2588,-0.36,1.02,-6.37,33.691,17.578,1101.074,-21.30,-15.60,-36.00,15.33
2598,-0.69,-1.30,-8.76,189.453,39.551,1059.082,-21.30,-15.60,-36.00,15.04
2608,2.25,2.06,-5.91,22.949,8.301,778.320,-23.25,-18.00,-34.50,15.14
2617,-0.98,-1.05,-6.09,123.047,75.195,1292.480,-22.80,-17.70,-34.80,15.38
2627,-0.56,-0.50,-7.45,-41.504,23.926,898.437,-21.00,-17.10,-33.15,15.14
2637,0.67,-1.61,-5.12,110.840,-204.590,1100.586,-20.85,-16.05,-31.80,15.23
2649,1.96,2.95,-5.33,18.066,120.117,904.297,-20.85,-16.05,-31.80,15.19
2659,-0.82,1.97,-6.18,116.699,-27.832,1034.668,-18.60,-17.25,-30.75,15.04
2669,-2.19,1.03,-7.45,80.078,-0.488,1071.777,-17.25,-16.20,-32.70,15.04
2679,-1.69,-2.26,-7.25,102.051,-20.020,1052.246,-17.25,-16.20,-32.70,15.23
2689,-0.47,2.35,-6.17,88.379,94.727,1177.734,-20.25,-16.65,-32.70,15.33
2699,-0.44,-0.98,-7.65,91.797,-18.066,838.867,-21.00,-16.65,-34.65,15.23
2709,-0.90,4.02,-10.95,111.816,25.879,1097.168,-21.45,-16.65,-35.70,14.99
2721,-0.50,-2.78,-7.86,80.566,106.934,822.754,-22.20,-17.85,-36.60,15.43
2731,-1.34,-1.56,-5.49,171.387,-138.184,1187.500,-22.65,-16.65,-36.15,15.23
2741,0.28,2.19,-9.69,64.941,66.406,999.023,-21.00,-17.10,-32.70,15.14
2751,0.09,-2.24,-8.15,196.289,-75.195,997.070,-20.10,-16.80,-31.80,15.19
2761,-1.39,1.76,-11.27,88.379,45.898,1122.559,-20.10,-16.80,-31.80,15.23
2771,1.66,-2.08,-8.71,79.590,-69.824,830.078,-17.40,-15.60,-31.05,15.14
2783,-1.24,0.94,-8.05,158.203,-119.141,1028.320,-17.85,-16.50,-31.05,15.23
2793,0.69,-0.04,-12.68,128.906,-1.953,1018.555,-20.25,-15.90,-34.20,15.43
2803,-0.63,-1.71,-8.70,126.465,-119.629,965.332,-21.45,-15.00,-34.20,15.33
2813,0.73,-1.37,-9.78,67.383,-6.348,1222.656,-22.80,-14.85,-36.00,15.14
2823,-0.56,0.91,-6.80,118.164,36.133,791.504,-24.00,-16.80,-36.00,15.19
2833,1.23,-0.43,-9.81,179.199,-106.934,1226.563,-22.80,-16.50,-35.25,15.14
2843,2.82,-1.01,-7.50,162.109,139.160,1060.059,-22.80,-16.50,-35.25,15.38
2855,1.38,-2.53,-10.74,83.984,16.602,973.145,-18.00,-17.10,-31.95,15.23
2865,4.95,-3.84,-10.85,229.492,-131.836,1088.867,-18.00,-17.10,-31.95,15.43
2875,0.61,-1.04,-9.17,132.324,28.320,1107.422,-18.15,-15.60,-34.50,15.38
2890,1.56,-2.27,-9.83,196.289,-55.664,1104.492,-20.55,-15.60,-35.55,14.99
2899,1.60,-2.31,-11.72,227.539,-82.031,1009.766,-21.45,-14.70,-36.60,15.23
2909,-0.53,-3.20,-6.71,-26.855,-15.625,1174.316,-23.25,-16.50,-36.30,15.43
2919,-0.39,-1.92,-12.75,161.621,-45.898,883.789,-23.25,-16.50,-36.30,15.19
2931,-1.86,-0.69,-10.85,36.621,-40.527,1070.313,-19.50,-15.45,-31.95,15.38
2941,-0.08,-1.18,-10.49,223.633,184.082,1078.613,-16.20,-14.85,-32.25,15.23
2951,0.18,0.78,-10.94,-13.672,82.520,906.250,-16.20,-14.85,-32.25,15.23
2961,0.86,-1.20,-8.62,210.937,-53.223,1038.086,-17.55,-14.70,-33.90,15.23
2971,1.05,0.86,-11.76,132.812,34.180,988.770,-20.55,-14.40,-35.25,15.14
2981,0.73,0.85,-12.37,158.691,-6.836,1136.230,-21.90,-14.25,-36.15,15.19
2991,0.59,-0.08,-10.56,115.234,-41.016,1040.527,-22.80,-14.85,-36.30,15.23
3003,0.15,1.88,-9.40,122.559,16.113,1135.254,-22.80,-14.85,-36.30,15.19
3013,-0.24,1.55,-12.53,135.254,-68.359,807.617,-18.90,-16.50,-33.75,15.33
3023,-1.60,-2.04,-11.15,66.895,122.559,1117.676,-18.00,-15.45,-31.65,15.33
3033,0.85,-1.11,-11.78,6.836,-53.711,1034.180,-18.00,-15.45,-31.65,15.52
3043,2.47,-0.58,-12.73,123.047,37.109,977.051,-18.00,-14.25,-33.90,15.33
3053,2.31,0.47,-11.95,136.719,-7.812,991.211,-21.45,-15.45,-35.70,15.14
3063,1.99,0.53,-11.37,132.324,159.180,1055.664,-21.90,-15.00,-36.60,15.19
3074,-1.42,2.61,-10.49,45.410,148.926,1044.922,-22.05,-14.40,-35.25,15.23
3084,-1.30,0.94,-11.08,207.520,-197.754,983.887,-22.05,-14.40,-35.25,15.33
3094,-2.11,0.79,-12.00,208.008,-97.656,887.207,-16.65,-14.40,-30.30,15.23
3104,-0.26,-0.32,-11.50,184.082,46.875,856.934,-16.65,-14.40,-30.30,15.33
3114,-1.81,2.92,-12.97,125.977,117.188,904.297,-16.65,-14.40,-30.30,15.23
3124,-0.71,-4.43,-12.45,102.539,9.277,999.023,-21.45,-14.70,-37.35,15.19
3136,0.67,-2.15,-13.62,359.863,-127.930,829.590,-21.30,-14.40,-35.55,15.38
3146,-0.46,-3.27,-13.09,169.434,100.098,1061.035,-18.45,-16.20,-31.65,14.90
3156,-1.37,-5.37,-13.05,310.547,-154.785,1008.789,-16.20,-15.60,-30.75,15.33
3166,-4.56,0.11,-13.84,177.246,-6.836,905.762,-14.70,-13.65,-32.25,15.23
3176,-1.95,-4.22,-14.78,-7.812,24.902,1018.066,-19.20,-13.80,-34.20,15.33
3186,0.19,-2.59,-14.59,172.363,-35.156,1288.086,-19.20,-13.80,-34.20,15.38
3196,0.66,-2.56,-14.27,-14.160,76.172,1247.559,-21.60,-15.60,-34.05,15.23
3208,3.16,3.23,-16.80,189.453,-139.648,666.992,-18.90,-15.30,-31.80,15.33
3218,-1.30,1.34,-15.29,56.641,-5.859,1028.809,-17.25,-16.20,-30.45,15.23
3228,-1.46,2.63,-15.47,161.621,-86.914,980.469,-15.30,-15.00,-31.20,15.04
3238,-2.23,0.55,-17.18,150.391,49.316,1235.840,-18.00,-14.25,-34.65,15.19
3248,1.68,1.72,-13.98,207.520,-70.313,947.266,-20.85,-14.10,-37.05,15.14
3258,-0.76,-0.82,-14.92,115.234,-51.758,1081.543,-22.20,-15.90,-35.70,15.23
3268,1.11,-2.11,-10.85,231.445,-95.703,1153.809,-22.20,-15.90,-35.70,15.38
3280,-0.03,0.37,-14.18,186.523,-103.516,805.664,-16.65,-15.60,-29.55,15.23
3290,2.33,-5.12,-12.52,192.383,16.113,721.680,-17.25,-14.25,-30.15,15.38
3300,-2.89,0.19,-14.98,193.359,49.316,1105.957,-17.25,-14.25,-30.15,15.14
3310,-0.89,-1.40,-13.27,56.152,-54.688,857.910,-21.60,-14.40,-36.30,14.99
3320,-1.53,0.38,-13.98,284.668,20.020,1197.754,-20.85,-14.85,-33.00,15.23
3330,-0.36,-1.11,-14.54,128.418,32.227,1209.961,-17.25,-16.20,-29.70,15.04
3340,0.28,-4.53,-12.55,6.836,-37.109,776.855,-15.30,-13.50,-29.70,15.43
3352,3.27,0.34,-12.66,278.320,-27.344,1253.906,-15.30,-13.50,-29.70,15.38
3362,-0.47,-1.60,-14.31,193.848,-66.895,1019.531,-20.85,-13.65,-35.55,15.19
3372,1.15,-0.21,-11.02,398.926,-243.164,1514.648,-22.20,-15.45,-34.95,15.38
3382,2.19,-0.21,-12.73,196.777,41.504,593.262,-22.20,-15.45,-34.95,15.33
3392,-0.93,0.98,-15.70,153.320,9.277,1129.883,-16.80,-15.00,-30.45,15.14
3409,0.95,-1.87,-11.62,270.508,-189.941,721.191,-20.70,-13.05,-35.70,15.33
3418,0.90,-3.93,-10.49,43.945,49.805,1162.109,-22.95,-14.25,-34.95,15.33
3428,-0.31,0.29,-15.98,190.430,38.086,1134.277,-22.95,-14.25,-34.95,15.23
3438,-0.26,-3.14,-14.79,184.082,-117.188,1007.324,-15.45,-14.85,-30.75,15.14
3448,1.86,-0.27,-15.26,104.980,-117.188,757.812,-18.00,-13.80,-32.40,15.19
3458,-4.79,-2.16,-15.79,176.270,64.941,1010.254,-18.00,-13.80,-32.40,14.99
3468,-2.21,-5.07,-15.65,21.484,-189.941,1145.508,-22.20,-15.00,-35.70,15.38
3480,-3.08,2.42,-15.08,160.645,-125.488,910.156,-18.15,-16.05,-32.55,15.14
3490,-1.79,-1.54,-13.95,78.125,102.539,989.746,-16.20,-14.40,-30.75,15.38
3500,2.65,-3.43,-12.96,183.594,52.734,1082.520,-17.85,-13.20,-32.55,15.38
3510,2.79,-3.92,-13.69,338.379,-162.109,905.762,-17.85,-13.20,-32.55,15.23
3520,-0.96,-0.86,-13.17,127.930,43.945,1019.531,-21.45,-15.00,-34.65,15.19
3530,-0.95,-1.76,-16.89,362.793,-337.402,1143.555,-17.40,-15.30,-31.05,15.33
3540,-3.27,-2.07,-14.73,11.719,65.918,1082.031,-17.40,-15.30,-31.05,15.04
3552,-2.08,-4.02,-16.79,77.637,63.477,1058.105,-19.65,-11.70,-36.75,15.23
3562,2.37,-2.79,-14.19,255.371,-210.449,975.586,-22.35,-13.65,-37.05,15.04
3572,0.55,-1.80,-14.43,5.371,230.957,1280.273,-18.00,-14.25,-33.45,15.23
3582,3.87,-2.56,-16.20,229.004,-341.309,763.672,-15.90,-14.85,-30.30,15.38
3592,-3.92,-3.69,-13.59,231.934,-8.789,1060.059,-15.90,-14.85,-30.30,15.52
3602,-3.91,-2.17,-14.79,187.988,-176.758,1201.660,-20.25,-11.85,-36.90,15.23
3612,-2.37,-6.08,-13.23,255.859,-97.656,1460.449,-20.25,-14.70,-33.90,15.19
3624,-3.05,-5.73,-16.01,271.973,-142.578,1048.828,-20.25,-14.70,-33.90,15.04
3634,-2.66,-4.98,-18.15,178.223,-33.691,1159.180,-15.45,-11.70,-33.75,15.33
3644,0.93,-5.52,-18.29,-4.395,246.094,801.758,-20.55,-12.15,-36.00,15.14
3654,7.43,-1.02,-17.51,142.090,-189.453,1030.762,-19.95,-13.80,-34.65,15.52
3664,-2.53,-2.60,-16.98,167.480,-69.824,1002.930,-15.75,-13.80,-31.20,15.23
3674,-0.02,0.34,-15.13,-1.465,-29.785,1063.477,-16.65,-12.90,-32.55,15.23
3686,10.73,-0.90,-16.29,270.996,-204.102,829.102,-20.10,-12.45,-34.50,15.38
3696,7.91,2.04,-15.91,93.750,-147.461,1408.203,-20.10,-12.45,-34.50,15.23
3706,1.73,0.73,-15.76,230.469,-213.867,1082.520,-15.45,-11.25,-32.25,15.23
3716,-2.89,2.76,-15.06,300.293,-147.949,1285.645,-18.90,-11.70,-36.30,15.33
3726,-2.31,1.39,-15.59,71.777,264.160,731.445,-21.30,-13.20,-34.50,15.23
3736,-2.91,2.37,-16.17,417.969,-446.777,945.312,-16.05,-13.05,-30.90,15.38
3746,-1.14,2.71,-19.41,80.078,167.969,527.832,-15.45,-12.45,-31.80,15.38
3758,-4.09,2.38,-17.00,325.195,242.187,927.734,-19.95,-11.55,-35.40,15.38
3768,-7.75,2.96,-15.11,185.059,437.988,995.605,-19.95,-12.30,-33.45,15.38
3778,1.26,3.63,-17.77,437.988,-157.227,998.535,-19.95,-12.30,-33.45,15.38
3788,-3.67,1.99,-14.73,110.840,122.559,885.742,-16.65,-10.50,-32.55,15.38
3798,-0.62,-0.48,-20.76,440.918,-144.531,1027.832,-20.70,-12.30,-34.95,14.99
3808,-5.17,0.46,-13.28,250.488,-37.598,1227.051,-20.70,-12.30,-34.95,15.43
3818,-5.04,-1.79,-16.08,135.254,174.805,1169.922,-14.40,-12.90,-30.30,15.23
3831,-2.81,-4.08,-16.53,-16.113,-18.066,1453.125,-17.55,-9.90,-34.20,15.38
3840,-6.24,-1.39,-19.98,267.578,-67.871,860.352,-19.95,-12.30,-34.65,15.33
3850,-4.77,-3.05,-18.55,427.246,-206.055,1609.375,-16.80,-13.50,-30.45,15.43
3860,-6.21,-3.45,-18.53,-12.207,393.066,1189.941,-16.80,-13.50,-30.45,15.38
3870,-0.53,-5.66,-17.15,385.254,-285.645,847.168,-20.55,-10.95,-34.05,15.14
3880,-2.00,-3.50,-17.79,39.063,57.129,1092.773,-19.50,-13.05,-32.70,15.04
3890,1.23,-8.56,-20.71,-163.086,-135.254,1596.680,-19.50,-13.05,-32.70,15.38
3902,-1.11,-6.50,-19.27,44.922,-118.652,1479.980,-17.55,-10.35,-32.70,15.04
3912,-0.55,-3.07,-21.35,64.453,138.184,1000.977,-21.45,-11.10,-35.40,15.43
3927,-2.49,-1.23,-17.18,104.004,42.969,1483.887,-16.05,-9.45,-30.90,15.38
3936,-3.27,-6.88,-18.94,60.547,-352.051,1413.086,-16.05,-9.45,-30.90,15.19
3946,2.16,-0.04,-22.31,168.457,-250.488,908.203,-18.00,-13.05,-32.70,15.14
3956,1.66,2.48,-16.98,311.035,40.039,657.715,-15.15,-10.50,-29.85,14.71
3966,7.15,-0.40,-19.73,340.820,-65.430,609.375,-15.15,-10.50,-29.85,15.52
3976,-0.53,-4.29,-15.29,-44.434,-263.184,1281.250,-19.35,-11.70,-33.00,15.33
3988,5.26,1.91,-13.31,389.648,7.324,931.152,-15.15,-11.25,-28.80,15.43
3998,2.31,-5.57,-18.87,134.766,-283.691,1132.324,-16.80,-10.35,-32.40,15.67
4008,4.80,1.01,-16.53,-62.012,-337.891,814.453,-20.25,-11.85,-33.15,15.43
4018,-3.77,1.71,-19.15,146.973,-57.129,1201.660,-20.25,-11.85,-33.15,15.23
4028,-4.56,5.70,-17.83,65.918,-38.086,1201.172,-16.50,-8.70,-31.95,15.04
4038,1.08,7.50,-19.53,324.707,-74.219,1063.965,-21.30,-9.30,-33.75,15.38
4050,-1.80,1.56,-18.56,208.984,-374.512,1532.715,-21.30,-9.30,-33.75,15.14
4060,-10.70,7.20,-23.78,-204.102,454.590,1079.590,-15.15,-9.30,-31.05,15.04
4070,-8.91,10.67,-14.89,-3.906,270.996,542.480,-21.00,-9.15,-35.40,15.57
4080,3.72,12.04,-18.70,428.223,-4.395,684.570,-16.80,-13.05,-31.95,15.38
4090,-1.47,7.15,-16.32,117.188,423.340,1453.613,-14.85,-8.70,-30.45,15.38
4100,9.75,0.09,-19.82,359.863,-21.484,1050.781,-14.85,-8.70,-30.45,15.23
4110,6.06,9.82,-25.65,-67.871,38.574,680.664,-18.75,-12.30,-30.45,15.14
4122,-4.03,0.95,-19.01,69.336,-204.590,1309.570,-14.55,-8.70,-30.45,15.38
4132,-9.81,-10.20,-20.91,247.559,-569.336,690.430,-14.55,-8.70,-30.45,15.14
4142,-8.85,-6.53,-13.45,-316.895,-228.516,1312.012,-18.15,-10.05,-33.30,15.38
4152,-10.24,-10.32,-21.07,273.437,150.879,930.176,-16.05,-8.70,-30.90,15.38
4162,4.93,-5.97,-20.48,316.895,274.414,875.977,-19.35,-8.85,-36.30,15.57
4172,1.60,-6.93,-9.47,320.312,273.437,937.988,-16.20,-12.15,-31.50,15.38
4182,12.61,-4.44,-17.37,136.719,58.594,716.309,-16.05,-8.70,-31.95,15.14
4193,-2.11,-2.95,-16.54,243.652,-270.508,1207.520,-20.25,-8.70,-35.70,15.23
4203,-5.85,-3.43,-16.24,50.293,-351.074,1253.418,-15.75,-11.55,-31.65,15.38
4213,-7.72,-0.73,-18.72,18.066,174.316,1517.578,-15.75,-11.55,-31.65,15.33
4223,1.74,6.33,-22.32,373.535,-342.285,531.250,-20.55,-10.95,-36.30,15.14
4233,-6.53,2.68,-14.71,25.879,-308.105,1893.555,-16.20,-9.75,-30.75,15.38
4243,2.82,8.01,-26.28,248.535,-216.309,1206.055,-17.40,-8.10,-34.80,15.57
4253,-2.01,7.04,-16.05,247.559,-171.875,1055.176,-17.40,-10.50,-35.55,15.33
4264,-1.77,4.50,-18.73,193.359,-275.879,1792.480,-14.85,-8.25,-31.95,15.14
4274,-5.58,3.76,-19.21,-11.719,51.270,1586.426,-17.10,-7.35,-35.55,15.19
4284,4.63,4.31,-25.35,326.172,-321.289,1059.082,-17.10,-10.95,-33.30,15.43
4294,0.88,0.82,-17.69,437.012,-644.531,427.734,-17.10,-10.95,-33.30,15.38
4304,-8.59,0.19,-19.82,123.535,135.742,1426.758,-18.00,-7.95,-34.65,15.33
4314,3.62,2.18,-22.01,-15.137,211.426,895.020,-13.50,-12.45,-31.80,15.43
4324,-2.60,-7.23,-22.86,215.332,-615.723,901.367,-13.50,-12.45,-31.80,15.33
4336,-0.04,-3.31,-20.89,42.480,178.711,867.187,-13.35,-9.45,-31.65,15.38
4346,0.34,0.10,-23.50,-268.066,52.734,947.266,-13.95,-7.65,-34.05,15.38
4356,-9.97,-0.43,-21.45,-162.109,146.973,1051.758,-17.40,-8.85,-34.05,15.23
4366,-2.24,-0.22,-19.78,-215.332,186.523,1024.902,-17.40,-8.85,-34.05,15.38
4376,4.79,-3.05,-23.57,102.051,-430.176,500.977,-18.45,-7.95,-36.15,15.43
4386,1.60,-7.20,-18.67,401.367,-268.066,606.934,-13.05,-9.45,-31.65,15.52
4398,5.88,5.43,-20.70,139.160,-321.289,679.687,-13.05,-9.45,-31.65,15.52
4408,0.51,-0.10,-24.92,258.789,-269.531,861.328,-17.25,-9.45,-33.90,15.38
4418,8.50,-7.69,-24.48,180.664,-476.562,1259.766,-12.75,-8.55,-29.85,15.43
4428,1.23,-8.73,-18.73,437.012,-662.598,976.074,-16.05,-7.05,-34.95,15.33
4443,4.78,-0.57,-24.85,473.145,-394.531,507.812,-13.35,-11.10,-30.90,15.43
4452,-5.21,-4.15,-20.40,69.824,77.637,834.961,-13.35,-11.10,-30.90,15.38
4464,-8.40,6.00,-23.73,-149.902,531.250,683.105,-16.65,-8.10,-31.80,15.33
4474,-1.89,0.11,-22.04,426.270,-72.754,405.762,-12.00,-8.85,-28.05,15.19
4484,-1.83,0.43,-22.34,287.598,-68.359,1079.590,-12.00,-8.85,-28.05,15.67
4494,-1.47,8.63,-22.53,173.340,178.223,1143.066,-14.85,-11.55,-29.70,15.43
4504,-4.07,3.73,-21.79,508.789,-566.406,913.086,-14.40,-7.35,-30.75,15.19
4514,-12.16,4.56,-49.63,6.348,-133.301,1365.234,-17.40,-10.05,-31.80,15.57
4524,-16.24,-7.42,29.11,307.617,-569.824,974.121,-13.95,-9.75,-27.60,15.43
4536,-7.49,1.34,-14.82,540.527,-51.758,1250.977,-15.30,-11.10,-30.45,15.38
4546,-7.68,-5.79,-23.95,196.289,57.617,1533.691,-16.20,-8.10,-32.25,15.38
4556,3.98,-6.24,-19.71,489.258,-507.324,1345.703,-16.20,-8.10,-32.25,15.38
4566,-4.21,-3.65,-23.82,-170.410,247.559,1385.254,-12.60,-7.95,-30.45,15.52
4576,8.45,-1.10,-33.54,182.129,-787.109,843.262,-16.05,-9.90,-33.45,15.38
4586,3.75,-5.93,-28.93,80.078,49.316,1352.051,-16.05,-9.90,-33.45,15.19
4596,-4.64,-6.18,-14.85,47.852,100.098,1382.324,-15.15,-8.55,-33.75,15.38
4608,1.34,-0.44,-21.45,71.777,-315.430,1040.039,-15.15,-8.55,-33.75,15.14
4618,-7.95,-0.95,-26.82,78.613,218.750,1301.758,-14.55,-5.55,-33.45,15.23
4628,5.58,7.11,-25.31,199.219,-163.086,984.375,-16.80,-8.70,-33.45,15.33
4638,-10.53,3.06,-22.33,240.234,-94.727,1999.939,-16.80,-8.70,-33.45,15.38
4648,6.27,10.13,-27.91,-253.418,272.461,1196.289,-15.30,-7.95,-34.65,15.33
4658,-3.61,1.20,-22.21,436.035,-460.937,665.527,-12.75,-8.85,-30.30,15.19
4668,12.13,-0.96,-25.70,517.090,-732.910,325.195,-15.90,-6.45,-34.50,15.14
4680,7.15,-1.33,-22.66,383.789,-489.746,1002.930,-13.95,-9.30,-31.80,15.14
4690,-4.63,0.52,-25.72,-276.367,23.926,944.824,-13.95,-9.30,-31.80,15.23
4700,5.27,-3.72,-24.85,302.734,-732.910,773.926,-14.70,-7.65,-33.30,15.43
4710,0.21,-0.49,-17.44,264.648,-42.969,943.848,-12.45,-5.70,-30.75,15.38
4720,-10.14,0.14,-26.73,-123.535,-116.211,913.574,-12.45,-5.70,-30.75,15.43
4730,-4.58,-4.41,-25.40,311.035,-825.684,813.477,-13.05,-6.30,-30.15,15.19
4742,-9.94,-3.97,-27.40,2.441,-287.109,1006.348,-14.55,-5.85,-33.45,15.33
4752,-1.57,-9.03,-23.97,335.937,-670.410,708.008,-12.45,-6.90,-31.05,15.43
4762,-1.47,-10.99,-22.51,-66.406,345.703,1480.957,-15.15,-5.70,-33.00,15.33
4772,4.17,-6.63,-25.77,210.449,275.391,1483.887,-13.05,-8.25,-31.65,15.14
4782,19.37,-9.94,-20.77,-12.695,-229.980,995.605,-13.05,-3.15,-32.40,15.33
4792,8.95,-15.65,-19.23,33.691,-900.879,751.465,-11.70,-6.90,-30.30,15.52
4802,-7.66,-10.96,-22.78,251.465,-587.402,1261.719,-11.70,-6.90,-30.30,15.43
4814,1.77,-6.46,-29.33,-111.816,105.957,1078.613,-13.95,-6.90,-31.80,15.33
4824,4.49,-3.84,-24.47,421.875,-541.992,721.680,-12.30,-3.15,-30.45,15.38
4834,-11.32,4.28,-25.72,115.234,-61.523,1878.906,-13.80,-5.85,-31.65,15.52
4844,0.24,0.95,-29.06,94.238,-373.535,1396.484,-12.45,-5.70,-30.75,15.19
4854,1.41,6.52,-23.09,-26.367,134.277,1227.051,-13.80,-4.35,-31.95,15.43
4864,-0.54,11.06,-27.41,43.457,-324.219,788.086,-11.25,-4.05,-29.10,15.43
4874,5.23,6.56,-20.89,401.855,-473.633,693.359,-13.80,-4.65,-32.70,15.38
4886,-1.68,3.84,-33.38,275.391,-428.223,705.566,-13.80,-4.65,-32.70,15.57
4896,-1.73,1.56,-28.59,-261.719,33.691,1125.977,-12.75,-1.65,-33.90,15.43
4906,-2.27,6.72,-26.66,-6.836,-218.262,1136.230,-12.75,-1.65,-33.30,15.43
4916,-2.98,-1.58,-38.73,-636.230,-333.008,1027.344,-13.05,-4.35,-34.20,15.38
4926,-1.69,-0.32,-28.67,-170.410,-211.426,1696.777,-10.95,-3.75,-34.50,15.19
4936,2.82,-0.19,-31.59,217.285,-67.383,967.773,-10.95,-3.75,-34.50,15.38
4946,-0.07,-4.41,-26.95,211.426,-400.391,1013.184,-11.25,-4.05,-34.50,15.38
4963,4.37,-5.72,-30.73,-146.973,-264.648,1166.016,-11.70,-2.55,-34.05,15.33
4972,0.53,0.40,-25.95,159.668,151.367,452.148,-11.10,-3.45,-34.95,15.52
4982,1.60,-1.15,-27.24,-253.906,-346.680,812.012,-10.50,-3.75,-35.25,15.52
4992,-9.50,2.21,-27.73,26.855,-146.973,703.125,-11.70,-4.50,-34.05,14.90
5002,-8.21,-2.98,-25.40,-384.277,-572.754,1204.102,-10.35,-3.45,-35.40,15.52
5012,-4.35,-7.53,-25.77,-7.812,-207.520,1736.816,-10.05,-2.85,-36.30,15.38
5022,-5.75,4.99,-27.13,-162.109,-50.293,330.078,-10.05,-1.65,-34.50,15.52
5034,0.15,-0.97,-25.20,-100.586,-379.395,804.199,-9.75,-2.55,-34.05,15.52
5044,-4.02,1.21,-28.60,-89.844,267.090,1145.020,-9.75,-2.55,-34.05,15.19
5054,14.06,2.21,-29.77,-40.039,-354.004,624.512,-10.50,-2.10,-33.75,15.57
5064,9.93,-1.68,-31.47,67.871,-893.555,1286.133,-11.10,-3.45,-33.45,15.67
5074,-1.19,-3.27,-29.00,-520.996,5.859,1566.895,-11.10,-3.45,-33.45,15.23
5084,10.13,3.30,-28.56,81.055,-504.395,822.754,-11.25,-2.85,-33.30,15.23
5094,2.87,-3.08,-32.31,111.816,-403.320,944.336,-10.50,-2.10,-33.30,15.23
5106,6.38,1.40,-32.34,83.496,-577.637,526.855,-11.10,-3.15,-31.95,15.19
5116,-12.27,-3.30,-37.29,-274.414,-106.445,1432.129,-10.50,-4.05,-33.75,15.33
5126,2.66,1.79,-32.44,-123.535,-28.809,931.152,-10.50,-4.05,-33.75,15.43
5136,6.87,-0.83,-34.92,137.695,-304.199,747.070,-11.40,-3.45,-33.90,15.52
5146,5.98,-5.48,-22.46,-143.555,-314.941,1268.555,-10.95,-3.30,-34.50,15.23
5156,5.09,-4.60,-27.93,-204.102,-51.270,1417.969,-10.95,-3.30,-34.50,15.38
5166,1.21,0.59,-26.44,-40.527,-315.430,823.242,-11.10,-3.15,-34.95,15.38
5178,5.52,-1.00,-36.36,-79.102,-289.551,1054.688,-9.60,-2.25,-34.20,15.33
5188,-0.40,4.47,-31.79,-317.871,117.676,1208.496,-9.00,-2.55,-35.25,15.23
5198,1.38,0.93,-29.73,-245.605,-333.984,1141.113,-9.00,-2.55,-35.25,15.57
5208,3.02,2.73,-29.13,-148.437,-100.586,1242.676,-9.60,-3.15,-34.65,15.43
5218,-1.45,-0.54,-25.11,236.328,-420.898,825.684,-7.65,-3.15,-34.95,15.43
5228,-11.18,0.63,-24.45,-435.059,561.035,1428.223,-7.65,-3.15,-34.95,15.67
5238,-7.96,-1.56,-22.76,250.977,-298.828,760.742,-8.25,-1.35,-35.25,15.19
5250,-8.27,-4.63,-28.89,128.418,-72.266,710.937,-8.55,-2.55,-34.80,15.43
5260,0.37,-5.78,-29.75,-43.457,-47.852,806.152,-7.65,-1.95,-35.70,15.23
5270,-6.16,-10.89,-25.48,-57.617,77.637,1710.449,-8.25,-2.55,-34.50,15.43
5280,14.60,-3.44,-29.66,-410.645,35.156,1019.043,-8.25,-2.55,-34.50,15.52
5290,4.20,-6.31,-28.29,-70.313,-771.484,509.766,-9.00,-0.90,-34.50,15.43
5300,-9.11,-3.13,-31.44,-109.863,-532.715,1136.719,-9.30,-1.35,-34.05,15.38
5310,-9.78,5.19,-26.11,-625.977,287.598,1365.723,-9.30,-1.35,-34.05,15.57
5323,-3.73,-0.96,-21.95,-132.812,-54.688,1349.121,-8.25,-2.85,-33.75,15.38
5332,9.53,2.83,-26.75,-186.523,-48.828,653.320,-7.80,-2.10,-34.05,15.43
5342,5.85,11.60,-28.60,-200.684,48.340,1205.078,-8.40,-1.50,-33.15,15.23
5352,12.19,4.40,-19.83,164.062,-322.754,748.047,-6.90,-2.25,-33.90,15.38
5362,0.42,0.73,-22.33,-117.188,-92.285,1063.477,-6.90,-2.25,-33.90,15.38
5372,1.22,-0.21,-23.27,129.395,-199.219,1245.117,-9.00,-3.30,-33.30,15.38
5384,-5.16,-1.26,-20.98,70.801,330.566,1150.879,-9.90,-2.70,-34.95,15.38
5394,-5.13,-2.92,-19.27,-168.945,-3.418,1472.168,-9.90,-2.70,-34.95,15.14
5404,5.65,-4.47,-20.05,106.934,-399.902,1085.938,-9.00,-2.10,-35.55,15.38
5414,1.79,-5.08,-25.48,-193.359,126.953,1399.902,-7.35,-2.55,-33.75,15.38
5424,1.84,-2.64,-23.79,-110.352,-206.543,1391.113,-9.00,-2.10,-34.80,15.14
5434,3.81,-2.48,-22.83,-71.777,-400.879,1107.422,-7.05,-2.85,-34.05,15.23
5444,1.27,-3.28,-20.66,-39.063,-230.469,1192.871,-7.05,-2.85,-34.05,15.67
5456,1.09,-4.42,-22.32,-213.379,-172.363,1577.637,-6.45,-2.70,-33.45,15.43
5466,-11.20,-2.26,-27.40,-287.109,123.535,1275.879,-7.20,-1.50,-34.95,15.38
5481,2.29,5.11,-26.93,-131.348,41.504,600.098,-6.90,-2.70,-33.90,14.90
5490,10.04,-0.92,-18.05,-67.871,-79.102,1179.199,-6.15,-2.25,-34.65,15.23
5500,8.04,5.34,-22.46,-99.121,-353.027,946.289,-6.30,-1.65,-33.00,15.43
5510,1.63,-1.18,-26.32,-39.551,-434.570,1422.363,-7.35,-1.65,-34.50,15.43
5520,7.85,5.33,-20.53,-333.984,348.633,831.055,-6.30,-1.35,-33.75,15.38
5530,-4.39,11.73,-24.60,476.074,-274.414,457.520,-8.40,-1.05,-34.95,15.38
5542,-4.02,0.47,-19.84,449.707,-677.734,313.965,-8.25,-1.65,-33.75,15.67
5552,0.63,-1.95,-21.18,-86.914,24.414,719.727,-8.25,-1.65,-33.75,15.38
5562,-11.47,1.93,-24.87,-192.383,347.168,1328.125,-6.30,-2.10,-35.55,15.38
5572,1.08,3.86,-21.47,114.258,-224.121,880.859,-6.60,-0.90,-34.50,15.14
5582,5.28,3.52,-17.94,108.398,-512.695,550.293,-7.20,-1.50,-34.20,15.52
5592,-2.44,-5.18,-27.82,-232.910,497.559,1857.910,-4.50,-0.30,-33.90,15.57
5602,5.23,-4.75,-22.56,55.664,-550.293,575.684,-5.85,-1.35,-35.55,15.67
5614,7.28,1.86,-17.99,-85.449,-308.105,740.234,-5.55,-1.65,-34.50,15.52
5624,8.74,-5.13,-21.20,258.789,-420.898,1037.109,-7.35,-0.90,-35.55,15.38
5634,-0.36,-8.18,-20.02,-45.410,-318.848,1146.484,-7.35,-0.90,-35.55,15.43
5644,-2.85,-5.47,-24.01,-134.766,-12.207,1549.316,-5.70,-0.75,-35.40,15.38
5654,-5.69,-1.86,-19.53,-114.746,-93.750,1080.566,-7.80,-0.45,-34.05,15.19
5664,-0.69,-4.77,-21.59,-25.879,53.711,1324.219,-5.25,-0.75,-34.95,15.57
5676,5.08,-4.49,-20.35,130.859,-421.875,739.746,-6.60,-0.90,-34.05,15.14
5686,-2.97,1.01,-23.59,-206.543,414.551,1349.121,-5.55,-1.35,-34.80,15.52
5696,10.76,5.04,-19.92,-128.906,-351.074,799.805,-6.45,-1.50,-34.95,15.71
5706,7.84,3.21,-22.63,16.602,-434.082,581.055,-6.15,-0.30,-34.20,15.23
5716,0.94,3.18,-24.70,151.367,-412.109,1102.539,-6.15,-0.30,-34.20,15.38
5726,-0.59,6.05,-22.91,-345.703,143.066,1154.785,-5.70,-1.50,-32.70,15.38
5736,-1.04,4.52,-24.79,226.074,-429.687,662.109,-6.15,-0.75,-36.60,15.23
5748,3.19,4.70,-17.27,48.828,-291.992,749.512,-5.55,0.90,-34.50,15.38
5758,3.91,0.65,-20.29,98.633,-120.117,988.770,-4.80,-1.35,-34.50,15.23
5768,5.43,-1.22,-22.41,-289.062,-5.859,1255.371,-6.15,-0.75,-35.40,15.67
5778,12.34,5.34,-20.51,367.187,-448.730,1047.852,-5.25,-1.50,-34.95,15.38
5788,-0.24,5.73,-20.50,39.063,-372.559,1127.441,-5.25,-1.50,-34.95,15.43
5798,-4.05,0.17,-17.93,79.590,-60.059,1131.836,-4.95,-1.50,-34.20,15.33
5808,-7.26,-3.39,-27.76,74.219,-134.277,827.637,-3.45,0.00,-33.90,15.14
5820,-31.63,-6.98,-1.06,-25.879,55.664,458.496,-3.45,0.00,-33.90,15.23
5830,-6.01,0.81,16.25,109.863,15.625,531.738,-4.50,-1.05,-32.70,15.14
5840,4.85,-10.82,-19.56,247.070,-187.012,1041.016,-4.95,0.00,-34.95,15.23
5850,5.01,-6.51,-22.53,-462.402,88.867,1355.957,-4.20,-0.75,-32.70,15.38
5860,5.47,1.28,-23.48,-57.129,-367.187,437.988,-5.10,0.90,-34.05,15.67
5870,-0.08,1.63,-22.17,341.309,-714.355,742.187,-5.10,0.90,-34.05,15.43
5880,-2.51,-5.89,-17.89,-95.703,-220.703,1460.938,-3.90,0.45,-34.50,15.38
5894,-11.98,6.59,-31.85,-122.070,87.891,990.723,-5.25,-0.30,-34.95,15.38
5903,1.53,0.79,-27.13,-208.008,-136.230,1099.609,-5.25,-0.30,-34.95,15.43
5913,3.59,-3.64,-27.34,-109.863,-223.145,1318.359,-4.80,-0.15,-35.25,15.52
5923,-9.67,1.86,-42.27,-28.809,-395.996,990.234,-3.60,0.45,-34.50,15.23
5933,-9.83,-0.04,-19.67,200.684,-383.301,1657.227,-3.90,-0.15,-36.00,15.38
5943,-15.82,8.60,-84.75,-594.727,452.148,1836.914,-3.90,-0.90,-34.50,15.43
5953,0.81,-1.19,-32.12,448.242,-702.637,518.555,-3.90,-0.90,-34.50,15.38
5965,-1.18,0.31,-18.60,-102.539,143.066,818.848,-2.25,0.00,-34.95,15.57
5975,2.53,-7.92,-33.27,565.430,-559.570,663.086,-4.20,0.75,-34.95,15.52
5985,4.40,-6.27,-24.74,-14.160,-103.027,659.180,-4.20,0.75,-34.95,15.52
6007,4.92,-12.13,-24.01,32.715,-496.094,1213.379,-2.25,-0.75,-35.40,15.52
6016,-14.24,-5.02,-28.08,-434.570,-39.551,1245.117,-2.25,0.75,-35.40,15.38
6026,-4.36,-4.50,-31.34,98.145,-344.727,738.770,-3.15,-1.35,-34.50,15.57
6036,-7.15,-7.35,-25.37,143.066,-213.867,894.531,-3.15,-1.35,-34.50,15.57
6048,23.69,-5.75,-28.44,347.168,-710.937,699.219,-2.25,1.95,-34.65,15.52
6058,-7.98,-9.06,-74.25,-60.059,-190.918,1136.719,-2.25,1.95,-34.65,15.38
6068,1.70,-1.28,-16.07,-455.078,146.973,1258.789,-1.80,1.05,-34.65,15.67
6078,1.63,9.44,-34.05,255.859,-121.094,583.008,-1.80,0.30,-35.70,15.43
6087,-2.27,0.42,-28.03,-33.691,-243.164,1274.414,-1.80,0.30,-35.70,15.19
6097,-3.41,-1.55,-32.01,-19.531,108.398,1414.063,-0.90,0.90,-35.25,15.38
6107,-2.25,8.37,-27.85,-44.922,122.559,795.898,-1.20,0.15,-36.00,15.52
6119,7.18,0.42,-33.34,227.051,-418.457,1177.734,0.00,0.00,-36.15,15.23
6128,5.79,7.84,-33.60,-52.246,-464.355,671.875,1.20,-0.90,-34.05,15.52
6138,9.34,-0.69,-22.90,133.789,-855.469,820.312,1.20,-0.90,-34.05,15.33
6148,-1.40,-8.47,-28.47,-30.273,-241.699,1916.992,0.45,-1.35,-33.00,15.57
6158,-0.56,-0.69,-31.70,-117.188,336.426,1097.168,-0.45,-0.15,-34.50,15.38
6168,-3.98,1.80,-35.61,499.023,-383.789,956.055,-0.45,-0.15,-34.50,15.33
6178,-4.23,-8.35,-29.37,260.742,-524.414,1076.172,-0.30,0.00,-34.20,15.52
6190,-6.56,1.24,-32.70,319.824,-111.328,679.199,-1.20,0.45,-32.55,15.43
6200,-0.68,-6.02,-22.96,106.445,-302.734,882.812,0.75,0.30,-33.45,15.71
6210,7.18,-3.19,-28.31,-111.816,-496.582,1028.809,0.00,-1.50,-33.15,15.38
6220,1.31,8.77,-33.70,-370.117,-63.477,1077.637,0.00,-1.50,-33.15,15.14
6230,9.10,9.92,-33.47,-106.934,-385.742,924.805,-0.30,-1.95,-33.45,15.52
6240,10.56,12.11,-30.42,193.359,-543.457,520.508,-0.75,0.00,-33.90,15.14
6249,11.66,7.45,-32.07,-104.004,-244.629,1447.266,-0.30,-1.95,-34.20,15.67
6261,14.33,8.17,-31.24,-307.129,-747.070,1581.543,-0.45,-0.45,-33.00,15.38
6271,-7.27,7.81,-30.13,-259.766,-551.270,1999.939,0.15,-0.15,-34.80,15.52
6281,-16.68,5.02,-35.34,327.637,-677.734,826.172,0.75,-0.30,-34.65,15.57
6291,-22.44,2.80,-27.60,464.355,-312.500,1062.500,-0.45,-0.45,-35.25,15.67
6301,-25.92,-1.77,-43.61,215.332,-20.020,1176.270,-0.45,-0.45,-35.25,15.38
6311,-10.92,-7.57,-32.16,-177.734,189.941,1682.129,0.15,-0.90,-35.55,15.23
6321,-8.07,-5.18,-30.73,-193.848,384.766,845.215,1.05,-0.75,-33.15,15.57
6333,8.23,-6.74,-30.43,26.367,-98.145,911.133,0.90,-1.65,-34.05,15.67
6343,2.20,-9.52,-31.73,308.105,-429.687,1310.059,2.10,-0.90,-33.30,15.67
6353,-1.70,-0.75,-26.60,215.820,-60.059,1032.227,1.20,-0.15,-34.05,15.57
6363,-2.64,-4.36,-36.94,-46.875,20.508,996.094,2.25,-1.50,-30.90,15.57
6373,0.05,-7.30,-30.09,247.070,-762.207,1051.270,0.30,-1.05,-35.40,15.52
6383,-2.60,-9.19,-38.11,316.895,-1183.594,1618.652,0.30,-1.05,-35.40,15.33
6395,-9.47,-4.98,-23.69,-542.969,-60.547,1387.207,0.45,-0.15,-34.50,15.43
6405,-22.94,-10.58,-26.49,2.930,96.680,1528.809,1.80,-1.50,-31.95,15.33
6415,-13.91,-8.52,-26.29,157.715,-49.316,797.852,1.20,-1.35,-35.25,15.57
6425,-4.60,-10.76,-26.82,247.559,-49.316,1761.719,2.10,-1.35,-33.75,15.57
6435,-0.81,-13.76,-28.63,-149.414,166.504,1534.668,1.05,-0.75,-35.40,15.23
6445,14.18,-10.69,-28.63,90.332,-464.355,1074.707,1.20,-0.90,-33.30,15.57
6455,14.78,-7.14,-22.94,123.535,-621.094,493.652,0.90,-1.35,-34.50,15.67
6467,-22.52,-20.30,-151.56,211.426,-548.340,1345.703,0.90,-1.35,-34.50,15.67
6477,16.85,-15.35,-85.30,239.258,-644.531,933.594,1.80,-1.05,-35.40,15.52
6487,-2.85,-17.79,-17.35,132.324,-46.875,871.094,1.80,-1.05,-34.65,15.23
6497,3.30,-19.44,-43.90,678.223,-539.062,729.980,1.80,-1.05,-34.65,15.52
6507,-15.73,-16.02,-45.67,-233.398,-4.883,1554.688,2.55,0.30,-33.15,15.52
6523,8.91,-23.80,-32.21,775.391,-321.289,977.051,1.50,-2.25,-34.20,15.67
6532,-6.20,-16.37,-29.31,-335.449,310.059,1972.656,0.75,0.00,-32.70,15.23
6544,-2.51,-12.07,-38.54,-151.367,-37.598,609.375,0.75,0.00,-32.70,15.43
6554,8.02,-15.31,-32.78,-190.918,-301.270,1498.535,1.50,-1.50,-32.70,15.52
6564,-6.69,-9.40,-24.15,293.945,-502.930,1156.738,-0.15,-2.85,-34.80,15.43
6574,-9.57,-9.29,-36.06,-453.613,155.273,792.480,-0.15,-2.85,-34.80,15.23
6584,-12.94,-4.65,-24.91,-85.449,-198.730,926.758,0.00,-2.25,-34.20,15.57
6594,-18.79,-7.72,-50.87,-158.203,-458.496,1239.258,1.50,-0.75,-34.20,15.43
6604,-17.14,-10.17,-22.11,-94.727,-553.223,1200.195,0.30,-0.75,-33.15,15.38
6616,-7.31,-3.18,-29.65,-64.453,-348.145,344.238,1.65,-0.90,-34.05,15.52
6626,-11.69,-11.89,-27.01,346.191,-318.848,1060.547,1.65,-0.90,-34.05,15.38
6636,-0.91,-8.19,-29.60,-140.625,-527.344,784.668,1.65,-0.45,-33.75,15.43
6646,-5.87,-7.38,-31.40,-197.754,-948.730,1428.711,1.80,-1.50,-34.20,15.23
6656,-6.22,2.80,-45.22,-265.137,-348.145,1285.156,1.80,-1.50,-34.20,15.23
6666,2.94,8.12,-38.93,-226.562,-231.934,1882.324,0.45,-3.30,-34.50,15.52
6676,6.85,15.96,-37.15,-44.922,188.965,1005.859,1.20,0.15,-33.75,15.43
6688,13.06,12.15,-18.98,42.480,-576.660,614.258,1.80,-2.25,-34.20,15.43
6698,1.60,7.92,-34.76,142.578,-869.629,1610.352,3.45,-0.75,-34.95,15.52
6708,2.07,9.18,-34.30,133.789,-1007.812,1306.152,3.45,-0.75,-34.95,15.43
6718,-12.76,9.98,-32.44,15.137,-524.902,971.191,3.00,0.30,-35.40,15.43
6727,-22.17,4.99,-34.21,95.703,-299.805,919.434,3.45,-1.95,-34.65,15.57
6737,-14.99,-2.98,-28.60,194.336,-311.035,1413.086,3.45,-1.95,-34.65,15.67
6747,-13.25,1.39,-32.00,345.215,34.668,663.574,2.85,-1.65,-33.75,15.43
6759,25.47,3.30,-26.76,-439.941,314.453,1165.527,3.45,-1.50,-33.90,15.57
6769,24.17,0.43,-34.27,152.832,-693.848,823.730,3.15,-0.15,-35.55,15.57
6779,19.68,11.09,-27.56,259.766,-374.023,687.988,3.15,-0.15,-35.55,15.67
6789,-2.20,3.79,-29.89,53.711,-512.695,592.285,4.35,0.45,-35.25,15.38
6798,-5.27,5.83,-20.85,174.316,-546.875,1043.945,4.35,0.45,-35.25,15.52
6808,-1.94,4.40,-35.99,-94.727,-562.012,1500.977,3.90,-1.35,-34.50,15.67
6818,-0.02,6.68,-34.46,-179.687,-258.301,399.902,3.90,-1.35,-34.50,15.38
6830,1.63,-0.78,-32.14,89.355,-467.773,1069.336,4.35,0.15,-34.80,15.57
6840,-1.11,0.21,-28.61,64.453,-921.875,1042.969,5.70,-0.75,-33.45,15.38
6850,1.08,-4.48,-39.33,69.824,-1088.379,900.879,4.95,-0.75,-35.70,15.33
6860,-2.47,2.37,-33.52,-160.156,-445.801,840.332,4.95,-0.75,-35.70,15.52
6870,1.92,5.06,-30.53,-141.602,-120.117,783.203,4.20,0.75,-36.15,15.23
6880,20.18,8.11,-59.06,-51.270,-124.512,779.785,5.70,-0.75,-34.65,15.43
6890,6.86,-0.58,-36.58,103.027,-392.090,460.937,5.70,-0.75,-34.65,15.43
6902,1.92,-1.15,-42.99,-49.805,-722.656,854.492,7.95,-0.30,-34.20,15.57
6912,0.62,-0.82,-45.56,-2.441,-553.223,647.949,6.15,0.30,-35.70,15.57
6922,3.02,-3.82,-39.02,-170.410,-392.090,1376.953,8.40,-1.05,-34.95,15.67
6932,0.04,2.85,-38.92,-115.723,-579.590,771.484,6.60,1.35,-35.55,15.52
6941,-3.91,-0.60,-39.59,32.715,-704.590,866.211,6.60,1.35,-35.55,15.19
6951,0.64,0.31,-39.50,3.906,-683.594,1510.254,6.45,0.00,-35.70,15.38
6960,-5.20,4.56,-38.44,-40.527,-486.816,1375.488,7.80,-1.35,-34.80,15.71
6972,0.15,1.92,-42.32,-165.039,-285.156,1147.949,7.80,-1.35,-34.80,15.57
6982,1.43,-3.14,-45.12,-67.871,-696.777,1174.805,7.65,-0.75,-34.20,15.67
6992,0.37,-2.92,-36.85,-97.656,-346.680,1131.348,7.65,-0.30,-36.15,15.71
7002,0.68,-0.65,-45.19,-109.375,-546.387,1156.738,7.65,-0.75,-33.90,15.23
7012,-2.38,-0.25,-36.88,-184.570,-395.508,1337.402,7.95,0.00,-35.70,15.38
7022,-0.76,0.69,-43.92,-180.664,-71.777,903.320,7.95,0.00,-35.70,15.52
7038,3.21,0.63,-45.18,-40.039,-284.668,757.324,8.55,-0.45,-35.55,15.38
7047,-1.82,-0.76,-36.95,-112.793,24.414,1067.383,8.70,-1.95,-35.40,15.43
7057,2.76,-1.87,-44.47,-56.152,-326.172,929.687,8.70,-1.95,-35.40,15.38
7067,0.58,-6.37,-45.78,-186.523,-395.508,729.004,9.60,-0.30,-34.95,15.38
7077,3.15,-3.78,-40.65,-84.473,-591.309,1041.504,8.55,-0.15,-36.00,15.52
7087,4.23,-0.81,-44.50,129.883,-687.012,1380.371,9.75,-1.35,-35.25,15.43
7097,2.43,2.07,-39.75,-257.812,-329.590,1229.492,9.15,-1.50,-36.15,15.43
7109,3.33,1.95,-48.24,-80.566,-574.707,719.727,9.75,-0.90,-36.00,15.38
7119,4.12,-5.00,-51.27,54.199,-882.812,950.195,9.90,-0.75,-35.70,15.43
7129,4.23,-3.80,-43.91,-177.246,-845.703,746.094,9.90,-0.75,-35.70,15.52
7139,-0.47,3.63,-39.98,-77.148,-679.687,1125.000,9.90,-0.75,-35.70,15.67
7149,3.92,2.70,-46.63,-116.211,-722.168,1357.910,10.95,-1.65,-36.30,15.33
7159,6.05,0.67,-52.50,-375.977,-157.715,1245.605,10.95,-1.65,-36.30,15.57
7169,-1.53,0.74,-52.10,-167.969,-432.129,673.828,10.65,0.00,-35.70,15.38
7181,5.57,-6.37,-42.64,270.020,-944.336,1399.902,11.70,-1.35,-35.55,15.76
7191,8.72,-3.68,-50.26,6.836,-593.262,639.160,10.65,-2.70,-35.70,15.38
7201,5.65,-0.53,-49.96,-171.875,-394.043,1328.125,10.95,-0.45,-34.80,15.57
7211,7.01,2.20,-48.88,-157.715,-428.223,739.746,10.95,-0.45,-34.80,15.67
7221,-5.24,0.19,-50.15,-110.840,-365.723,1014.648,13.20,-0.45,-36.00,15.14
7231,-2.93,1.20,-45.60,-11.719,-163.086,960.937,10.95,-3.30,-33.75,15.43
7241,-5.50,-2.85,-37.38,-79.590,-18.555,1574.219,13.50,-0.15,-36.00,15.43
7253,8.91,4.40,-45.98,-371.094,169.434,851.562,13.05,-3.15,-34.20,15.43
7263,10.88,0.01,-45.59,-206.055,-1114.746,1146.484,13.95,-0.90,-35.25,15.57
7273,-5.31,0.79,-48.76,-564.453,-584.961,786.621,12.60,-3.45,-33.90,15.67
7283,-15.32,-3.41,-46.35,-96.191,-414.551,1605.469,13.50,-0.90,-36.75,15.57
7293,-12.80,-15.16,-47.17,-440.430,270.508,1999.939,13.50,-0.90,-36.75,15.67
7303,9.45,-9.92,-44.19,100.586,-62.012,1020.996,14.55,-2.25,-35.70,15.14
7313,4.27,-5.47,-50.53,276.855,-125.977,674.316,13.35,-3.45,-33.45,15.67
7325,7.45,1.86,-44.93,-330.566,-194.824,1217.285,13.80,-2.70,-35.70,15.33
7335,12.70,-2.25,-49.16,104.492,-295.410,568.359,15.75,-3.15,-34.65,15.33
7345,-0.21,-4.47,-36.93,-191.406,-742.676,1221.191,12.60,-0.75,-35.40,15.52
7355,10.24,3.54,-41.82,54.199,-647.949,725.098,14.55,-4.65,-33.90,15.43
7364,-5.64,-5.13,-44.24,160.645,-604.980,1503.418,13.05,-2.70,-35.70,15.43
7374,-6.29,2.69,-33.49,382.812,-391.113,804.199,13.05,-2.70,-35.70,15.19
7384,-8.29,4.98,-44.09,-196.777,-346.191,1313.965,13.80,-3.90,-36.90,15.67
7396,-4.31,3.25,-49.52,28.809,66.895,1691.406,16.05,-3.90,-34.95,15.43
7406,11.26,4.02,-45.35,172.363,-221.191,860.352,16.05,-3.90,-34.95,15.52
7416,-8.57,4.02,-48.44,310.547,-285.156,920.410,16.05,-5.55,-34.65,15.57
7426,-0.34,-1.20,-42.85,160.645,-260.254,1417.480,14.10,-4.35,-36.60,15.43
7436,5.08,0.99,-50.17,79.590,-676.270,1141.113,15.90,-4.95,-34.50,15.43
7446,5.16,5.38,-50.32,-121.094,-562.500,711.914,15.15,-6.45,-36.30,15.67
7456,1.05,-1.59,-47.10,-164.062,-477.539,1143.066,15.15,-6.45,-36.30,15.33
7468,5.01,-1.05,-43.18,-156.738,-756.836,1125.977,14.85,-6.75,-36.15,15.38
7478,3.23,7.74,-49.60,-72.266,-625.000,561.523,16.20,-4.50,-35.25,15.38
7488,0.56,-9.78,-50.11,215.332,-757.812,1275.879,16.20,-4.50,-35.25,15.43
7498,-3.51,-8.85,-44.53,-194.336,-324.219,1723.145,16.20,-4.05,-34.05,15.67
7508,7.83,0.45,-43.19,53.223,-41.992,1159.668,15.90,-5.70,-35.55,15.52
7518,20.27,3.44,-47.63,-67.383,-356.934,958.496,16.20,-4.95,-36.00,15.76
7528,7.78,-0.37,-42.11,-281.250,-1044.434,1482.910,17.10,-6.45,-33.75,15.57
7540,-18.21,3.24,-48.18,112.793,-704.102,688.477,17.55,-6.30,-34.95,15.52
7555,-8.54,0.94,-49.76,-251.465,33.203,1971.680,15.15,-3.75,-37.50,15.57
7564,6.54,6.05,-42.73,269.043,-286.621,1311.523,15.15,-3.75,-37.50,15.71
7574,5.34,-3.69,-46.68,86.914,-458.496,1185.059,15.75,-5.10,-36.90,15.38
7584,4.78,8.84,-39.53,-278.809,-475.586,556.641,17.55,-5.85,-35.70,15.52
7594,-0.36,3.29,-44.41,-102.539,-417.969,1030.762,17.55,-5.85,-35.70,15.67
7604,8.31,0.82,-52.98,-92.285,17.090,872.070,17.55,-6.30,-34.65,15.38
7615,9.95,-5.34,-50.51,345.703,-568.848,543.945,17.55,-6.30,-34.65,15.38
7625,0.60,5.99,-56.33,41.992,-379.395,463.867,16.80,-5.10,-36.90,15.52
7634,-4.47,-12.02,-41.15,162.109,-1414.551,1497.070,17.85,-6.90,-36.00,15.52
7644,-2.23,-3.14,-40.66,-424.316,-462.891,902.832,17.85,-6.90,-36.00,15.57
7654,5.77,0.39,-56.89,112.305,-987.793,688.965,18.15,-6.90,-34.05,15.71
7664,-5.63,1.91,-43.99,-20.020,-506.836,543.945,17.25,-5.55,-36.15,15.33
7674,0.00,-4.32,-38.71,-7.324,-613.770,1041.016,18.00,-7.50,-35.40,15.57
7685,-0.17,10.82,-44.59,-425.293,-293.945,729.004,17.40,-5.70,-36.30,15.71
7695,-1.47,9.36,-52.81,-96.191,-756.348,876.953,20.10,-6.45,-36.00,15.57
7705,2.08,4.07,-41.60,-30.762,-500.977,1264.648,18.75,-7.05,-38.10,15.67
7715,3.87,3.20,-42.59,114.746,-703.125,1310.059,19.95,-7.50,-35.40,15.52
7724,1.60,9.54,-43.50,-88.867,-325.195,1354.004,19.95,-7.50,-35.40,15.38
7734,-4.50,1.82,-51.21,-85.938,-754.395,1999.939,19.50,-5.55,-37.65,15.71
7746,-2.73,3.46,-48.43,262.695,-267.090,1147.949,18.75,-9.15,-36.15,15.43
7756,5.26,3.50,-39.87,-311.035,-321.777,1368.652,18.90,-6.90,-36.30,15.43
7766,2.39,3.68,-48.07,-251.465,-70.801,1114.258,19.20,-10.35,-34.65,15.71
7776,7.76,-0.50,-40.93,-10.742,-683.594,972.168,18.75,-7.05,-38.10,15.76
7786,4.85,6.13,-49.39,199.707,-876.465,787.109,19.20,-9.15,-36.15,15.67
7795,-7.17,2.89,-50.56,-393.555,-29.297,1263.672,19.35,-8.85,-37.05,15.52
7805,-0.73,-5.82,-51.28,-107.910,-622.559,792.969,19.35,-8.85,-37.05,15.57
7817,-10.31,-3.03,-47.96,-219.727,-494.629,1220.703,19.50,-8.70,-37.35,15.52
7827,5.62,-3.16,-41.41,150.391,-307.617,952.637,21.00,-8.25,-36.15,15.67
7837,7.26,-7.70,-59.71,-219.727,-315.918,1111.816,21.00,-8.25,-36.15,15.57
7847,-5.59,-5.15,-35.80,-177.246,-646.973,1321.777,20.25,-7.95,-36.60,15.67
7857,3.69,-5.79,-47.81,124.512,-364.746,840.332,20.55,-10.50,-36.00,15.52
7867,2.72,-4.34,-40.97,122.559,-603.516,1492.188,20.10,-8.85,-36.00,15.23
7877,1.49,-4.65,-39.31,8.789,-367.187,838.379,21.45,-11.10,-35.70,15.67
7889,5.50,5.07,-39.98,-44.922,-120.117,617.187,21.45,-11.10,-35.70,15.43
7899,-5.97,-2.48,-48.37,96.191,-556.152,1205.078,21.45,-9.90,-36.60,15.71
7909,-5.98,-4.10,-41.75,11.719,-341.797,1988.770,19.50,-9.90,-36.90,15.43
7919,-8.56,-1.16,-37.60,-383.789,-172.852,873.047,19.50,-9.90,-36.90,15.67
7929,1.05,-1.50,-45.15,-187.012,-239.746,882.812,20.55,-11.25,-36.75,15.76
7939,3.63,-1.64,-43.51,30.273,-320.312,997.070,22.05,-9.75,-37.05,15.67
7949,0.63,-0.91,-42.79,-255.859,-322.266,691.406,22.65,-11.85,-36.15,15.19
7961,8.14,1.15,-28.66,333.496,-1036.133,1076.660,22.95,-11.55,-35.40,15.43
7971,-2.48,-3.03,-43.62,-442.871,-439.941,1141.113,21.90,-10.35,-37.35,15.33
7981,2.97,2.78,-40.41,-390.137,-141.113,1626.465,23.55,-9.30,-36.00,15.57
7991,10.00,-4.76,-46.76,183.105,-573.242,781.738,23.55,-9.30,-36.00,15.57
8001,4.24,-10.56,-33.53,286.133,-1087.402,1665.039,22.35,-8.85,-36.75,15.43
8011,1.09,3.40,-45.70,66.406,-382.812,1041.504,21.90,-13.50,-35.40,15.52
8020,5.81,0.73,-41.85,258.301,-531.250,228.516,21.90,-13.50,-35.40,15.19
8032,0.39,1.02,-36.54,-60.059,-793.945,964.355,22.20,-12.30,-35.40,15.71
8042,6.08,-0.69,-41.95,-59.570,-649.414,777.832,21.45,-11.55,-39.60,15.23
8052,-3.16,7.75,-47.34,170.898,-495.117,655.762,22.95,-11.55,-36.60,15.67
8067,-3.69,4.88,-42.46,220.215,-270.020,923.828,21.45,-13.50,-37.35,15.71
8076,-5.05,3.36,-39.93,-156.250,-324.707,915.039,21.45,-13.50,-37.35,15.67
8088,-14.83,7.54,-42.18,-366.699,-15.625,1214.355,22.35,-12.15,-37.05,15.52
8098,-0.14,8.61,-52.49,-10.742,-514.160,698.730,23.70,-12.30,-38.40,15.52
8108,0.89,2.23,-43.37,-2.930,-289.062,798.828,23.70,-12.30,-38.40,15.43
8118,-5.42,-0.38,-36.85,185.059,-668.457,819.824,23.70,-11.85,-38.85,15.71
8128,-7.17,6.48,-44.86,-18.066,-182.129,871.094,23.25,-13.65,-37.80,15.76
8138,4.51,1.15,-39.81,29.297,-394.043,1305.664,22.95,-12.75,-38.85,15.57
8147,0.36,-0.31,-48.05,203.125,-537.109,1152.344,24.75,-13.20,-37.50,15.67
8158,5.79,-1.75,-46.75,-326.660,-377.441,1335.449,24.75,-13.20,-37.50,15.67
8168,0.98,-4.98,-45.94,-0.977,-440.430,1332.520,23.55,-11.25,-37.80,15.38
8178,2.47,-4.73,-50.32,53.711,-460.449,1274.902,24.15,-15.00,-38.10,15.38
8188,-1.52,4.95,-41.69,48.828,-612.305,974.121,24.15,-15.00,-38.10,15.52
8198,-2.71,4.81,-45.43,195.801,-561.523,1074.219,24.75,-13.65,-38.25,15.67
8208,-2.56,7.58,-44.19,44.922,-694.336,1358.887,24.90,-15.00,-38.85,15.76
8218,-2.11,1.78,-48.79,142.578,-823.242,1725.098,25.05,-13.20,-38.55,15.76
8229,-4.03,0.24,-44.49,-537.598,-845.215,719.238,25.35,-15.90,-38.40,15.38
8239,-8.69,7.91,-43.23,-121.094,-531.250,843.750,24.15,-13.05,-39.15,15.38
8249,-3.47,10.07,-46.44,-134.766,-483.398,879.883,24.00,-15.60,-37.50,15.43
8259,-10.79,-2.70,-59.07,321.777,-783.691,1999.939,25.65,-15.00,-38.85,15.43
8269,12.48,-5.71,-60.78,69.336,-480.469,545.898,25.65,-15.00,-38.85,15.57
8279,-7.07,-3.34,-47.61,500.488,-851.562,984.375,24.60,-17.40,-38.40,15.67
8289,12.71,-6.75,-49.55,78.613,-599.609,351.074,23.70,-15.00,-38.85,15.38
8301,10.64,-11.49,-44.24,-62.988,-459.961,859.863,24.75,-17.70,-38.55,15.71
8311,5.31,1.31,-39.27,142.578,-954.102,769.531,24.60,-16.65,-38.10,15.38
8320,2.31,-0.47,-55.93,-149.902,-529.297,1275.391,24.60,-16.65,-38.10,15.67
8330,-11.85,-2.60,-38.13,-39.551,-595.215,1999.939,25.35,-16.65,-38.40,15.52
8340,2.51,-1.47,-51.05,235.352,-398.437,563.477,24.60,-17.85,-38.10,15.43
8350,-18.75,0.67,-52.38,-476.074,-338.867,1302.246,24.60,-17.85,-38.10,15.57
8362,-9.46,2.48,-23.32,26.367,-349.609,1061.523,25.05,-16.80,-39.30,15.67
8372,-1.36,6.21,-43.53,4.395,-1157.227,818.848,25.05,-16.80,-39.30,15.76
8382,-1.58,6.37,-45.32,178.223,-524.902,1425.293,24.15,-18.60,-39.15,15.38
8392,2.74,3.50,-31.78,103.027,-624.023,548.340,24.75,-16.50,-37.80,15.38
8402,0.05,-0.95,-48.87,-92.285,-642.090,479.492,24.75,-18.90,-38.55,15.52
8412,12.27,4.50,-37.63,-249.512,-859.375,255.859,25.35,-18.30,-38.85,15.71
8422,0.53,6.38,-32.86,92.285,-343.262,1243.652,25.35,-18.30,-38.85,15.71
8434,-11.15,-3.73,-50.07,-274.902,-74.219,1127.930,24.75,-17.70,-40.05,15.52
8444,2.25,6.18,-51.72,69.824,-742.187,1901.855,26.10,-19.05,-37.65,15.67
8454,0.85,5.67,-35.47,15.137,-239.258,1138.672,26.10,-19.05,-37.65,15.67
8464,-5.39,0.63,-40.53,104.492,-346.680,1381.348,24.75,-17.70,-38.25,15.19
8474,-8.05,3.18,-48.94,-57.129,-378.906,1551.758,25.35,-20.70,-38.40,15.38
8484,-3.49,1.18,-32.63,-252.930,-95.703,770.996,24.75,-20.10,-40.50,15.67
8494,0.75,-3.55,-40.65,-71.777,-380.859,1216.309,26.85,-19.50,-37.65,15.67
8506,4.83,-3.73,-39.73,89.355,-265.137,1471.680,24.60,-20.70,-39.60,15.71
8516,7.03,-0.66,-43.83,-30.273,-215.332,579.102,25.80,-18.45,-39.30,15.86
8526,5.65,0.35,-42.34,395.996,-197.266,588.867,25.50,-21.30,-37.80,15.67
8536,-0.81,3.33,-37.99,-41.504,-208.496,1185.059,25.50,-21.30,-37.80,15.57
8546,15.46,1.87,-39.69,240.723,-471.191,298.340,26.10,-19.80,-37.65,15.38
8556,9.53,-4.50,-37.44,-275.391,-458.984,460.937,24.30,-20.85,-39.75,15.43
8566,-4.47,5.83,-46.39,-135.254,-375.977,603.027,24.30,-20.85,-39.75,15.38
8583,-3.00,11.90,-37.76,34.668,-186.035,652.344,24.75,-20.10,-40.80,15.52
8592,-0.55,-4.80,-34.70,459.961,-782.715,529.297,26.25,-22.05,-39.30,15.86
8602,11.22,2.61,-36.09,-6.348,-613.281,1040.039,25.35,-23.10,-38.85,15.38
8612,-12.77,0.76,-35.95,-79.102,-128.418,1883.301,25.35,-23.10,-38.85,15.43
8622,8.19,-7.85,-50.70,-93.262,-455.566,1166.992,24.90,-22.20,-39.90,15.52
8632,3.89,-4.45,-30.01,430.664,-511.719,1132.813,23.70,-22.65,-41.10,15.67
8642,0.30,-5.71,-40.56,-202.148,-272.949,1311.035,23.70,-22.65,-41.10,15.57
8654,0.88,-2.54,-39.26,-291.992,-358.398,1561.523,25.35,-22.20,-39.15,15.52
8664,-12.47,-4.21,-34.06,-103.027,-642.090,1756.836,26.10,-21.45,-39.60,15.38
8674,-8.60,-0.33,-44.24,37.598,-187.500,1245.605,24.75,-23.25,-39.00,15.52
8684,-14.49,3.99,-39.89,-70.801,-302.734,1274.902,24.00,-22.50,-40.05,15.38
8694,0.61,8.00,-38.68,114.746,-148.926,945.801,24.00,-22.50,-40.05,15.33
8704,-10.93,9.19,-40.07,-118.164,-117.676,1301.758,25.05,-24.45,-38.25,15.43
8714,5.40,9.84,-29.07,-59.082,-536.133,566.895,24.30,-22.80,-39.30,15.57
8725,-3.31,1.00,-32.98,-286.133,-176.270,1843.262,24.30,-22.80,-39.30,15.57
8735,6.10,8.83,-45.19,67.871,-736.816,634.766,24.30,-22.50,-39.75,15.57
8745,0.79,-1.95,-39.53,347.168,-678.223,1038.574,26.25,-22.80,-39.00,15.52
8755,-16.27,1.33,-40.89,-366.699,261.719,1656.250,25.05,-23.70,-39.00,15.43
8765,0.02,-3.28,-36.94,279.785,-867.187,888.184,24.30,-23.25,-39.75,15.38
8775,8.76,1.47,-27.14,135.742,-356.934,724.121,25.35,-23.10,-39.60,15.43
8784,-0.07,0.59,-43.82,-669.922,321.777,479.004,25.65,-25.05,-38.40,15.57
8795,13.90,-2.51,-26.85,361.328,-548.828,397.461,24.90,-23.40,-40.35,15.43
8805,-17.60,-3.23,-41.66,-230.957,-449.707,1584.473,24.90,-23.40,-40.35,15.57
8815,8.04,-10.15,-33.05,447.754,-1202.637,77.148,24.30,-25.65,-39.00,15.57
8825,-6.05,10.56,-39.52,-309.570,316.406,678.711,25.35,-23.10,-39.60,15.52
8835,-0.60,-8.56,-31.85,141.113,-776.367,74.219,25.35,-23.10,-39.60,15.67
8845,6.20,3.31,-26.57,500.977,-914.062,314.453,24.00,-26.40,-39.75,15.52
8857,4.34,-0.76,-16.69,253.906,-1151.367,450.195,25.35,-24.30,-39.60,15.43
8867,-5.33,13.52,-28.81,-408.203,-230.957,1124.512,23.70,-25.80,-39.60,15.71
8877,-13.27,5.45,-39.92,-60.547,-541.016,1458.496,24.75,-24.00,-40.50,15.67
8887,-5.80,1.05,-31.43,131.348,-467.285,1142.090,24.75,-24.00,-40.50,15.76
8897,-0.50,12.76,-25.82,371.094,-403.320,422.363,24.00,-25.65,-41.55,15.23
8907,-3.36,5.00,-34.75,-145.996,-262.695,1241.211,24.30,-24.45,-40.05,15.52
8917,7.08,6.18,-34.49,384.766,-614.746,300.293,24.30,-24.45,-40.05,15.43
8929,2.86,-0.07,-35.76,128.906,-989.746,816.406,24.30,-26.85,-40.80,15.67
8939,6.83,3.66,-43.37,-244.629,-325.684,492.187,24.90,-25.80,-40.35,15.67
8949,-7.37,-12.12,-37.02,53.711,-574.219,1999.939,25.05,-26.85,-39.00,15.57
8959,12.40,-5.46,-28.61,34.668,-1110.840,745.605,25.35,-26.55,-41.10,15.52
8969,-5.93,3.64,-32.62,-576.172,62.988,980.469,25.35,-26.55,-41.10,15.57
8979,-4.34,-8.59,-36.79,291.992,-1076.172,785.156,23.40,-27.45,-39.60,15.23
8989,2.43,-0.55,-35.15,-13.184,-33.691,1091.309,23.40,-27.00,-40.35,15.38
9001,9.34,-3.78,-32.73,435.547,-413.086,390.625,23.40,-27.00,-40.35,15.23
9011,-11.74,6.39,-36.14,-245.117,-375.000,966.309,22.65,-27.00,-40.65,15.43
9021,-7.89,0.30,-33.92,31.250,-558.594,1243.652,22.65,-27.00,-40.65,15.38
9031,13.56,5.29,-30.15,631.836,-370.605,667.969,24.00,-27.15,-39.30,15.67
9040,4.09,-3.88,-27.72,127.930,53.711,1431.152,23.55,-27.60,-40.05,15.67
9050,-5.56,1.08,-34.65,-186.035,-668.945,1548.340,24.15,-27.00,-41.10,15.19
9060,10.77,0.54,-36.91,614.746,-1126.465,76.172,23.70,-27.45,-39.60,15.71
9072,0.26,-2.63,-27.97,247.559,-998.535,445.801,23.40,-27.75,-40.65,15.52
9082,2.73,6.23,-40.16,56.641,1.465,591.797,22.35,-29.55,-40.80,15.71
9097,-2.31,-0.60,-39.88,-122.559,-409.668,1999.939,22.35,-28.05,-40.50,15.57
9106,6.15,-6.84,-37.28,289.062,-1097.656,773.926,22.35,-28.05,-40.50,15.43
9116,-0.28,3.45,-35.00,-27.344,-446.777,1041.016,21.90,-29.85,-39.90,15.23
9126,-8.43,2.59,-43.60,-331.543,-177.734,1346.680,22.65,-26.25,-40.65,15.14
9138,-16.47,3.72,-44.45,-409.668,-163.086,1594.238,22.65,-27.75,-39.15,15.52
9148,2.27,-0.58,-36.85,359.863,-639.648,850.098,22.05,-28.80,-41.55,15.23
9158,-2.76,7.02,-42.44,68.359,-288.086,1153.809,22.05,-28.80,-41.55,15.52
9168,-13.79,-1.37,-50.29,240.723,-973.633,1106.445,22.35,-29.25,-39.30,15.71
9178,-2.08,4.08,-45.95,-547.363,-767.090,197.754,22.95,-29.40,-40.35,15.67
9188,-15.07,6.47,-41.31,-234.863,-113.770,1655.273,22.95,-29.40,-40.35,15.57
9198,0.96,-3.31,-41.50,438.965,-903.809,944.824,22.05,-31.95,-40.05,15.67
9210,6.54,-10.10,-72.11,-200.195,-402.832,288.086,22.20,-29.85,-40.65,15.67
9220,14.89,-4.21,-45.81,182.129,-1041.504,642.090,22.20,-30.15,-41.10,15.43
9230,-23.23,-4.51,-22.15,-818.848,717.773,929.687,22.95,-31.05,-39.15,15.38
9240,5.94,-5.62,-31.19,455.078,-1512.695,-480.957,22.95,-31.05,-39.15,15.43
9250,-1.28,-1.10,-47.33,-196.289,-163.086,1121.094,22.20,-27.75,-40.65,15.76
9260,-19.06,-10.10,-42.37,70.313,-545.410,1682.617,21.60,-30.45,-40.50,15.52
9272,-11.47,-4.79,-40.13,-66.406,-156.250,1460.449,22.20,-30.15,-39.90,15.71
9282,15.13,2.41,-38.44,280.762,-574.219,557.129,20.85,-30.00,-40.05,15.71
9292,-15.66,-1.26,-34.85,-495.117,193.848,1385.742,21.45,-29.85,-40.35,15.38
9302,10.28,3.29,-33.66,150.391,-726.074,347.656,22.80,-31.95,-40.05,15.38
9311,10.63,2.53,-37.92,297.852,-473.145,1204.590,22.80,-31.95,-40.05,15.43
9321,-11.33,0.51,-33.92,-665.039,-136.230,1628.418,21.45,-30.15,-41.85,15.57
9331,6.27,5.42,-34.16,482.910,-1116.211,705.078,22.05,-30.75,-39.75,15.52
9342,-6.61,4.32,-35.96,-342.285,-151.855,1999.939,22.95,-31.05,-40.35,15.76
9352,5.09,-0.63,-42.21,10.742,-756.348,331.543,21.90,-29.85,-40.65,15.57
9362,-1.76,8.91,-41.79,-307.129,121.094,520.508,21.90,-32.25,-39.90,15.38
9372,6.81,-1.87,-35.81,244.629,-1068.359,533.203,21.30,-30.45,-41.25,15.43
9382,7.47,3.24,-37.02,59.082,132.812,886.719,21.30,-31.20,-40.80,15.52
9392,4.77,-2.98,-40.08,-89.355,-590.332,876.465,20.85,-30.75,-41.25,15.67
9402,10.72,2.34,-34.95,231.445,-634.766,484.375,20.55,-30.45,-40.50,15.52
9414,3.19,1.18,-37.73,511.230,-884.766,482.910,19.35,-30.75,-40.05,15.76
9424,-8.47,3.32,-38.27,-314.941,-141.602,1131.836,19.35,-30.75,-40.05,15.67
9434,-8.60,-1.98,-44.98,32.227,-747.070,821.777,21.00,-29.40,-41.40,15.43
9444,5.15,3.20,-19.47,-266.602,-454.102,997.559,19.35,-31.65,-41.25,15.33
9454,-11.67,-0.10,-43.30,-92.773,-244.629,1603.027,19.35,-31.65,-41.25,15.67
9464,9.55,-2.68,-32.69,255.859,-588.867,804.687,19.65,-31.65,-41.55,15.71
9476,13.20,-3.05,-36.37,325.195,-1022.461,209.473,20.85,-32.40,-40.05,15.76
9486,-5.28,1.34,-37.84,-531.250,899.902,893.555,19.95,-31.80,-40.65,15.57
9496,-2.89,-9.53,-41.32,204.102,-1121.094,1247.070,19.50,-31.05,-41.40,15.38
9506,5.21,3.44,-39.66,71.289,-416.016,660.156,19.50,-31.05,-41.40,15.67
9516,-6.90,-2.53,-42.34,-43.945,-847.168,1230.469,20.55,-32.85,-41.55,15.95
9526,4.74,0.21,-44.26,5.859,-521.973,932.129,19.50,-32.25,-42.15,15.52
9536,-6.36,2.02,-38.87,-317.871,-766.602,930.664,19.50,-32.25,-42.15,15.67
9548,0.84,1.46,-39.55,-98.145,-415.039,973.145,20.55,-31.95,-41.25,15.38
9558,2.95,8.15,-39.03,301.758,-291.992,1416.016,19.95,-32.25,-42.15,15.67
9568,-1.85,2.05,-41.58,29.297,-550.293,1446.777,20.10,-32.85,-41.25,15.67
9578,8.26,0.11,-38.47,7.812,-273.437,1343.750,20.10,-32.85,-41.25,15.57
9588,4.21,-0.56,-43.04,94.238,-277.832,566.406,19.65,-32.40,-40.50,15.67
9598,1.05,-5.31,-39.66,-104.492,-301.270,1516.602,18.90,-31.95,-42.45,15.52
9613,-5.40,-0.80,-49.11,117.188,-547.852,932.129,19.65,-32.40,-40.50,15.43
9622,-1.92,-2.27,-47.38,26.855,-545.410,785.645,17.85,-31.65,-41.25,15.67
9634,-5.83,-4.22,-40.59,-41.992,-186.035,670.898,18.00,-32.55,-41.10,15.71
9644,0.81,-10.85,-37.95,-204.590,-591.309,1183.105,18.45,-33.00,-40.65,15.43
9654,6.72,-6.85,-29.47,-165.527,-383.789,1407.227,18.75,-32.55,-41.40,15.57
9664,5.16,1.34,-25.53,-471.191,-706.543,656.738,19.95,-33.00,-40.65,15.67
9674,7.31,1.56,-43.59,-244.629,-444.824,1044.434,19.50,-34.20,-41.10,15.38
9684,4.05,0.34,-26.50,37.598,-933.594,1199.707,18.45,-33.75,-39.90,15.52
9693,12.34,0.83,-26.05,160.645,-744.629,783.691,18.45,-33.75,-39.90,15.52
9705,7.03,-3.33,-30.45,-134.277,-646.484,1011.230,16.65,-32.40,-40.50,15.57
9715,-0.99,1.76,-35.04,-97.168,-537.109,1415.039,17.10,-33.15,-40.05,15.67
9725,2.24,2.08,-32.47,-151.855,-135.254,1065.918,17.10,-33.15,-40.05,15.43
9735,4.71,2.08,-32.73,-85.938,-283.203,1519.531,17.40,-33.60,-41.55,15.43
9745,-20.66,2.39,11.43,223.145,-729.980,1045.898,16.80,-33.45,-41.85,15.43
9755,-1.93,-6.44,-30.50,-135.254,-184.570,1176.758,17.55,-33.00,-41.10,15.71
9765,-5.22,-1.02,-34.55,-168.945,-298.828,562.012,18.60,-33.60,-40.50,15.43
9777,-1.32,-0.64,-30.61,-90.820,-667.969,973.145,18.60,-33.60,-40.50,15.57
9787,2.10,0.53,-34.31,-191.406,12.207,1373.047,19.20,-33.75,-41.10,15.67
9796,8.76,-0.51,-29.66,84.473,-1012.207,1762.207,16.80,-33.00,-40.65,15.67
9806,0.10,-0.22,-37.17,-266.602,-218.262,537.109,16.80,-33.00,-40.65,15.38
9816,-4.27,1.29,-29.45,-200.684,-222.656,898.926,16.65,-34.05,-40.05,15.23
9826,-2.31,-10.24,-34.98,-104.004,-812.988,858.887,17.85,-34.35,-40.05,15.52
9838,-9.12,3.15,-25.03,-293.457,143.066,877.930,18.15,-34.05,-40.80,15.71
9848,7.50,-1.92,-31.30,30.273,-693.848,798.340,16.50,-34.65,-39.90,15.52
9858,11.16,5.99,-41.97,99.121,-217.773,782.227,16.50,-34.65,-39.90,15.43
9867,8.13,4.10,-24.18,-170.410,-231.934,752.441,16.65,-33.15,-40.05,15.71
9877,-0.39,-2.04,-31.17,-246.582,-354.004,1265.137,15.75,-35.40,-39.15,15.52
9887,4.05,-5.92,-23.40,-332.520,-842.773,1236.328,15.75,-35.40,-39.15,15.67
9897,-11.53,-8.35,-34.40,-512.207,105.957,1315.430,17.40,-35.25,-41.55,15.76
9909,1.33,-5.05,-34.89,-114.258,-286.133,711.914,16.05,-33.75,-40.65,15.38
9919,-0.66,-6.59,-29.11,-305.664,-2.441,1256.348,15.75,-34.95,-40.65,15.86
9929,5.65,1.02,-24.26,-7.324,-163.574,934.082,16.20,-33.15,-40.05,15.76
9939,5.38,1.21,-32.01,-149.414,-584.473,1168.457,14.55,-34.95,-40.35,15.67
9949,-7.72,1.79,-25.53,-64.941,-887.207,494.629,14.70,-34.35,-40.80,15.52
9959,-12.09,5.62,-46.93,-268.555,-99.609,747.559,16.80,-34.65,-39.90,15.38
9969,2.53,4.34,-30.12,-114.746,-126.953,351.562,16.80,-34.65,-39.90,15.52
9981,9.69,1.90,-22.76,29.785,-311.523,1147.461,15.75,-34.95,-39.90,15.43
9991,13.44,-1.05,-22.84,-145.508,-440.918,986.328,15.30,-35.85,-40.65,15.57
10001,7.23,0.23,-24.76,-16.602,-442.871,676.270,14.85,-35.40,-39.60,15.52
10011,2.08,0.37,-36.47,-32.715,-652.344,923.340,15.90,-34.05,-39.30,15.57
10021,-2.97,1.20,-26.50,71.289,-336.914,101.563,14.55,-34.20,-39.15,15.43
10031,-5.07,7.39,35.60,43.945,-230.469,1247.559,14.40,-35.55,-39.75,15.57
10040,1.39,-0.15,-11.88,-241.211,-65.430,690.430,14.85,-35.85,-39.15,15.67
10052,1.48,-2.28,-25.36,80.566,-915.039,1247.559,14.85,-35.85,-39.15,15.67
10062,3.69,-3.24,-28.57,-162.598,-167.969,1079.590,13.95,-35.85,-40.35,15.52
10072,0.66,4.00,-29.88,-77.637,-67.871,461.426,13.95,-34.35,-39.30,15.67
10082,2.77,6.05,-25.57,-15.625,-179.687,767.090,13.95,-34.35,-39.30,15.67
10092,4.48,7.32,-32.24,-111.328,-84.473,1041.016,15.15,-36.00,-39.60,15.71
10102,4.55,6.50,-27.65,99.121,-370.605,1327.637,15.15,-36.00,-39.30,15.67
10114,2.63,-0.51,-27.76,149.902,-306.152,1077.148,13.50,-35.25,-39.00,15.71
10129,-4.85,-2.47,-32.59,-303.223,-70.313,1662.109,13.50,-35.25,-39.00,15.67
10138,3.24,6.78,-29.29,73.730,-656.250,276.367,13.80,-34.65,-39.15,15.43
10148,-4.33,-4.06,-26.97,117.188,-311.523,1121.582,12.75,-35.55,-39.00,15.43
10158,-1.44,-2.86,-27.85,-7.324,-393.066,922.852,12.75,-35.55,-39.00,15.43
10168,-2.35,1.73,-27.37,-56.152,26.367,223.145,14.10,-36.15,-40.35,15.57
10178,6.66,4.34,-36.22,82.520,-178.223,393.066,13.20,-35.25,-39.00,15.43
10190,10.11,1.62,-22.05,-178.223,-353.027,487.305,14.40,-36.45,-38.55,15.52
10200,8.48,5.02,-31.50,124.512,-540.039,822.266,13.20,-35.55,-39.30,15.57
10209,3.66,-1.53,-30.26,-52.246,-477.051,1234.375,13.20,-35.55,-39.30,15.67
10219,0.77,-4.02,-27.07,-38.574,-277.344,1334.473,14.10,-36.15,-38.10,15.52
10229,5.07,2.38,-32.18,147.949,-219.727,891.602,13.35,-36.60,-39.15,15.76
10239,0.68,3.03,-23.50,-487.793,74.707,427.734,13.35,-36.60,-39.15,15.52
10251,4.25,-2.52,-23.87,-165.527,-71.777,1018.555,14.10,-37.35,-38.85,15.57
10261,8.18,-0.12,-29.18,25.879,-445.312,1099.609,14.40,-36.00,-38.55,15.67
10271,-2.21,-0.19,-28.65,-67.871,-595.703,1264.648,12.45,-35.55,-37.50,15.43
10281,-3.61,-3.15,-30.50,26.367,-186.523,877.930,12.30,-37.35,-38.85,15.67
10291,3.26,-5.87,-41.65,-317.383,-114.746,933.105,13.95,-35.55,-39.00,15.57
10301,6.15,-1.73,-11.17,-337.402,-523.926,1625.000,13.50,-37.65,-37.80,15.43
10311,9.49,-2.87,-20.55,-64.941,-101.074,1392.090,12.45,-35.55,-39.00,15.52
10323,-0.26,-8.79,-31.92,214.844,-450.195,1110.352,12.45,-37.20,-38.55,15.71
10333,-8.04,0.15,-25.49,-351.074,-349.121,1259.277,12.45,-37.20,-38.55,15.76
10343,-10.02,4.15,-22.39,-283.691,-250.488,780.762,12.60,-37.35,-39.15,15.43
10353,6.69,-2.74,-8.02,-87.891,-536.621,864.746,12.45,-37.20,-38.25,15.38
10363,-1.65,1.88,-22.87,-388.672,-749.023,1574.707,11.85,-36.15,-38.40,15.43
10373,1.18,5.53,-32.43,62.012,-309.082,1023.437,11.85,-37.80,-38.40,15.67
10382,4.43,5.69,-32.84,-203.613,-88.867,1140.137,11.85,-37.80,-38.40,15.52
10395,5.13,-1.71,-23.83,-126.953,127.441,789.551,11.85,-35.40,-38.10,15.43
10405,4.28,2.90,-28.02,-18.555,-504.395,1166.504,12.00,-35.55,-38.25,15.76
10415,4.56,-0.47,-24.67,-206.543,-69.336,1108.398,11.70,-36.45,-38.25,15.52
10425,4.71,-3.74,-29.54,-83.496,-533.203,1141.602,11.70,-36.45,-38.25,15.43
10435,-0.66,-2.27,-31.87,-308.105,-211.426,1218.750,11.85,-35.85,-36.90,15.43
10445,9.09,-7.10,-27.08,154.785,-260.742,1305.176,12.00,-36.45,-38.25,15.57
10456,2.89,-8.49,-23.82,325.684,-656.250,1363.770,12.30,-37.05,-39.15,15.76
10466,7.10,-6.31,-30.34,-304.687,-958.984,1753.418,11.85,-37.05,-38.85,15.52
10476,4.28,5.55,-37.79,-193.848,-423.340,642.090,11.85,-37.05,-38.85,15.71
10486,3.25,-5.34,-24.91,14.160,-959.961,1089.844,12.45,-36.45,-39.00,15.71
10496,-5.34,4.38,-28.98,-283.691,-112.793,803.711,12.45,-37.20,-38.25,15.33
10506,5.50,6.70,-32.34,39.063,-416.504,848.145,12.45,-37.20,-38.25,15.38
10515,0.98,5.01,-37.05,79.102,-52.246,1204.590,12.30,-36.60,-38.85,15.86
10527,3.95,6.27,-28.12,139.648,-707.031,856.934,11.10,-36.60,-37.65,15.67
10537,1.90,7.61,-27.60,-257.324,-315.430,1298.828,12.30,-36.15,-38.10,15.67
10547,-0.18,0.99,-37.25,-160.156,-432.617,1042.969,11.10,-37.05,-37.35,15.67
10557,-6.36,3.64,-34.78,-255.371,-779.785,954.590,11.10,-37.05,-37.35,15.67
10567,-1.89,0.33,-27.18,-150.879,-496.094,661.133,11.10,-37.05,-38.10,15.38
10577,-5.82,-1.96,-37.08,-59.082,-747.559,1291.992,11.70,-37.20,-38.25,15.38
10587,-13.32,-4.15,-48.04,-212.402,-284.668,973.633,11.70,-37.20,-38.25,15.71
10599,-4.15,-4.54,-35.92,152.344,-432.129,259.277,13.05,-36.60,-38.10,15.57
10609,-9.10,-5.63,-46.21,-272.461,-330.078,1288.086,10.05,-36.75,-37.80,15.71
10619,-0.65,-3.85,-37.50,-301.270,-191.895,611.328,12.00,-36.75,-37.50,15.71
10629,14.41,2.30,-38.21,-218.262,-727.539,576.660,11.40,-37.05,-36.15,15.71
10651,-0.47,-2.03,-38.69,48.340,-453.613,1103.027,10.05,-37.20,-37.50,15.43
10660,-0.49,-8.13,-35.62,-92.285,-667.969,1601.074,12.30,-37.35,-37.35,15.38
10672,4.52,-4.68,-42.43,-222.168,-489.258,1245.605,12.30,-37.35,-37.35,15.52
10682,-0.34,-2.45,-42.50,-162.109,-714.355,1125.977,11.40,-37.35,-37.35,15.52
10692,3.65,1.58,-39.02,-54.688,-722.656,1035.645,10.65,-37.35,-36.90,15.52
10702,5.28,-2.30,-43.37,-129.395,-517.090,1200.195,10.35,-37.80,-36.60,15.71
10712,9.40,-2.41,-44.34,-263.184,-177.734,1346.191,10.35,-39.00,-38.40,15.57
10722,9.16,-5.50,-41.05,89.844,-871.094,1198.242,11.10,-37.35,-37.35,15.67
10732,0.33,-1.43,-39.38,108.398,-875.488,1012.207,9.90,-37.35,-36.60,15.71
10744,-6.02,-0.22,-50.18,21.973,-305.176,457.031,9.60,-37.35,-36.60,15.57
10754,-3.53,-1.21,-56.45,168.457,-397.949,1019.531,10.35,-37.35,-37.35,15.67
10764,3.95,-3.52,-53.22,-48.828,-504.883,1095.215,9.75,-37.20,-36.75,15.43
10774,-0.91,3.33,-46.05,-186.035,158.203,966.309,9.75,-37.20,-36.75,15.57
10784,-3.54,-3.15,-41.30,-295.410,-268.555,1222.168,10.35,-36.60,-37.65,15.86
10794,6.02,-1.27,-50.37,-124.512,-346.191,164.062,9.75,-37.95,-35.55,15.57
10806,7.62,10.92,-43.98,-47.363,-893.066,480.469,9.15,-36.60,-37.35,15.67
10816,-8.36,10.40,-47.60,99.609,-228.516,965.820,9.75,-39.15,-36.30,15.76
10826,0.15,1.69,-33.50,-95.703,-604.980,645.508,9.75,-39.15,-36.30,15.52
10836,-1.34,8.25,-46.91,380.859,-187.012,878.418,10.50,-37.95,-37.05,15.67
10846,-0.35,4.82,-39.37,-196.289,-189.941,906.738,9.60,-39.30,-36.90,15.38
10856,-1.09,0.24,-42.21,-77.637,-225.098,994.629,9.60,-39.30,-36.90,15.52
10866,6.23,-2.71,-40.90,234.863,-266.113,1320.313,9.30,-37.20,-36.75,15.43
10878,-0.69,4.47,-50.68,-51.270,-107.910,1226.074,10.35,-37.35,-37.35,15.57
10888,4.16,-1.66,-38.56,-132.812,-930.664,1107.910,9.30,-37.95,-36.30,15.71
10898,5.11,-2.40,-45.75,-162.598,-981.445,1430.664,9.15,-39.30,-36.15,15.76
10908,7.57,-0.57,-43.02,123.535,-867.676,880.371,9.15,-39.30,-36.15,15.67
10918,1.47,0.67,-36.05,-541.504,-470.703,715.820,8.40,-38.55,-36.15,15.52
10928,2.77,0.22,-46.39,-7.812,-585.449,1053.223,6.90,-37.35,-37.35,15.43
10938,-1.34,-5.34,-38.53,137.695,-668.945,1125.977,6.90,-37.35,-37.35,15.71
10950,-8.19,-4.02,-46.18,-78.125,-305.664,1132.813,9.00,-38.40,-36.00,15.38
10960,-6.55,-1.34,-37.69,-170.898,-33.691,1230.469,8.25,-38.40,-36.30,15.52
10970,0.56,-0.61,-53.11,29.785,-645.508,793.945,8.70,-39.30,-35.70,15.67
10980,3.92,0.45,-46.73,-38.086,-525.391,1307.617,7.35,-38.40,-36.75,15.71
10990,-0.36,4.20,-41.46,139.648,-305.664,827.148,7.35,-38.40,-36.75,15.76
11000,5.08,-3.68,-45.79,-40.039,-140.137,1060.059,6.60,-39.90,-36.30,15.71
11010,12.98,-8.14,-50.27,-73.242,-647.461,1225.098,6.90,-37.80,-36.15,15.43
11021,5.64,-3.40,-38.60,-46.875,-690.430,894.531,6.90,-37.80,-36.15,15.71
11031,4.32,0.78,-48.92,94.238,-298.340,774.902,6.15,-40.20,-36.60,15.67
11040,0.10,-2.13,-44.20,-76.172,-368.652,837.891,7.65,-38.55,-35.70,15.67
11050,-11.12,-5.25,-37.25,-240.723,-634.277,1157.715,5.85,-39.90,-35.55,15.76
11060,-6.02,-0.87,-40.50,-175.781,-720.703,1250.488,7.65,-39.00,-36.15,15.43
11070,-7.73,-0.18,-39.95,80.078,-407.227,1004.883,6.45,-40.20,-34.95,15.67
11082,5.10,-2.28,-47.38,-5.371,-420.410,903.320,5.55,-39.15,-35.25,15.33
11092,9.15,7.63,-60.35,47.363,-914.062,418.945,4.50,-40.20,-34.95,15.76
11102,4.14,-1.47,-44.73,-43.945,-452.637,1223.145,4.50,-40.20,-34.95,15.86
11112,9.63,-2.47,-33.66,-106.934,-811.523,1538.574,5.70,-39.00,-36.15,15.57
11122,-1.39,-0.63,-53.60,-225.586,-380.859,972.656,5.85,-40.35,-36.30,15.43
11132,1.45,1.76,-52.16,-235.352,-872.559,959.961,5.85,-40.35,-36.30,15.71
11142,1.25,0.13,-42.50,48.828,-567.871,1378.418,6.45,-39.75,-34.65,15.43
11154,2.16,6.05,-52.47,118.164,-441.406,516.602,5.10,-39.60,-36.30,15.67
11170,1.54,-10.05,-56.81,26.855,-791.016,1110.840,4.80,-39.90,-36.30,15.52
11179,-4.83,-6.59,-47.44,-225.586,-655.273,1062.500,4.80,-39.90,-36.30,15.76
11189,5.11,-1.02,-51.71,12.695,-867.676,1684.082,4.35,-39.60,-35.55,15.57
11199,-4.61,3.65,-45.37,119.141,-208.008,1060.547,3.75,-41.40,-35.70,15.71
11209,-7.37,0.71,-47.58,-163.086,-631.348,695.312,3.75,-41.40,-35.70,15.76
11219,-8.40,3.98,-48.65,-179.199,-794.922,577.637,3.90,-40.80,-34.05,15.67
11229,-14.56,-0.95,-49.03,-383.789,-96.191,811.035,3.45,-40.50,-36.15,15.52
11241,-2.00,-0.81,-41.56,-156.738,80.566,1707.520,3.90,-40.80,-35.55,15.38
11251,8.33,-5.53,-53.21,103.027,-427.734,675.781,2.25,-41.70,-35.40,15.52
11261,2.56,0.91,-44.82,-218.262,-671.875,671.387,2.25,-41.70,-35.40,15.43
11271,-2.46,-6.29,-56.27,-125.488,-697.754,1889.160,2.25,-42.15,-34.95,15.57
11281,-13.05,-2.15,-44.49,-125.977,-524.902,821.289,3.15,-41.55,-36.75,15.71
11291,-7.40,0.40,-43.37,50.293,-272.461,672.852,3.15,-41.55,-36.75,15.71
11301,2.58,3.54,-50.54,-282.227,-530.273,756.348,0.90,-41.55,-35.55,15.67
11313,5.44,5.45,-51.68,-307.129,-50.781,1276.367,2.40,-41.10,-36.75,15.38
11323,21.53,3.15,-48.42,264.160,-693.848,535.645,1.80,-42.15,-34.95,15.67
11333,12.50,9.22,-49.52,147.949,-486.816,1006.836,0.30,-40.50,-38.10,15.38
11343,2.06,7.13,-42.45,34.668,-1282.227,1122.559,0.30,-40.50,-38.10,15.71
11352,-1.92,-1.37,-47.56,5.859,-1148.438,1921.875,1.50,-41.40,-37.35,15.67
11362,-2.52,4.29,-48.33,-53.223,-395.996,737.793,1.80,-39.75,-36.15,15.57
11372,-2.92,-2.56,-56.26,-245.605,-411.621,669.922,1.80,-39.75,-36.15,15.33
11384,-2.84,-6.01,-53.60,113.770,-158.691,1073.242,-0.15,-41.55,-34.80,15.43
11394,2.08,-10.63,-55.14,91.797,-536.621,1439.941,-0.75,-41.55,-34.80,15.43
11404,4.52,-5.51,-34.96,-307.617,-468.262,649.902,-0.75,-39.75,-35.70,15.67
11414,3.18,-0.41,-45.86,-52.734,-677.734,884.766,-0.75,-39.75,-35.70,15.71
11424,-1.85,2.89,-51.18,-50.293,-0.977,1736.816,-0.30,-40.50,-35.70,15.71
11434,15.17,2.52,-39.55,-334.961,-688.965,772.461,-1.20,-42.30,-35.25,15.52
11446,4.50,9.24,-50.56,315.918,-819.336,729.980,-1.20,-42.30,-35.25,15.57
11456,-16.22,-1.53,-49.38,-374.023,-538.574,1999.939,-1.20,-40.35,-36.30,15.86
11466,-18.13,6.40,-39.38,-334.473,-392.090,1948.730,-2.10,-42.00,-34.80,15.71
11476,-5.96,9.63,-49.46,91.797,-139.160,953.613,-3.45,-40.50,-35.40,15.57
11486,-1.06,11.70,-37.83,267.090,-355.469,661.133,-2.10,-41.55,-35.25,15.43
11496,2.98,6.24,-52.19,-177.734,-348.633,1038.574,-2.10,-41.55,-35.25,15.71
11506,4.45,-2.69,-40.89,-354.980,-743.164,696.289,-2.55,-40.95,-34.95,15.76
11518,8.80,5.02,-46.43,75.684,-706.543,1103.516,-3.90,-42.00,-35.55,15.67
11528,-8.87,-3.13,-49.12,-670.410,-529.297,1999.939,-3.90,-42.00,-35.55,15.52
11538,4.02,-4.82,-45.85,-70.313,-633.789,854.492,-1.65,-41.55,-36.00,15.52
11548,3.63,-9.81,-51.95,-205.078,-837.402,1538.086,-4.35,-39.60,-35.25,15.71
11558,9.30,-7.05,-46.66,132.324,-825.684,1196.289,-2.10,-40.80,-34.50,15.43
11568,11.04,-5.25,-45.00,-99.609,-899.414,756.348,-3.75,-42.15,-35.40,15.52
11578,-2.55,-1.19,-45.73,-509.766,-523.437,770.020,-3.75,-42.15,-35.40,15.67
11590,-9.04,0.78,-47.89,-332.520,-26.855,93.750,-3.00,-42.15,-34.65,15.67
11600,-4.29,9.81,-46.64,-5.859,-216.797,821.289,-4.80,-39.90,-35.55,15.57
11610,-2.82,-2.76,-45.69,-93.262,-183.105,1471.191,-4.80,-39.90,-35.55,15.76
11620,-5.33,2.73,-42.24,-151.855,-605.469,1187.500,-5.85,-41.55,-35.55,15.67
11630,10.11,9.70,-46.55,291.992,-758.789,502.930,-5.25,-39.30,-34.20,15.67
11640,-1.95,1.05,-50.98,-29.297,-197.754,931.152,-5.85,-40.35,-33.30,15.23
11652,7.69,1.01,-40.79,290.527,-463.867,678.711,-5.10,-39.90,-36.00,15.67
11662,-3.26,11.19,-51.94,-671.875,-432.129,946.777,-5.10,-39.90,-36.00,15.43
11672,7.58,2.55,-41.26,-196.777,-336.914,1236.328,-6.30,-39.90,-34.80,15.71
11687,5.72,12.20,-43.49,-274.414,-1078.125,513.184,-5.70,-39.30,-34.65,15.52
11696,-5.11,6.64,-48.87,-357.910,-1099.609,722.656,-6.45,-38.55,-35.40,15.57
11706,0.44,11.65,-39.37,-147.949,-1113.770,1940.918,-5.70,-40.20,-34.65,15.43
11716,1.94,7.69,-37.85,-357.422,-1034.180,656.250,-7.05,-40.80,-34.80,15.76
11728,2.29,10.69,-39.51,388.184,-614.258,206.055,-7.05,-38.70,-35.55,15.43
11738,-12.52,10.40,-44.85,99.121,-788.086,1436.523,-7.05,-40.80,-34.05,15.43
11748,-7.13,13.11,-45.42,83.008,-59.082,1319.336,-6.90,-38.25,-35.70,15.38
11758,-3.69,8.66,-48.66,69.824,-404.785,652.832,-6.90,-39.00,-33.90,15.76
11768,4.50,3.81,-45.41,-134.766,-607.422,508.301,-6.90,-39.00,-33.90,15.57
11778,-1.59,0.53,-47.27,48.828,-933.105,801.270,-7.20,-37.80,-34.65,15.67
11790,5.70,0.96,-53.24,7.812,-886.230,1728.516,-7.20,-40.20,-33.90,15.76
11800,3.53,2.21,-56.69,116.699,-168.945,884.277,-7.80,-39.60,-34.05,15.52
11810,7.93,-2.82,-51.13,-340.820,-221.680,979.980,-8.40,-38.25,-33.90,15.43
11820,16.78,5.30,-52.28,-309.570,-769.043,557.129,-8.25,-39.15,-34.50,15.71
11830,1.56,2.88,-46.53,-291.992,-854.492,843.750,-8.25,-37.95,-34.05,15.57
11840,-11.88,-4.21,-52.34,-29.297,-1112.305,1761.230,-9.30,-39.15,-33.30,15.71
11850,1.18,2.27,-59.54,-794.922,-534.180,914.062,-9.30,-39.15,-33.30,15.76
11862,7.43,16.20,-44.90,877.930,-183.105,745.605,-9.00,-38.70,-34.05,15.71
11872,-1.08,0.88,-50.55,-157.715,-52.734,1245.117,-9.75,-38.40,-34.50,15.67
11882,-2.31,-0.56,-58.87,191.406,-1044.922,233.398,-8.55,-37.20,-33.30,15.67
11892,-0.58,-7.55,-60.85,158.691,-323.242,1287.109,-9.30,-38.70,-32.55,15.23
11902,4.04,-0.05,-53.52,-401.367,-475.098,1999.939,-10.05,-38.40,-33.75,15.86
11912,-0.79,-8.47,-51.04,120.605,-927.734,701.660,-9.15,-37.05,-32.70,15.76
11922,3.15,-12.47,-55.40,41.992,-1205.566,361.328,-10.50,-38.40,-33.75,15.76
11935,-7.63,-4.65,-63.50,-446.777,-816.895,1575.684,-10.50,-38.40,-33.75,15.86
11944,-4.41,1.22,-63.27,203.613,-1078.125,299.316,-8.70,-37.35,-33.90,15.71
11954,6.08,-1.07,-51.69,88.867,-709.473,1035.156,-9.60,-37.05,-32.70,15.52
11964,0.47,3.11,-59.68,-543.945,-568.359,794.434,-9.60,-37.05,-32.70,15.76
11974,-3.63,10.92,-47.94,-117.676,-406.738,459.961,-10.65,-38.25,-33.15,15.38
11984,2.41,4.63,-47.53,152.832,-856.445,1077.637,-11.70,-36.75,-33.75,15.67
11996,6.66,5.79,-33.57,141.113,-681.152,645.996,-10.35,-36.60,-34.95,15.38
12006,3.45,7.85,-47.86,-94.727,-497.070,993.652,-10.35,-36.60,-34.95,15.71
12016,-0.45,1.11,-51.94,16.602,-539.551,960.937,-11.85,-36.60,-32.70,15.86
12026,5.67,8.22,-57.36,100.098,-439.453,519.043,-11.25,-35.25,-34.05,15.71
12036,-0.92,0.69,-51.27,84.473,-460.449,752.441,-11.25,-35.25,-34.05,15.76
12046,8.90,-4.17,-55.10,440.430,-1294.434,906.250,-12.00,-36.45,-33.00,15.67
12056,-8.25,-2.36,-49.56,-257.324,-184.082,659.668,-11.40,-35.40,-32.70,15.23
12068,-0.21,0.63,-52.75,-326.660,-219.238,1223.145,-12.45,-36.00,-32.55,15.38
12078,4.11,-1.56,-54.82,-119.141,-797.363,1394.531,-12.45,-33.60,-34.50,15.19
12088,-8.07,-7.52,-58.77,-110.840,-742.676,1226.074,-12.45,-33.60,-34.50,15.57
12098,5.67,-8.21,-57.42,240.234,-733.887,1102.051,-12.60,-36.15,-33.90,15.76
12108,6.20,-11.51,-56.08,282.715,-915.039,810.059,-12.30,-33.45,-33.45,15.43
12118,1.15,-2.22,-46.31,-742.187,-25.879,351.562,-12.30,-33.45,-33.45,15.67
12128,3.08,-1.73,-43.90,-11.719,-702.637,499.023,-13.35,-33.75,-33.45,15.19
12140,0.39,-0.50,-57.52,-52.246,-1043.457,1999.939,-13.20,-34.05,-32.55,15.71
12150,9.74,1.41,-53.37,258.789,-853.027,1169.922,-13.50,-35.25,-33.00,15.23
12160,-10.98,6.41,-51.82,60.547,-570.801,372.070,-13.05,-33.45,-33.15,15.57
12170,-7.21,4.14,-48.24,-495.605,-338.379,1850.098,-13.05,-33.45,-33.15,15.76
12180,1.80,15.52,-44.85,271.484,-917.480,-41.992,-13.50,-33.15,-34.05,15.71
12190,-11.81,0.32,-52.29,-364.258,-118.164,721.191,-14.55,-32.25,-32.40,15.71
12207,5.45,-2.69,-54.00,376.953,-616.699,687.500,-14.85,-33.00,-33.45,15.52
12216,-10.82,-3.44,-53.64,-374.512,76.172,729.492,-13.95,-31.95,-33.75,15.76
12226,1.18,-1.15,-51.98,59.082,-500.488,1127.441,-12.60,-33.45,-33.15,15.57
12236,15.11,-0.50,-49.17,396.973,-774.902,859.863,-15.45,-31.65,-33.00,15.52
12246,-1.46,-5.47,-55.05,-263.672,-209.473,1439.941,-15.45,-31.65,-33.00,15.67
12258,13.53,0.02,-55.28,14.648,-154.297,976.074,-14.70,-31.65,-33.00,15.43
12268,1.10,-4.31,-53.82,53.223,-369.141,1831.543,-14.70,-30.45,-32.25,15.76
12278,2.92,3.07,-53.06,-34.668,-853.516,638.184,-14.70,-30.45,-32.25,15.57
12288,4.21,10.25,-47.92,-106.445,-704.102,651.367,-14.85,-30.60,-32.70,15.76
12298,-0.21,5.05,-51.88,-159.180,157.227,716.309,-13.95,-31.20,-31.50,15.43
12308,3.37,-4.53,-50.65,-237.793,-473.145,1340.332,-14.85,-31.80,-31.95,15.38
12318,-8.80,15.51,-43.08,408.203,-789.062,-43.945,-14.70,-29.55,-32.55,15.67
12330,1.18,16.38,-26.17,372.559,-879.395,809.082,-14.70,-29.55,-32.55,15.43
12340,-6.50,7.70,-49.63,324.707,-530.762,942.383,-15.45,-30.00,-31.50,15.71
12350,-10.20,7.47,-44.44,-123.535,-358.887,1310.059,-14.40,-28.80,-31.50,15.71
12360,2.63,4.67,-59.03,110.840,-790.039,477.539,-14.40,-28.80,-31.50,15.67
12370,14.76,13.82,-39.31,-151.367,115.234,645.996,-13.80,-30.15,-31.95,15.91
12380,8.45,16.43,-50.80,38.574,280.762,638.672,-13.20,-28.80,-30.30,15.23
12389,28.02,5.44,-48.01,505.371,-1199.707,595.703,-13.20,-31.95,-32.25,15.57
12401,18.26,-2.21,-47.37,-853.516,-1493.164,1999.939,-15.15,-28.35,-30.75,15.86
12411,0.28,5.10,-48.42,-794.434,-667.480,655.762,-15.15,-28.35,-30.75,15.76
12421,4.00,-2.54,-50.67,-1083.984,-1170.898,1999.939,-14.85,-28.65,-31.65,15.71
12431,1.63,-6.25,-48.20,425.293,-709.961,484.375,-13.50,-28.35,-30.75,15.52
12441,5.68,-9.79,-57.95,-23.437,-666.992,1881.348,-13.50,-28.35,-30.75,15.71
12451,12.69,-15.68,-38.69,66.895,-18.066,1999.939,-14.55,-29.85,-30.45,15.38
12463,6.95,-18.87,-48.24,-625.977,-592.773,1999.939,-13.95,-28.05,-29.10,15.76
12473,3.98,-24.61,-46.08,34.668,-1304.199,255.859,-15.75,-30.60,-27.15,15.43
12483,9.77,-22.24,-47.56,165.527,-896.973,1232.422,-15.45,-29.25,-29.10,15.33
12493,-1.95,-34.57,-43.99,-501.953,-496.094,1999.939,-15.45,-29.25,-29.10,15.76
12503,-10.14,-25.76,-54.87,1294.922,-1419.434,-362.793,-16.80,-28.20,-29.70,15.57
12513,-29.05,-34.38,-55.23,-557.129,354.492,845.215,-16.80,-27.45,-28.95,15.57
12523,-14.89,-23.32,-47.77,429.687,-711.914,1999.939,-16.80,-27.45,-28.95,15.52
12535,-18.16,-21.70,-60.09,-481.934,658.691,1097.656,-18.15,-25.95,-29.10,15.52
12545,-6.99,-32.11,-57.63,389.160,-482.422,663.086,-18.15,-25.95,-27.60,15.57
12555,-12.59,-16.85,-55.86,-579.102,-527.832,1301.758,-18.75,-28.95,-28.65,15.33
12565,-16.92,-14.53,-54.21,631.348,-1590.332,41.504,-18.15,-28.05,-29.10,15.57
12575,4.29,-2.09,-53.97,-693.359,248.047,1422.363,-18.15,-28.05,-29.10,15.86
12585,13.40,-12.34,-45.39,409.180,-750.488,-11.719,-18.60,-28.05,-27.60,15.76
12597,23.16,1.21,-50.11,851.074,-647.949,883.789,-20.10,-27.15,-28.05,15.52
12607,21.15,-10.13,-80.53,-351.074,968.750,1999.939,-17.55,-27.75,-27.45,15.67
12617,61.60,-8.08,-43.56,689.453,-1127.930,630.371,-20.85,-26.40,-29.55,15.76
12627,10.60,1.34,-42.22,-296.875,-767.090,17.090,-19.20,-25.05,-27.15,15.71
12637,18.48,7.25,-33.18,128.906,-1813.477,570.312,-18.90,-25.95,-28.35,15.23
12647,10.90,13.37,-47.45,161.133,-322.754,1520.020,-18.90,-25.95,-28.35,15.67
12657,3.56,0.56,-40.44,-540.527,-1071.777,1999.939,-18.90,-24.00,-31.50,15.76
12668,-9.61,11.62,-62.24,-650.879,-385.254,326.172,-19.35,-25.20,-30.30,15.67
12678,15.03,14.44,-62.91,-62.012,-286.133,1999.939,-19.35,-25.20,-30.30,15.52
12688,6.02,0.01,-47.63,568.359,-1140.625,621.582,-19.20,-24.30,-29.40,15.76
12698,-2.96,1.56,-53.44,142.090,-771.973,1481.934,-19.50,-24.30,-29.70,15.71
12708,-7.95,-7.96,-57.84,343.750,-1276.855,-133.789,-19.50,-24.30,-30.45,15.33
12723,-8.41,-2.54,-56.02,-320.801,-121.094,1157.715,-18.60,-25.65,-29.10,15.86
12732,4.56,-5.42,-57.87,-7.812,-1092.773,1704.102,-19.65,-25.95,-30.30,15.76
12744,14.15,-3.48,-57.28,253.906,-758.789,852.051,-19.95,-23.85,-31.20,15.57
12754,10.61,-16.42,-65.54,488.281,-1054.688,1281.738,-20.70,-25.05,-29.40,15.76
12764,19.40,3.01,-65.05,-611.328,-312.012,1089.355,-20.70,-25.05,-29.40,15.67
12774,-4.97,-8.46,-70.14,588.379,-1311.523,944.336,-20.55,-24.00,-30.30,15.38
12784,-2.29,-1.07,-55.36,-134.766,-1132.324,659.668,-20.25,-23.40,-28.65,15.67
12794,-20.18,-13.04,-61.82,-113.281,-902.344,1999.939,-21.45,-24.60,-29.70,15.71
12804,1.18,1.42,-49.95,315.918,-1113.770,339.355,-21.00,-23.10,-30.15,15.71
12816,-2.28,-1.48,-57.01,185.547,-1146.484,455.566,-21.45,-25.05,-28.65,15.67
12826,4.80,3.11,-55.87,-651.367,-714.844,1900.879,-19.95,-22.20,-28.95,15.67
12836,-0.29,-1.95,-55.04,-54.199,-747.070,1185.547,-19.95,-22.20,-28.95,15.57
12846,7.21,-2.06,-52.75,183.105,-928.223,322.266,-21.90,-23.85,-30.15,15.76
12856,-4.34,1.95,-52.65,-548.340,-322.266,862.305,-20.55,-21.30,-28.05,15.43
12866,-6.67,4.76,-51.27,557.617,-1196.289,1639.648,-21.00,-21.30,-28.05,15.57
12879,-2.31,-7.40,-44.27,-145.996,-593.262,1999.939,-20.85,-21.60,-30.75,15.38
12888,-1.99,2.47,-54.57,-111.328,-470.215,752.930,-20.25,-21.90,-29.40,15.71
12898,10.94,3.52,-48.81,-34.180,-146.484,-263.184,-20.70,-23.85,-28.65,15.76
12908,23.60,-0.97,-51.11,179.687,-1097.656,1896.484,-20.10,-20.85,-29.55,15.57
12918,28.51,0.21,-44.95,19.531,-946.777,1180.664,-20.10,-20.85,-29.55,15.71
12928,12.29,-5.76,-43.54,-445.312,-545.410,1999.939,-20.70,-22.65,-28.20,15.71
12938,19.22,4.38,-55.68,410.645,-984.375,331.055,-21.30,-20.10,-28.80,15.52
12950,11.73,-3.93,-52.10,341.797,-1417.480,395.508,-21.30,-20.10,-28.80,15.57
12960,-2.70,-0.90,-54.83,-206.543,-266.113,765.137,-22.35,-20.10,-28.05,15.52
12970,3.70,-13.55,-57.08,233.887,-893.066,1475.586,-21.45,-17.40,-28.65,15.71
12980,6.74,-2.22,-56.97,-542.480,-242.187,942.871,-22.35,-20.40,-28.05,15.86
12990,2.28,-13.18,-53.00,-24.902,-307.129,1999.939,-21.90,-21.00,-29.70,15.57
13000,4.63,-9.25,-54.24,216.309,-670.410,432.617,-21.90,-21.00,-29.70,15.57
13012,14.30,-16.21,-52.98,218.750,-631.836,-457.031,-21.90,-19.80,-28.65,15.67
13022,-2.77,0.34,-57.22,-58.594,93.750,-262.695,-23.70,-17.85,-29.70,15.86
13032,-8.63,-16.05,-34.10,488.770,-1227.051,-70.801,-23.70,-17.85,-29.70,15.71
13042,-13.85,4.28,-45.92,-224.121,30.762,1178.223,-22.20,-19.80,-28.95,15.38
13052,-20.52,-1.82,-50.32,429.687,-991.211,928.223,-22.65,-18.30,-30.15,15.76
13062,-4.93,10.21,-35.94,-326.172,-70.313,1102.051,-20.85,-18.00,-29.85,15.67
13072,-13.58,10.53,-36.47,-36.621,-374.023,1999.939,-22.05,-18.45,-28.35,15.67
13084,-3.85,8.37,-46.95,-694.824,450.195,1020.996,-22.05,-18.45,-28.35,15.67
13094,9.21,8.92,-41.25,372.070,-927.246,385.254,-22.65,-18.30,-28.20,15.76
13104,4.00,10.04,-48.78,-250.488,497.559,772.461,-22.35,-20.40,-28.80,15.71
13114,30.37,-3.73,-41.95,468.262,-932.617,1127.930,-22.35,-20.40,-28.80,15.86
13124,18.82,-6.70,-40.31,395.020,-1242.188,1180.176,-21.30,-18.00,-28.35,15.52
13134,1.92,-3.79,-49.85,-211.426,-477.539,635.742,-22.20,-18.60,-28.20,15.76
13146,-8.19,-8.73,-39.98,-556.641,359.375,1818.848,-21.90,-16.65,-30.15,15.23
13156,3.58,-10.99,-37.39,98.145,-872.559,591.309,-21.90,-16.65,-30.15,15.67
13166,9.89,0.63,-43.78,-603.027,512.695,336.426,-21.90,-16.65,-30.15,15.76
13176,21.11,-17.69,-28.46,841.797,-787.109,721.680,-21.60,-14.85,-29.55,15.71
13186,15.11,-6.20,-29.48,-124.512,-413.574,334.961,-21.60,-14.85,-29.55,15.71
13196,-10.34,-9.08,-26.53,114.258,-1029.297,853.027,-21.60,-14.85,-29.55,15.43
13206,-9.82,-3.89,-31.22,-618.652,575.195,1358.887,-22.80,-14.85,-28.80,15.67
13218,-16.18,1.66,-22.20,-467.773,599.609,1299.316,-22.65,-17.40,-29.40,15.33
13228,-15.31,-5.98,-27.92,515.625,-600.586,867.187,-22.95,-16.65,-30.45,15.43
13243,-12.15,8.89,-27.98,-565.430,240.723,1286.133,-22.95,-16.65,-30.45,15.86
13252,-16.66,9.41,-30.43,205.078,-895.508,970.703,-22.20,-17.10,-28.65,15.86
13262,-1.50,7.01,-26.47,-244.629,64.941,888.184,-22.05,-16.05,-29.85,15.76
13272,-3.34,3.74,-39.15,-178.711,-436.035,1999.939,-22.05,-16.05,-29.85,15.52
13284,-6.82,-1.66,-35.44,167.969,-515.137,1833.008,-23.25,-18.45,-29.55,15.67
13294,3.76,0.31,-24.71,481.934,-763.184,328.613,-21.00,-17.10,-31.20,15.33
13304,-14.03,-1.00,-38.44,-761.230,290.039,1086.426,-21.60,-16.05,-30.75,15.76
13314,-1.85,-8.81,-28.52,738.770,-1112.793,1068.359,-21.90,-17.40,-30.15,15.67
13324,-14.66,2.89,-38.19,-161.621,-105.469,646.973,-21.90,-17.40,-30.15,15.67
13334,-7.97,-11.66,-32.24,-95.215,-776.855,998.047,-22.20,-15.90,-30.90,15.76
13346,0.43,-7.26,-34.64,91.797,164.551,798.828,-21.90,-17.40,-30.90,15.76
13356,19.92,0.45,-31.44,-140.625,-229.492,227.051,-21.90,-17.40,-30.90,15.76
13366,20.78,-8.29,-26.41,638.184,-1254.395,132.812,-20.85,-17.25,-29.55,15.52
13376,20.37,-0.88,-29.51,-893.066,128.906,797.363,-20.70,-17.10,-30.45,15.57
13386,18.58,-12.44,-35.20,409.668,-1724.121,1081.055,-22.35,-15.60,-30.30,15.67
13396,8.66,6.08,-25.50,-495.117,-171.875,823.242,-20.85,-16.05,-28.05,15.86
13406,-7.98,-2.19,-28.14,145.996,-638.184,1999.939,-20.85,-16.05,-28.05,15.57
13418,-30.76,1.62,-16.94,436.035,-503.418,1999.939,-22.05,-13.20,-29.10,15.86
13428,-1.30,-3.65,-31.40,-305.176,285.645,1166.504,-22.05,-13.20,-29.10,15.71
13438,-11.85,-2.66,-19.54,273.926,-472.656,1106.934,-22.80,-13.20,-28.80,15.71
13448,-6.36,8.04,-31.47,-333.984,94.238,1015.625,-21.90,-14.70,-28.95,15.67
13458,-6.09,0.38,-19.79,244.141,-581.543,1430.664,-21.90,-16.20,-29.70,15.43
13468,-0.60,10.50,13.89,8.789,115.234,1527.344,-21.30,-12.90,-30.30,15.67
13480,8.80,16.01,-13.23,-540.039,-74.219,1606.445,-21.30,-12.90,-30.30,15.43
13490,-5.13,5.75,-14.72,598.145,-636.719,1999.939,-21.90,-16.20,-30.45,15.71
13500,5.66,2.73,-40.35,-92.285,-549.805,318.359,-22.05,-12.15,-31.05,15.67
13510,-19.79,5.48,-19.55,-51.270,-293.945,1899.414,-22.05,-12.15,-31.05,15.67
13520,1.03,0.45,-31.31,260.254,-422.363,38.086,-20.70,-14.70,-28.95,15.57
13530,-16.44,3.66,-22.05,65.918,188.965,1940.918,-22.20,-10.65,-28.95,15.38
13540,16.95,-6.11,-28.02,356.445,4.395,718.262,-20.10,-11.70,-28.35,15.33
13552,20.52,-0.60,-29.50,-47.852,-172.852,637.695,-21.00,-13.05,-28.95,15.38
13562,-2.42,-21.77,-24.91,-186.035,-45.898,1999.939,-21.00,-13.05,-28.95,15.57
13572,19.55,-7.81,-22.94,243.652,-264.160,1233.398,-20.85,-14.10,-28.35,15.67
13582,1.18,-13.62,-12.63,428.223,-1132.813,1653.320,-21.30,-14.85,-28.80,15.71
13592,3.12,-12.34,-11.95,-495.117,56.152,980.469,-21.30,-14.85,-28.80,15.57
13602,-13.53,-16.65,-16.91,794.922,-928.223,1999.939,-22.35,-12.15,-29.85,15.52
13612,2.31,-1.80,-8.37,-461.426,452.148,1377.441,-21.30,-12.45,-29.85,15.52
13624,7.54,1.74,-27.28,-172.363,278.809,1368.164,-22.35,-12.15,-29.55,15.76
13634,4.06,-3.94,-16.92,188.477,-836.914,1989.258,-21.90,-13.05,-30.15,15.43
13644,2.39,4.69,-25.17,-31.250,-187.012,1155.762,-21.90,-13.05,-30.15,15.38
13654,-6.50,6.86,-60.91,-54.199,-1002.441,517.578,-22.05,-12.45,-30.75,15.67
13664,-29.26,-8.00,-13.57,-311.523,479.980,1135.254,-21.60,-12.45,-30.75,15.67
13674,3.67,-1.27,-15.25,-110.352,-288.086,363.770,-21.60,-12.45,-30.75,15.76
13686,7.37,-2.27,-24.45,125.977,-690.918,299.805,-22.65,-11.10,-31.20,15.86
13696,-5.60,0.09,-25.40,235.352,495.117,1493.652,-22.20,-11.10,-31.20,15.67
13706,8.50,-2.45,-17.41,162.598,-400.879,834.961,-21.30,-12.45,-31.50,15.71
13716,-8.56,0.65,-13.21,-486.816,-412.109,1775.391,-20.85,-10.95,-31.50,15.76
13726,7.71,-7.36,-28.99,239.258,-684.570,914.551,-20.85,-10.95,-31.50,15.52
13736,2.39,-5.22,-26.94,86.426,-4.395,1293.945,-19.95,-12.30,-31.65,15.76
13746,10.23,-13.63,-17.08,-452.148,-67.383,1028.320,-21.30,-10.05,-31.80,15.76
13763,12.18,-3.73,-19.97,-454.102,-236.328,1119.141,-20.25,-10.35,-30.45,15.67
13772,6.82,0.08,-25.52,20.020,-1021.973,444.824,-20.55,-10.05,-29.85,15.67
13782,-10.95,-1.44,-17.69,-282.715,-9.766,1272.461,-21.90,-9.45,-30.15,15.57
13792,-6.31,2.87,-26.28,226.562,-977.539,951.660,-21.00,-10.35,-29.70,15.43
13802,-14.03,6.91,-20.05,-364.258,-184.082,775.391,-20.85,-12.15,-31.50,15.52
13812,-7.45,4.53,-25.43,118.164,-672.852,620.605,-20.70,-9.15,-30.15,15.67
13822,-13.63,10.02,-17.02,152.832,199.707,1506.836,-20.25,-11.10,-29.70,15.71
13835,-13.14,-5.27,-22.28,-247.070,-643.555,1823.730,-20.25,-11.10,-29.70,15.86
13844,6.47,-3.15,-46.95,-233.887,-170.898,949.219,-18.90,-11.25,-32.25,15.71
13854,-2.08,-0.77,-36.43,494.629,-1049.805,1999.939,-18.90,-12.15,-31.05,15.76
13864,0.61,0.99,-29.72,-144.043,-173.828,1232.910,-19.65,-11.70,-31.05,15.52
13874,-6.03,-9.36,-45.91,-133.789,-1024.414,868.652,-19.50,-10.35,-31.20,15.67
13884,4.59,10.68,-25.83,-641.602,-171.875,1407.715,-19.50,-10.35,-30.45,15.38
13894,-1.31,-2.14,-30.83,556.152,-1199.219,1999.939,-20.85,-12.45,-30.75,15.76
13906,-9.78,7.50,-32.82,194.824,-1164.551,764.160,-20.70,-9.15,-30.90,15.76
13916,-4.47,5.60,-38.78,-372.559,255.859,704.590,-20.70,-9.15,-30.90,15.43
13926,6.14,8.54,-34.60,403.809,-591.309,1999.939,-19.20,-11.85,-30.90,15.67
13936,17.70,4.76,-48.20,-246.582,-453.125,500.000,-20.70,-8.70,-30.90,15.67
13946,11.76,6.80,-31.60,135.254,-826.660,661.133,-18.60,-9.75,-31.05,15.38
13956,-14.26,-7.07,-46.89,-48.340,-708.008,1395.020,-18.60,-10.05,-29.55,15.76
13969,-15.67,-8.40,-22.37,-4.883,-649.902,1090.332,-18.75,-8.25,-30.45,15.33
13978,9.30,1.27,-40.86,27.344,-50.293,279.297,-19.35,-10.05,-30.30,15.43
13988,6.75,-4.87,-26.08,520.508,-1449.219,870.117,-19.35,-10.05,-30.30,15.67
13998,-5.52,-0.18,-40.98,-243.652,88.867,1118.652,-18.60,-8.10,-31.05,15.71
14008,10.34,-16.18,-34.88,-103.516,-1464.355,760.254,-19.20,-8.25,-29.40,15.71
14018,0.48,3.32,-24.30,-11.719,-190.430,1342.285,-19.20,-9.45,-31.20,15.57
14028,9.82,-1.40,-36.50,-48.828,-1012.695,361.328,-18.45,-7.50,-30.15,15.43
14040,-7.40,12.47,-30.50,-431.641,-123.047,797.363,-18.75,-8.25,-30.90,15.86
14050,-6.95,6.65,-36.85,292.480,-804.687,1427.734,-18.00,-8.25,-30.15,15.52
14060,-13.11,16.98,-42.12,-159.180,-309.570,913.086,-16.80,-5.85,-29.70,15.76
14070,-7.08,4.16,-42.11,99.609,-919.922,1354.980,-16.80,-5.85,-29.70,15.86
14080,-1.29,5.31,-43.19,68.359,-464.355,1131.348,-18.00,-9.15,-29.40,15.67
14090,4.55,-2.56,-40.93,277.344,-718.262,1758.789,-18.00,-7.50,-30.15,15.71
14102,7.06,-6.47,-33.71,173.340,-319.824,563.477,-18.00,-7.50,-30.15,15.67
14112,7.40,-1.79,-41.31,52.246,296.875,261.230,-17.55,-9.45,-31.65,15.67
14122,12.37,-7.25,-43.69,40.527,-1170.898,1603.027,-19.20,-8.25,-31.65,15.71
14132,-8.67,-0.05,-32.23,-295.898,-1275.391,222.656,-16.80,-8.25,-30.90,15.43
14142,-9.38,10.15,-44.63,-163.574,35.156,766.113,-17.55,-7.95,-30.90,15.71
14152,-7.96,-11.17,-40.86,341.797,-1558.594,1853.027,-17.55,-7.95,-30.90,15.67
14162,-17.46,2.05,-64.85,-336.914,-211.426,776.367,-17.40,-7.35,-31.80,15.67
14174,-16.15,0.71,-35.69,-360.840,205.566,1999.939,-18.15,-7.65,-30.75,15.67
14184,6.08,-5.18,-38.34,167.480,-820.801,199.219,-18.15,-7.65,-30.75,15.86
14194,0.39,-2.32,-33.19,-480.957,-288.086,411.621,-16.65,-6.15,-31.50,15.52
14204,7.85,-5.65,-42.27,-169.922,-707.520,28.320,-16.65,-7.35,-30.75,15.76
14214,-0.05,-7.02,-57.54,12.695,-657.227,1999.939,-16.65,-6.45,-30.30,15.67
14224,3.82,2.39,-32.57,33.691,-833.496,692.871,-16.50,-4.65,-30.90,15.67
14234,0.00,2.95,-42.32,359.375,-958.984,918.457,-16.50,-4.65,-30.90,15.67
14245,0.08,4.34,-45.93,477.051,-575.195,1706.543,-16.65,-6.15,-29.85,15.67
14255,-4.38,-5.82,-45.44,-429.687,-647.949,1308.594,-15.75,-6.30,-31.95,15.71
14265,9.75,-2.46,-34.50,337.891,-928.223,1052.246,-15.75,-6.30,-31.95,15.57
14280,-7.42,9.82,-36.69,34.668,-831.543,619.141,-15.30,-4.65,-31.20,15.71
14289,-7.34,-15.52,-53.15,243.164,-1143.066,477.051,-15.75,-6.30,-29.70,15.67
14301,-3.63,-10.40,-46.27,447.754,-583.008,949.219,-15.45,-6.15,-29.85,15.76
14311,0.63,-12.15,-47.40,-148.437,-706.543,1214.844,-15.45,-6.15,-29.85,15.86
14321,2.95,-9.80,-47.90,303.711,-35.156,1143.555,-15.30,-3.45,-29.40,15.86
14331,8.78,-11.50,-43.29,-385.254,-221.191,1055.176,-15.15,-5.25,-28.35,15.86
14341,-0.65,-4.84,-35.05,-378.418,-652.832,392.090,-15.15,-5.25,-28.35,15.76
14351,9.88,-5.44,-46.31,-351.074,-814.941,-364.746,-14.70,-3.30,-30.30,15.33
14361,-2.01,-5.21,-42.27,-36.621,-1269.043,1810.059,-16.80,-3.45,-30.15,15.57
14373,7.71,-4.13,-42.45,287.109,-1427.246,570.312,-16.05,-5.55,-30.45,15.43
14383,-12.98,8.34,-48.13,-543.457,254.883,1357.422,-15.45,-2.55,-29.85,15.76
14393,2.17,-5.35,-40.26,-86.914,-936.523,65.918,-15.45,-2.55,-29.85,15.67
14403,-3.15,1.49,-39.25,-316.895,-312.988,706.543,-15.30,-4.65,-31.65,15.71
14413,-3.69,4.47,-39.44,-36.621,-572.754,-243.652,-14.85,-3.45,-30.90,15.71
14423,10.11,-9.16,-40.51,451.172,-412.598,1712.891,-14.85,-3.45,-30.90,15.67
14435,6.59,-4.54,-35.21,285.645,-795.410,1587.402,-15.30,-4.35,-31.65,15.76
14445,3.98,6.82,-32.44,-321.777,-229.492,947.754,-14.55,-3.15,-31.65,15.71
14455,-9.84,-3.65,-50.75,877.930,-1264.648,1612.793,-14.70,-3.30,-30.30,15.43
14465,-14.32,-0.82,-57.07,-246.582,-11.230,1029.785,-13.20,-4.05,-31.05,15.76
14475,-4.01,-8.64,-41.85,-40.527,-809.570,-47.363,-13.20,-4.05,-31.05,15.71
14485,10.30,8.61,-44.44,87.402,-247.070,582.031,-13.20,-0.90,-30.30,15.76
14495,8.13,-0.49,-45.51,-165.527,-1122.070,281.738,-13.50,-4.50,-29.85,15.86
14507,4.85,3.94,-43.81,-56.152,-110.840,867.187,-13.50,-4.50,-29.85,15.76
14517,10.71,-7.73,-43.74,201.660,-1416.016,1999.939,-13.05,-2.25,-30.45,15.67
14527,-7.53,10.97,-44.80,-303.223,-420.410,219.727,-14.40,-2.55,-29.10,15.76
14537,5.95,-0.66,-46.76,325.195,-1158.203,91.797,-13.35,-3.90,-30.90,15.43
14547,-8.97,-7.37,-46.88,-227.539,-6.836,1999.939,-13.35,-1.05,-30.90,15.57
14557,-1.76,-4.15,-49.66,-151.855,-555.664,452.637,-13.35,-1.05,-30.90,15.86
14567,-4.93,-4.77,-38.79,240.723,-885.254,1486.328,-13.05,-4.65,-31.65,15.71
14579,5.29,-5.66,-51.40,108.398,-595.215,1847.168,-12.45,-1.65,-31.80,15.86
14589,7.28,-1.27,-43.69,-333.496,-253.906,1547.852,-11.40,-3.45,-31.20,15.57
14599,7.43,4.80,-46.72,-115.723,-116.211,1391.602,-12.00,-1.35,-32.25,15.67
14609,7.38,6.49,-43.15,524.902,-938.477,1119.141,-11.40,-1.95,-32.40,15.71
14619,-17.82,5.98,-56.50,264.648,-818.359,63.965,-12.30,-3.15,-31.65,15.43
14629,-14.33,-9.39,-41.37,113.281,-778.320,418.457,-12.30,-3.15,-31.65,15.86
14641,-7.73,-6.82,-43.76,297.363,-662.598,1429.688,-10.95,-1.65,-30.30,15.38
14651,-10.89,-4.83,-55.28,-384.277,94.727,711.426,-11.25,-2.85,-31.80,15.86
14661,15.72,-9.54,-54.27,-194.824,-1002.930,94.238,-11.25,-2.85,-31.80,15.67
14671,11.82,-5.86,-66.09,115.723,353.027,718.262,-12.45,-0.15,-31.05,15.67
14681,21.22,-2.82,-39.57,-367.676,-858.887,1304.688,-11.10,-1.05,-31.65,15.52
14691,7.08,9.15,-54.44,-6.836,-796.875,548.828,-10.95,-1.35,-31.05,15.43
14701,5.89,0.32,-45.92,-82.520,-504.395,457.031,-12.00,-1.35,-31.50,15.38
14713,-11.86,6.82,-58.45,50.781,-616.699,51.270,-12.00,-1.35,-31.50,15.57
14723,-3.91,-8.10,-50.10,176.758,-971.191,-122.559,-11.25,-1.35,-30.75,15.38
14733,-28.40,-9.64,-46.56,-258.789,355.957,1959.473,-11.70,0.15,-30.75,15.71
14743,-1.50,6.00,-46.01,83.008,-179.687,194.824,-11.70,0.15,-30.75,15.76
14753,-8.82,1.03,-46.76,-453.613,-72.266,820.312,-10.35,-2.25,-31.20,15.71
14763,12.59,4.63,-43.67,-395.020,-608.887,1425.293,-10.05,-1.65,-32.25,15.76
14773,-0.16,-1.60,-45.38,118.652,-665.039,1999.939,-9.90,-0.75,-31.95,15.23
14786,11.89,5.11,-50.51,250.488,-1087.402,376.953,-10.05,0.15,-31.80,15.76
14808,-10.36,7.18,-44.54,-20.996,-429.687,1117.188,-9.30,0.45,-32.55,15.71
14817,-11.30,4.05,-40.87,-386.719,-476.562,519.043,-8.55,-0.15,-32.25,15.67
14827,-6.82,3.83,-45.07,-281.738,122.559,1516.113,-8.55,-0.15,-32.25,15.33
14837,-3.31,1.45,-49.37,-7.812,-793.457,1083.984,-8.25,0.90,-32.25,15.76
14847,8.05,-2.99,-45.66,-63.965,-563.965,1000.000,-7.35,0.15,-33.00,15.71
14857,14.00,-4.03,-50.35,-277.832,-518.066,1135.254,-7.20,0.75,-32.40,15.86
14869,3.40,-11.01,-50.44,-30.762,-670.410,1341.309,-7.35,0.45,-32.25,15.76
14879,-1.08,-11.40,-45.70,-142.090,-425.781,1502.441,-7.20,0.75,-31.95,15.71
14889,8.17,-2.04,-45.09,-64.453,-342.285,593.750,-6.90,1.95,-32.40,15.76
14899,1.31,-5.47,-53.64,-596.191,-542.969,775.879,-6.90,1.95,-32.40,15.57
14909,3.22,-0.86,-38.00,-56.152,-513.672,860.840,-7.35,1.35,-33.00,15.43
14919,5.09,1.28,-51.55,121.094,-697.754,1140.137,-7.35,0.90,-32.55,15.86
14931,16.24,4.19,-58.60,208.496,-667.969,575.684,-6.90,3.15,-33.45,15.76
14941,15.74,3.98,-39.25,-278.809,-895.996,1486.816,-6.90,1.05,-32.40,15.86
14951,6.41,5.72,-45.67,-411.133,-759.766,1470.215,-6.90,1.05,-32.40,15.71
14961,5.09,1.88,-41.69,-151.367,-564.453,1789.551,-5.55,0.90,-32.55,15.76
14971,-4.44,6.92,-41.02,-250.977,-363.281,1220.703,-5.55,1.65,-33.00,15.52
14981,-4.52,2.70,-44.27,57.617,-621.094,706.055,-5.55,1.65,-33.00,15.52
14991,-8.44,0.18,-34.61,-63.965,-472.168,1068.848,-5.10,1.65,-33.75,15.86
15003,-6.19,1.77,-40.83,-208.008,-470.703,915.527,-6.30,2.10,-33.00,15.38
15013,-0.23,-2.08,-48.70,-226.562,-8.301,1028.809,-5.70,1.05,-32.70,15.57
15023,12.64,-6.98,-34.91,-30.273,-852.539,1279.297,-5.85,2.55,-34.05,15.67
15033,12.27,-3.02,-47.16,-380.859,-420.898,547.852,-5.85,2.55,-34.05,15.71
15043,10.99,-3.27,-42.77,-451.660,-1043.945,834.473,-4.95,1.50,-33.45,15.86
15053,-0.29,2.74,-41.84,-305.664,-763.184,1316.895,-4.95,2.70,-34.20,15.67
15063,0.95,6.57,-47.43,-82.520,-990.723,822.754,-4.95,2.70,-34.20,15.57
15075,5.02,4.89,-43.17,-12.695,-642.090,716.309,-4.80,1.35,-34.80,15.71
15085,-7.20,1.72,-38.26,-118.164,-129.395,1999.939,-4.20,1.50,-34.65,15.38
15095,4.11,-3.37,-40.73,-40.527,-642.090,1312.500,-3.00,1.50,-35.70,15.76
15105,2.15,-0.26,-40.69,-332.031,-300.293,1322.754,-2.55,1.50,-34.95,15.76
15115,2.09,-0.86,-39.85,-72.754,-1048.828,942.383,-2.55,1.50,-34.95,15.38
15125,-1.10,-5.21,-37.11,-52.734,-377.441,1253.418,-3.60,1.35,-34.80,15.86
15135,4.85,-13.93,-38.76,-149.414,-1015.625,1241.699,-3.00,1.95,-35.40,15.71
15147,5.10,-19.56,-41.43,-134.766,-745.605,1434.570,-3.00,1.95,-35.40,15.76
15157,2.50,-5.68,-38.65,-418.457,-249.023,1268.066,-3.00,1.05,-33.90,15.71
15167,0.83,-2.61,-36.51,-189.453,-621.582,1455.078,-3.90,2.10,-35.25,15.57
15177,-1.13,-4.98,-32.36,106.445,-556.152,1134.766,-2.85,2.55,-35.25,15.71
15187,-7.77,-11.36,-37.69,-275.879,-313.477,893.066,-2.85,0.90,-37.05,15.52
15197,-2.10,-5.31,-50.66,-15.137,-154.785,1153.809,-2.85,0.90,-37.05,15.76
15209,-1.33,-4.49,-44.60,-143.066,-400.879,683.594,-0.75,1.05,-36.15,15.76
15219,-5.79,-1.82,-38.60,-233.887,-313.477,886.719,-0.75,1.05,-36.15,15.71
15229,5.11,-1.27,-41.60,-72.754,-297.852,995.605,0.75,1.50,-36.15,15.67
15239,9.08,-0.33,-45.92,-124.023,11.719,697.266,-0.30,2.25,-33.45,15.86
15249,11.80,3.24,-31.75,78.613,-887.207,996.582,-0.30,2.25,-33.45,15.38
15258,5.15,10.20,-37.05,-145.020,-258.301,249.512,0.30,1.95,-34.20,15.67
15268,5.60,0.18,-35.49,-111.328,-940.430,878.418,0.45,2.55,-34.80,15.67
15280,-4.22,2.47,-34.88,-58.105,-517.578,1135.742,-0.75,1.50,-33.90,15.86
15290,-9.93,-1.33,-40.34,-167.480,-884.766,1493.652,0.30,2.70,-33.15,15.52
15300,-6.94,7.10,-42.97,100.586,-264.160,472.168,0.30,2.70,-33.15,15.76
15309,-2.80,0.41,-34.55,-557.617,166.504,1441.406,0.30,2.70,-33.15,15.52
15325,13.77,12.57,-40.90,-257.324,-500.488,464.844,-0.15,1.65,-33.30,15.86
15334,16.76,5.93,-35.29,-1.465,-491.211,424.316,-0.90,2.55,-33.30,15.67
15344,14.28,5.09,-37.81,-19.043,-1332.520,1003.906,-0.45,1.65,-34.05,15.76
15354,-8.38,12.76,-33.32,-210.937,-782.227,1821.289,-0.45,2.10,-33.75,15.71
15366,-25.05,7.04,-49.60,-211.426,-347.656,1999.939,0.75,3.15,-33.45,15.86
15376,-41.40,2.63,-42.38,-91.797,-380.859,1966.797,0.75,1.50,-32.70,15.76
15386,-13.95,-8.70,-42.67,-386.230,68.359,1035.645,0.75,1.50,-32.70,15.38
15396,-15.34,3.39,-37.37,-9.766,-289.062,931.641,1.50,1.50,-33.45,15.71
15406,-15.11,-1.94,-36.19,-51.758,-225.098,1076.660,2.10,1.65,-32.25,15.67
15416,-2.82,1.11,-35.18,46.387,274.902,596.680,0.75,1.95,-32.70,15.71
15425,6.15,-0.62,-42.56,122.559,-568.848,627.930,1.05,1.05,-33.45,15.67
15436,-7.46,-11.89,-40.74,-274.902,-249.512,1114.746,1.20,1.65,-33.30,15.57
15446,-27.52,-7.21,-31.86,-475.586,83.496,1518.066,1.65,1.65,-33.30,15.38
15456,-22.91,-0.50,-41.88,406.738,212.402,575.684,2.40,0.90,-33.75,15.67
15466,4.91,-22.84,-22.39,-118.164,-323.242,1999.939,2.40,0.90,-33.75,15.71
15476,2.72,-5.34,-38.31,-1151.855,270.020,-490.234,3.15,0.15,-32.55,15.57
15486,9.20,-24.66,-31.38,-520.996,-66.406,391.113,3.15,-0.15,-33.00,15.67
15496,0.31,-11.90,-35.73,-289.062,-41.992,1059.570,2.40,1.35,-33.30,15.57
15508,18.02,-8.89,-30.85,85.938,-474.609,562.988,1.80,0.00,-33.45,15.57
15518,19.91,-18.41,-37.89,109.863,-1225.586,1748.535,2.25,0.30,-34.20,15.33
15527,-3.86,-11.96,-39.00,-259.277,-962.891,642.578,1.20,0.90,-32.55,15.67
15537,-11.16,-15.05,-47.20,74.707,88.379,1249.512,2.85,2.10,-33.75,15.52
15546,-3.60,-30.24,-35.20,25.879,-1510.254,1301.758,2.85,2.10,-33.75,15.71
15556,-23.69,-18.98,-45.27,40.527,25.879,448.242,2.25,1.95,-33.45,15.43
15568,3.34,-23.50,-48.63,-78.613,-778.320,1068.359,1.50,0.75,-31.65,15.86
15578,-2.88,-18.99,-45.11,62.988,-836.914,706.055,0.75,1.50,-33.15,15.38
15588,-5.44,-28.42,-45.36,-256.836,-1312.988,1187.012,2.55,0.30,-33.15,15.86
15598,-14.92,-26.38,-45.83,-669.922,-683.594,1091.797,2.85,0.90,-33.00,15.71
15608,-13.18,-11.44,-38.38,-76.660,-923.340,886.719,0.90,1.35,-33.00,15.43
15618,-23.13,-15.76,-45.35,-269.531,-352.051,522.949,1.65,1.65,-34.50,15.86
15628,-22.77,-17.89,-47.76,-299.316,7.324,1350.586,1.65,1.65,-34.50,15.67
15640,-5.84,-1.89,-36.36,-717.285,-625.488,759.766,1.20,0.15,-33.30,15.67
15650,-1.11,5.17,-52.89,-633.301,212.402,1256.836,1.20,0.15,-33.30,15.91
15660,5.20,13.81,-34.88,-558.105,-601.074,1309.082,2.55,-0.30,-33.90,15.52
15670,9.17,28.37,-45.31,-460.937,-379.395,1470.215,2.25,0.30,-33.90,15.71
15680,15.96,22.60,-50.86,-99.121,-542.480,638.184,3.15,1.65,-34.80,15.86
15690,5.18,20.16,-39.18,-96.680,-539.062,569.336,3.00,0.75,-33.90,15.86
15699,0.73,24.33,-52.23,-132.324,-992.187,820.312,3.00,0.75,-33.90,15.67
15711,-20.78,20.52,-43.92,-238.770,-412.109,1355.957,3.60,0.90,-34.80,15.86
15721,-10.76,18.77,-46.39,-91.309,87.402,497.070,3.45,1.05,-33.45,15.67
15731,11.55,9.37,-48.15,90.332,-300.781,1579.102,3.45,1.05,-33.45,15.43
15741,9.61,0.21,-45.66,302.246,-403.809,1999.939,3.15,1.35,-34.80,15.43
15750,3.71,5.37,-37.95,-83.984,-860.352,1566.895,5.10,1.65,-35.25,15.86
15760,-1.44,-0.53,-70.97,-263.184,-694.824,648.926,5.55,1.35,-34.05,15.67
15770,-6.76,4.48,-39.69,139.648,-588.379,1188.965,5.10,1.35,-33.75,15.52
15782,-2.82,-5.38,-47.53,-142.578,-520.020,1045.898,5.10,1.35,-33.75,15.71
15792,0.61,4.20,-45.66,-633.789,-213.867,261.719,6.15,1.05,-34.65,15.71
15802,9.95,3.07,-48.53,-36.621,-1028.320,1010.254,5.70,1.95,-35.40,15.33
15812,10.65,-4.90,-51.33,-206.055,-340.332,1217.285,5.70,1.95,-35.40,15.71
15822,4.49,3.07,-44.21,-427.734,-647.461,502.930,6.15,1.50,-34.65,15.76
15837,-1.04,-2.15,-45.37,-334.961,-553.711,1720.703,5.85,1.35,-34.05,15.43
15846,-2.49,-3.22,-56.16,-375.488,-958.984,1549.316,7.05,2.10,-34.80,15.38
15859,2.69,-3.82,-48.38,69.336,-864.258,1231.934,5.85,2.85,-33.75,15.86
15869,2.61,0.31,-47.13,-77.148,-563.477,1271.973,5.85,2.85,-33.75,15.86
15879,-9.52,5.77,-53.82,-325.684,-82.520,1322.754,7.95,1.95,-34.95,15.38
15889,2.30,1.92,-51.21,-187.988,-195.312,537.598,8.55,1.35,-33.75,15.71
15899,15.64,5.60,-44.73,-257.812,-1017.578,1088.379,8.55,1.35,-33.75,15.76
15909,9.71,1.61,-53.59,-138.672,-101.074,1058.105,7.35,2.10,-35.25,15.67
15918,3.44,1.29,-57.00,15.625,-786.621,948.730,9.15,0.75,-35.40,15.57
15929,4.15,11.50,-48.95,-197.754,-541.992,742.676,8.25,0.45,-35.25,15.71
15939,8.66,5.08,-45.37,-206.543,-840.332,1861.328,9.00,1.35,-35.25,15.38
15949,-3.11,-1.89,-55.09,-181.152,-1105.469,1436.523,9.00,1.35,-35.25,15.86
15959,-4.76,-4.40,-52.16,-456.055,-234.863,1708.984,9.90,0.00,-35.40,15.71
15969,1.15,-5.91,-61.01,-172.852,-489.746,1034.668,8.55,0.90,-35.55,15.71
15979,-8.00,-3.57,-49.85,-439.453,-395.508,1618.164,8.55,0.90,-35.55,15.91
15989,-0.27,8.78,-54.82,-146.484,-488.281,978.027,9.75,2.10,-34.80,15.76
16000,-4.82,11.32,-49.35,118.652,-622.070,648.437,9.30,0.90,-34.50,15.57
16010,-3.72,2.68,-50.36,-156.738,-466.309,875.977,11.85,0.30,-35.70,15.67
16020,4.76,0.03,-54.68,-63.477,-394.531,1894.043,11.85,0.30,-35.70,15.76
16030,0.85,9.83,-51.83,-352.051,-500.000,905.762,11.85,0.30,-35.70,15.86
16039,3.40,2.42,-48.40,55.176,-608.887,470.215,11.85,0.00,-35.40,15.57
16049,4.68,0.07,-49.51,-46.387,-981.934,950.684,11.40,0.00,-35.70,15.67
16058,7.71,4.22,-51.93,-291.504,-686.035,961.914,11.40,0.00,-35.70,15.67
16070,-2.01,-2.74,-45.71,-405.273,-416.992,1212.402,13.05,-0.30,-35.40,15.76
16080,-2.82,1.63,-50.44,-241.211,-656.250,1450.684,13.05,-0.30,-35.40,15.71
16090,0.44,-2.35,-48.42,-67.383,-547.852,881.348,13.50,38.25,-34.95,15.67
16100,-4.55,-6.16,-46.26,-530.762,-229.980,1563.965,13.50,-0.15,-36.00,15.76
16110,8.09,-8.01,-43.21,-252.930,-280.273,1299.316,13.50,-0.15,-36.00,15.71
16120,6.44,-3.54,-47.92,-221.191,-26.855,888.672,12.75,0.15,-36.75,15.57
16130,2.79,-7.89,-45.27,-245.605,-748.535,1483.887,12.75,0.15,-36.75,15.71
16142,3.19,-3.36,-46.55,60.059,-567.383,217.773,13.35,0.30,-35.40,15.43
16152,4.21,-3.69,-48.31,-477.539,-769.531,656.250,13.80,-0.75,-36.15,15.76
16162,-11.79,-2.69,-50.11,-560.059,56.641,1205.078,13.50,-0.90,-35.25,15.76
16172,-0.88,-7.54,-42.40,-280.762,-434.570,557.617,14.70,-0.90,-36.30,15.67
16182,-3.47,-8.09,-45.15,-183.105,-310.059,683.105,14.70,-0.90,-36.30,15.86
16192,-1.67,-2.34,-48.21,-115.234,-328.125,545.898,14.40,-1.65,-36.00,15.76
16204,8.03,-6.27,-48.19,-85.938,-759.277,1138.672,14.70,-1.35,-35.55,15.76
16214,-0.15,-6.60,-42.59,2.441,-805.176,666.504,14.70,-1.35,-35.55,15.76
16224,3.86,-2.08,-47.60,-166.016,-300.293,844.238,15.30,-1.50,-36.60,15.57
16234,0.98,4.41,-53.17,-59.082,-373.535,-328.125,13.95,0.15,-35.25,15.71
16244,-2.01,-0.70,-49.05,217.773,-250.977,629.395,15.15,-0.15,-35.55,15.71
16254,-0.31,4.95,-44.38,-366.699,-221.680,318.848,16.05,-0.75,-34.20,15.57
16264,-3.59,9.59,-47.38,-174.316,-252.930,1210.449,16.05,-0.75,-34.20,15.86
16276,1.32,9.45,-44.58,-53.711,-301.270,180.664,15.90,-2.55,-36.00,15.86
16286,4.43,9.45,-48.47,-191.406,-318.359,920.898,15.90,-1.65,-36.00,15.71
16296,0.10,0.66,-39.60,-117.676,-492.676,1814.941,15.90,-1.65,-36.00,15.76
16306,-2.42,3.22,-52.38,-357.910,-19.531,1097.656,17.25,-1.05,-35.70,15.57
16316,-4.28,6.57,-49.04,-238.281,-32.715,1210.938,15.90,-2.85,-34.80,15.76
16326,12.26,5.80,-51.68,124.023,-343.750,1136.719,16.65,-2.55,-35.25,15.76
16335,8.01,3.74,-45.39,56.641,-569.336,1069.824,17.40,-2.55,-36.75,15.43
16352,4.36,-1.62,-46.85,-49.805,-842.773,962.891,16.65,-2.55,-36.75,15.76
16361,-6.01,2.47,-46.80,-348.145,-359.375,1323.242,17.55,-2.70,-35.70,15.67
16371,-1.27,0.63,-48.34,-106.934,-166.992,708.496,17.55,-2.70,-35.70,15.57
16381,14.15,-2.34,-43.95,-472.168,-347.168,1258.789,16.80,-3.90,-36.60,15.67
16391,8.05,-0.07,-47.10,-353.027,-667.969,1999.939,18.00,-3.15,-36.15,15.71
16401,-15.70,-0.35,-41.47,-260.254,-148.437,1498.047,18.15,-2.55,-36.30,15.67
16413,-13.47,1.93,-55.18,-165.039,-421.387,625.000,17.85,-3.75,-35.55,15.67
16423,4.85,-5.44,-55.60,-61.035,-8.301,1598.145,17.85,-3.75,-35.55,15.76
16433,1.51,-0.02,-51.27,-145.508,40.527,751.465,17.40,-4.05,-36.30,15.76
16443,7.13,7.48,-54.05,-284.180,-312.012,263.672,17.25,-3.45,-36.60,15.67
16453,5.92,1.25,-40.44,-252.441,-368.652,556.152,17.25,-3.45,-36.60,15.76
16463,0.15,-4.77,-51.64,-79.102,-315.430,1378.418,18.15,-4.50,-35.25,15.95
16475,5.37,-5.26,-45.27,27.344,-1096.680,1322.754,17.85,-4.95,-36.75,15.52
16485,-0.18,-1.76,-46.31,-584.961,-583.008,716.309,18.75,-3.90,-36.90,15.67
16495,10.76,4.27,-39.40,-5.371,-1030.273,618.652,18.15,-2.85,-37.05,15.71
16505,3.58,-0.25,-51.06,109.863,-598.145,624.023,18.15,-2.85,-37.05,15.76
16515,-4.87,-7.60,-47.44,-49.316,-566.895,479.004,18.60,-3.75,-37.05,15.52
16525,-4.52,6.57,-54.18,-269.043,-329.590,845.703,18.90,-4.05,-37.05,15.33
16535,-1.08,7.01,-45.34,107.910,-135.254,1058.105,18.90,-4.05,-37.05,15.95
16546,5.50,3.96,-43.52,68.359,-35.156,1250.977,19.35,-4.95,-37.50,15.95
16556,14.59,1.44,-43.71,-113.281,-174.316,1680.176,19.35,-4.50,-37.50,15.71
16566,13.27,-0.89,-46.27,-268.066,-886.230,1273.926,18.75,-6.30,-36.90,15.86
16576,-1.98,2.34,-41.85,-151.855,-749.023,1301.758,20.25,-4.35,-36.90,15.86
16586,-4.71,2.53,-49.83,84.473,-924.316,1035.645,20.25,-4.35,-36.90,15.86
16596,-1.72,-2.10,-43.09,-50.781,-679.687,1249.023,19.50,-5.10,-38.40,15.38
16606,-7.95,-1.18,-43.40,-145.996,-240.234,968.262,19.65,-5.25,-36.75,15.76
16618,-1.26,3.35,-41.89,-284.668,-419.922,1999.939,19.65,-5.25,-36.75,15.52
16628,-3.18,5.70,-46.02,-6.348,-311.523,1422.363,20.25,-6.30,-36.60,15.76
16638,4.92,0.85,-42.24,-154.785,-466.309,1858.887,20.25,-7.50,-37.35,15.76
16648,-1.43,5.14,-51.31,139.160,-442.871,901.367,20.70,-5.85,-35.70,15.67
16658,3.23,-2.82,-45.84,-147.461,-297.852,1181.641,20.70,-6.75,-38.10,15.76
16668,3.49,-2.77,-43.15,14.160,-542.480,1164.551,20.70,-6.75,-38.10,15.43
16680,2.38,-7.95,-52.88,-141.113,-589.844,902.832,20.85,-7.65,-36.75,15.86
16690,1.07,-3.55,-40.95,182.129,-581.055,580.078,21.45,-6.75,-37.65,15.76
16700,-1.44,-6.46,-48.61,-182.617,-371.582,853.027,21.45,-6.75,-37.65,15.38
16710,4.56,-5.04,-41.36,-73.730,-730.469,582.520,20.70,-6.30,-36.60,15.57
16720,0.95,-9.47,-39.81,29.297,-471.191,752.441,21.60,-8.55,-37.50,15.76
16730,3.68,-1.70,-43.74,-19.043,-397.949,949.707,21.00,-5.85,-38.10,15.71
16740,4.28,-6.54,-38.79,-47.363,-474.121,807.129,21.45,-8.70,-36.15,15.67
16752,-1.92,-3.88,-46.12,-460.937,-318.848,983.887,20.85,-8.55,-36.75,15.71
16762,4.05,-6.06,-31.08,-113.770,-381.836,1088.867,20.70,-7.50,-38.10,15.71
16772,0.14,-0.40,-38.46,-125.000,-554.687,695.312,20.70,-7.50,-38.10,15.38
16782,-0.85,-11.09,-42.08,-232.910,-630.371,809.082,21.90,-9.15,-35.70,15.52
16792,-2.49,4.53,-39.50,-227.539,-186.523,724.121,22.05,-7.65,-37.80,15.86
16802,4.08,-1.33,-40.18,-138.184,51.270,1302.734,21.90,-9.45,-37.35,15.76
16812,5.51,2.15,-44.80,-361.816,58.594,224.609,21.45,-8.70,-38.40,15.67
16824,2.40,-2.50,-32.02,-303.711,-773.926,1689.941,21.45,-8.70,-38.40,15.86
16834,-1.63,-1.81,-41.14,116.699,-333.496,987.305,22.05,-8.85,-37.80,15.86
16844,-5.42,1.70,-39.82,-34.180,-270.020,701.660,23.25,-8.55,-36.00,15.67
16854,0.85,-1.67,-39.30,-286.621,-384.766,1746.582,23.25,-8.55,-36.00,15.38
16869,4.56,-1.49,-41.49,76.660,-616.211,1003.418,22.95,-8.25,-36.60,15.76
16878,-5.17,-2.71,-36.57,-77.637,-395.996,969.727,22.20,-9.45,-38.40,15.71
16888,-2.56,2.78,-44.39,33.203,-106.445,770.508,22.05,-8.55,-37.80,15.52
16898,0.13,1.51,-42.07,117.676,-264.160,794.922,21.90,-10.35,-37.35,15.86
16910,1.98,7.35,-42.53,125.488,-589.355,811.035,21.90,-10.35,-37.35,15.76
16920,1.44,2.44,-40.70,-129.395,-390.137,843.262,23.70,-11.10,-36.90,15.71
16930,-11.62,7.00,-37.88,-236.816,-171.875,1065.918,22.65,-8.25,-38.10,15.38
16940,-3.69,1.63,-34.02,-173.340,-231.445,801.270,22.65,-8.25,-38.10,15.86
16950,-1.03,3.79,-40.40,-204.590,-383.789,811.035,22.35,-10.05,-37.50,15.52
16960,2.32,0.40,-37.46,105.469,-547.852,1031.738,23.55,-11.70,-37.80,15.86
16969,-15.47,4.88,-42.71,-254.883,-171.387,1716.309,22.95,-10.35,-38.40,15.57
16981,-11.50,1.92,-36.10,4.883,43.945,1154.785,24.00,-9.75,-36.75,15.67
16991,-4.93,1.68,-39.06,46.875,-353.516,638.184,24.00,-9.75,-36.75,15.67
17001,2.61,-2.78,-43.61,-92.773,-159.180,1691.895,22.65,-10.35,-38.40,15.57
17011,4.30,4.53,-38.80,34.180,-315.918,1245.117,24.15,-11.55,-38.40,15.76
17020,3.40,4.84,-36.70,-113.770,-501.465,1006.836,24.15,-11.55,-38.40,15.71
17030,5.75,2.31,-39.02,19.043,-677.246,1088.867,23.40,-12.30,-37.35,15.76
17041,-5.08,-0.52,-33.84,-423.828,-242.187,1868.164,24.00,-11.25,-38.55,15.86
17051,-2.18,1.24,-37.00,-100.098,-127.930,1411.621,24.15,-12.30,-38.85,15.57
17061,1.44,7.17,-38.38,121.094,-79.102,1178.711,24.30,-12.15,-40.05,15.71
17070,6.76,14.53,-35.55,-185.547,-371.582,1332.031,24.30,-12.15,-40.05,15.43
17080,8.47,4.86,-38.71,-114.258,283.203,763.184,25.35,-11.55,-38.85,15.57
17090,14.02,10.76,-32.98,-60.059,-482.910,1169.434,24.90,-12.30,-39.15,15.86
17100,-6.35,-1.95,-34.86,-321.777,-466.797,607.422,24.90,-12.30,-39.15,15.86
17112,-12.31,-2.60,-40.18,-23.926,-610.840,479.004,24.75,-12.90,-39.00,15.67
17122,-5.55,-0.34,-33.89,395.996,-369.141,645.996,24.60,-12.75,-39.15,15.43
17132,-8.11,-3.94,-36.27,116.211,-256.348,1247.070,24.90,-15.90,-38.40,15.76
17142,4.15,-2.15,-43.56,-29.297,-184.570,677.734,24.90,-15.90,-38.40,15.52
17152,5.16,0.31,-37.91,-169.434,-158.203,447.266,25.65,-14.70,-39.15,15.76
17162,9.56,-7.58,-31.76,-126.465,-104.980,727.539,24.00,-13.65,-39.75,15.76
17172,2.39,-3.69,-46.47,115.723,-349.121,1119.629,24.00,-13.65,-39.75,15.91
17184,-4.34,-1.39,-38.10,-93.750,-303.711,857.910,25.05,-14.40,-39.00,15.71
17194,-4.73,2.97,-38.01,-100.098,-636.230,1405.762,26.25,-13.65,-38.25,15.86
17204,-6.90,6.93,-26.32,-287.109,-323.242,774.414,25.05,-13.65,-39.30,15.52
17214,2.82,-10.31,-36.11,10.254,-406.250,1416.016,25.35,-15.00,-38.10,15.86
17224,-3.14,4.40,-32.84,-110.352,-390.625,1436.035,25.35,-15.00,-38.10,15.71
17234,0.53,8.17,-40.40,-100.586,-332.031,933.105,25.80,-14.10,-40.05,15.86
17246,-4.56,8.14,-46.66,-161.621,-582.520,1086.426,25.80,-14.85,-38.25,15.71
17256,-15.49,2.44,-37.42,216.309,-340.332,629.395,25.80,-14.85,-38.25,15.57
17266,-4.82,2.18,-34.21,111.328,-336.426,824.219,25.80,-15.60,-39.30,15.86
17276,-5.18,1.56,-34.06,180.664,-386.230,762.695,24.15,-15.45,-39.90,15.86
17286,-6.30,0.51,-33.95,185.059,-32.715,1403.809,26.70,-15.30,-38.55,15.38
17296,-4.47,-3.37,-41.07,56.152,-386.719,1087.402,24.15,-16.20,-38.85,15.76
17306,0.98,-5.51,-37.25,-57.617,-581.543,875.977,24.15,-16.20,-38.85,15.95
17318,1.93,-3.44,-37.27,-110.840,-499.512,1042.480,25.35,-17.85,-38.40,15.86
17328,-3.81,-6.28,-33.28,-20.996,23.926,465.820,24.75,-15.60,-39.00,15.86
17338,6.42,1.99,-33.34,33.691,-278.809,881.348,24.75,-15.60,-39.00,15.76
17348,3.95,-0.18,-29.15,146.973,-401.367,645.020,24.90,-15.00,-39.90,15.67
17358,-0.34,0.68,-30.41,254.883,-510.742,981.445,25.80,-18.00,-37.80,15.76
17368,-8.87,-0.85,-28.73,-167.480,-78.613,1030.273,24.15,-17.10,-39.60,15.43
17385,-2.91,1.34,-26.69,-82.520,-215.332,660.645,25.05,-16.80,-38.55,15.76
17394,-3.02,-11.06,-39.82,50.293,-281.250,987.793,25.50,-16.50,-40.05,15.71
17404,5.27,-5.62,-30.38,-122.559,-131.836,1652.344,26.40,-18.30,-38.85,15.76
17414,6.61,0.32,-34.11,-97.168,-422.852,748.535,26.40,-18.30,-38.85,15.71
17424,4.10,0.06,-29.37,162.598,-475.586,1182.129,24.90,-18.60,-37.65,15.76
17433,0.79,1.34,-40.12,276.367,-468.750,1084.473,26.10,-17.40,-39.90,15.57
17443,-0.54,-1.49,-30.94,-65.918,-610.352,1335.938,27.15,-18.30,-38.40,15.43
17455,1.49,-5.73,-30.72,-41.016,-268.555,1125.977,25.65,-19.05,-39.15,15.67
17465,-2.24,0.17,-24.38,-233.398,-122.559,1440.918,25.65,-19.05,-39.15,15.57
17475,-0.76,3.18,-31.20,34.180,-449.707,760.254,25.80,-19.65,-37.80,15.86
17485,0.16,-3.80,-40.89,119.629,-423.340,741.699,26.10,-17.85,-39.60,15.76
17495,1.47,-1.98,-28.40,248.047,-585.937,1178.223,26.10,-17.85,-39.60,15.57
17505,-0.77,6.00,-33.93,131.836,-165.527,638.672,24.60,-19.50,-39.60,15.38
17515,-0.99,7.22,-37.89,-101.074,-416.504,976.562,26.10,-19.50,-39.90,15.76
17527,-2.44,1.27,-37.77,25.391,-533.203,795.898,25.65,-20.70,-39.90,15.71
17537,-5.51,1.43,-34.26,-105.957,-337.402,1059.570,26.25,-20.10,-38.25,15.91
17547,-5.66,4.34,-27.92,-22.949,-724.121,776.855,26.25,-20.10,-38.25,15.76
17557,2.54,-1.08,-42.33,40.527,-625.977,852.051,26.40,-18.60,-38.85,15.71
17567,0.46,3.68,-35.14,-70.313,-5.371,1546.387,26.70,-20.85,-38.25,15.76
17577,0.18,-1.35,-43.25,-43.457,-363.770,1177.734,26.70,-20.85,-38.25,15.57
17587,-1.73,5.01,-37.86,-227.539,-155.273,1123.047,25.80,-20.85,-37.50,15.67
17599,-6.48,0.79,-32.11,71.289,-335.937,1145.020,24.75,-20.40,-38.25,15.38
17609,-9.72,1.37,-39.12,-166.992,-1.953,1015.625,26.70,-18.00,-39.30,15.38
17619,-7.21,-1.22,-30.79,-104.980,-183.105,1192.383,25.50,-22.50,-38.55,15.86
17629,-3.30,4.76,-38.89,-312.988,-129.883,1100.586,25.50,-22.50,-38.55,15.57
17639,0.63,-2.74,-35.99,83.008,-414.062,1567.383,25.80,-21.60,-39.75,15.76
17649,-6.23,-4.34,-33.13,-122.070,54.688,618.164,25.80,-19.65,-39.75,15.86
17661,-0.18,9.35,-33.48,13.672,-570.312,515.625,25.80,-19.65,-39.75,15.86
17671,1.06,0.40,-34.07,-217.773,-359.375,1523.926,25.50,-22.05,-39.75,15.67
17681,3.89,6.71,-37.33,97.168,-977.051,746.094,24.75,-20.10,-39.30,15.52
17690,-2.48,2.05,-37.03,415.527,-640.625,640.625,25.05,-22.80,-39.30,15.67
17700,-3.95,2.36,-31.77,130.859,-642.090,1021.484,24.90,-19.80,-40.65,15.95
17710,1.66,3.20,-34.27,-8.789,-160.156,907.715,24.90,-19.80,-40.65,15.71
17720,-5.24,-1.66,-33.02,-117.188,-189.453,1253.418,25.50,-22.05,-39.75,15.71
