Time_ms,GyroX_degps,GyroY_degps,GyroZ_degps,AccelX_g,AccelY_g,AccelZ_g,MagX_uT,MagY_uT,MagZ_uT,Temp_C
1310,-0.53,-2.89,-3.52,6.836,21.484,1007.324,-20.25,-9.45,-36.90,16.24
1326,0.95,-2.11,-0.04,55.176,56.641,1082.031,-20.25,-10.65,-36.15,16.10
1336,-1.67,0.33,-1.96,79.102,19.531,1002.441,-18.75,-10.65,-34.20,16.10
1346,-2.13,-1.23,0.44,123.535,55.664,1010.742,-18.45,-11.85,-34.65,16.10
1356,0.84,-0.55,1.11,104.004,27.344,1000.000,-19.65,-11.70,-34.80,16.05
1365,1.15,-0.45,3.05,60.547,21.484,1054.688,-18.15,-11.70,-35.25,15.95
1375,-0.42,-0.27,-0.44,53.223,36.133,967.773,-18.15,-11.70,-35.25,16.10
1385,-0.08,-2.67,-0.02,23.437,44.922,1018.555,-18.00,-12.30,-34.65,16.24
1397,-1.19,-0.34,-1.38,123.047,46.875,1025.879,-20.55,-13.65,-33.75,16.10
1407,0.12,0.63,-2.08,44.922,8.789,1031.738,-20.55,-13.65,-33.75,16.19
1417,-1.02,-0.66,-0.60,108.887,41.016,972.168,-18.15,-12.45,-34.05,16.19
1427,-0.16,-1.27,-2.18,85.938,38.574,1006.836,-17.25,-13.05,-33.90,15.95
1437,-0.56,-2.02,-1.78,31.250,29.785,975.586,-17.85,-12.15,-33.75,15.57
1447,0.08,-0.73,0.15,66.895,2.930,1093.750,-17.25,-10.65,-33.90,16.10
1456,-0.37,0.13,1.06,120.117,33.203,993.652,-17.25,-10.65,-33.90,16.05
1468,0.05,-0.38,-2.08,134.766,22.949,1082.031,-18.45,-11.85,-34.20,16.19
1478,0.27,-0.95,-1.28,88.867,30.273,934.570,-16.65,-10.95,-34.50,16.19
1488,-0.36,-0.38,-3.16,34.668,31.250,1044.434,-16.65,-10.95,-34.50,16.19
1498,0.51,-0.64,-2.56,88.867,20.020,992.187,-19.50,-12.30,-34.65,16.10
1508,-0.31,-1.69,0.20,108.887,17.090,1039.063,-19.50,-12.30,-34.95,15.86
1518,-2.52,-1.32,-1.68,103.516,14.648,1021.973,-20.10,-12.45,-36.00,16.10
1528,0.36,0.73,-1.52,24.902,31.738,1016.602,-20.85,-12.45,-37.05,16.24
1540,-0.58,-1.86,-2.15,67.871,24.414,970.215,-20.85,-12.45,-37.05,16.10
1550,-0.14,0.76,-2.96,121.582,35.645,1047.363,-22.20,-11.55,-37.65,16.24
1560,-0.44,1.27,-1.18,145.020,30.273,961.914,-21.30,-10.95,-36.00,16.24
1570,1.57,-0.34,-3.32,18.066,1.465,1087.891,-21.30,-10.95,-36.00,15.86
1580,-1.14,-0.53,-2.77,118.164,27.832,1084.961,-21.30,-11.25,-37.50,16.10
1590,-1.48,1.44,-0.96,161.621,15.625,1028.320,-22.20,-13.50,-37.35,15.91
1600,-1.76,0.78,-0.91,88.379,34.180,1001.953,-22.95,-12.75,-35.40,16.24
1612,0.94,0.98,-1.09,58.105,35.645,992.676,-22.05,-12.15,-36.30,16.05
1622,-1.35,-0.79,-2.31,144.043,32.715,941.895,-22.05,-12.15,-36.30,16.10
1632,1.57,-0.82,-1.66,166.016,37.598,1009.277,-20.10,-12.90,-33.75,16.05
1642,-1.13,0.71,-2.54,-14.160,62.988,970.703,-17.85,-12.45,-34.50,16.19
1652,0.59,-0.43,-0.35,153.320,32.227,1100.098,-17.85,-12.45,-34.50,16.05
1662,0.90,-0.85,-2.73,215.332,47.363,955.566,-17.10,-12.45,-33.30,16.10
1672,-0.62,-2.97,2.99,0.977,16.602,1009.766,-17.10,-13.65,-33.00,15.95
1684,-0.65,-0.14,0.26,155.273,-11.719,1089.844,-16.65,-11.70,-33.75,15.95
1694,-1.91,-2.27,-1.91,250.488,20.508,982.910,-16.65,-11.70,-33.75,16.10
1704,0.75,-3.56,-2.71,-61.523,-1.953,1124.023,-18.45,-12.30,-35.40,16.19
1714,-1.76,-1.36,-2.60,141.602,-19.043,963.867,-20.10,-12.90,-36.30,16.19
1724,-0.01,0.70,0.23,211.914,77.148,1016.602,-20.10,-12.90,-36.30,16.19
1734,2.73,-2.78,-1.88,-60.547,82.520,1062.012,-21.00,-11.55,-37.35,16.19
1744,-1.06,-1.77,0.24,175.293,-6.348,1036.133,-21.45,-11.85,-37.35,16.10
1756,-1.05,1.95,-3.45,78.613,23.926,945.312,-21.90,-11.85,-38.10,16.24
1766,1.07,1.05,-2.24,28.809,14.160,1135.254,-21.60,-12.90,-37.80,15.86
1776,-0.21,-3.27,-0.77,311.523,-10.254,886.719,-21.60,-12.90,-37.80,16.05
1786,0.79,2.33,-1.24,-20.996,79.590,997.559,-19.95,-12.75,-35.70,16.10
1796,-0.03,-1.71,-1.21,183.594,-53.223,1033.691,-19.35,-12.90,-34.50,16.10
1806,-1.10,1.88,-0.19,119.629,9.766,862.305,-19.35,-12.90,-34.50,16.24
1816,-0.31,-2.17,0.37,25.879,25.391,1249.023,-18.00,-12.75,-33.45,16.24
1840,-2.77,1.56,-3.46,95.215,29.297,1269.043,-16.65,-11.25,-32.55,16.24
1849,-2.19,0.06,-2.29,210.449,-19.043,746.582,-16.65,-12.15,-33.75,16.24
1859,-1.50,-1.09,-3.95,24.902,40.039,1196.777,-16.65,-12.15,-33.75,16.10
1869,-2.45,-1.50,-0.65,218.750,54.688,976.562,-20.10,-11.25,-36.75,16.10
1879,1.13,-0.98,-3.02,-38.086,12.207,1124.023,-21.00,-11.55,-36.90,16.19
1889,-0.74,-0.12,-4.01,254.395,42.480,1069.824,-21.30,-12.15,-37.05,16.10
1901,1.23,1.16,-2.35,15.137,34.668,1060.547,-22.35,-12.45,-37.05,16.29
1911,-1.29,-3.73,-4.23,303.223,-90.332,979.980,-21.60,-11.25,-36.30,16.19
1921,-0.56,-0.69,-2.67,-41.016,115.234,1167.969,-21.60,-12.15,-34.50,16.19
1931,-0.50,-4.11,-3.03,217.773,7.324,1101.563,-19.50,-11.55,-31.95,16.24
1941,2.69,-1.33,-2.19,14.648,-69.336,944.336,-19.50,-11.55,-31.95,16.19
1951,-0.64,-3.27,-5.58,126.953,-0.488,1201.660,-17.10,-12.90,-32.55,16.24
1961,-3.19,0.69,-2.55,88.379,72.754,940.918,-17.25,-11.85,-32.70,16.19
1972,-1.44,-4.33,1.66,145.508,63.965,877.441,-17.10,-12.90,-33.75,16.38
1982,1.37,2.18,0.68,164.551,69.824,1121.094,-19.95,-12.75,-36.15,16.29
1991,0.02,-1.50,-2.71,64.941,47.363,742.676,-21.45,-11.55,-36.60,16.19
2001,2.22,-1.53,-0.87,150.391,19.043,1374.512,-22.65,-11.55,-36.15,15.95
2011,0.55,-0.60,1.37,80.078,47.852,736.328,-22.65,-12.75,-36.90,16.38
2021,4.51,1.36,-1.15,270.508,-154.785,1425.293,-22.65,-12.75,-36.90,16.43
2031,0.69,-0.04,-6.05,76.172,205.566,1071.777,-21.30,-12.90,-33.75,16.19
2043,1.04,-2.02,-1.74,141.113,16.113,1016.602,-18.75,-13.80,-33.15,16.19
2053,1.11,0.98,-4.08,128.906,-54.688,1076.660,-17.55,-14.25,-32.70,16.29
2063,1.56,5.08,-0.83,135.742,82.031,598.633,-17.40,-12.45,-32.40,16.29
2073,-3.61,-1.36,-5.85,196.777,-29.785,867.187,-17.40,-12.45,-33.00,16.24
2083,0.41,-1.30,-4.23,232.910,234.375,1091.309,-18.90,-12.15,-35.25,15.95
2093,-0.17,-1.72,-5.12,80.078,54.688,811.523,-21.30,-12.90,-36.75,16.19
2103,-0.13,-2.27,-3.81,121.582,-33.691,1286.621,-21.30,-12.90,-36.75,16.38
2115,-0.68,-0.12,-0.40,241.699,13.672,1086.426,-23.25,-14.10,-34.05,16.24
2125,1.13,1.51,-3.54,54.199,53.711,1119.141,-19.35,-12.90,-33.00,16.19
2134,1.83,1.53,0.32,136.719,38.086,1007.324,-17.10,-14.10,-31.50,16.38
2144,2.52,-0.47,-1.77,186.523,96.191,1000.488,-17.10,-14.10,-31.50,16.38
2154,0.48,-0.45,-2.90,180.664,39.063,1192.383,-17.10,-12.90,-31.80,15.95
2164,1.66,0.07,-3.03,76.660,38.574,849.121,-19.65,-12.45,-34.50,16.24
2173,0.06,0.56,-2.56,259.277,-81.055,1126.465,-19.65,-12.45,-34.50,16.29
2185,-2.72,0.58,-1.75,145.996,66.895,948.730,-22.65,-12.75,-36.15,16.19
2195,0.95,1.67,-3.57,153.320,76.172,1194.824,-22.35,-13.65,-36.75,16.24
2204,-2.24,2.06,-3.01,155.273,4.883,1042.480,-19.50,-13.80,-32.70,15.95
2214,-1.40,2.36,-3.47,129.883,38.086,980.957,-18.45,-14.25,-31.20,16.38
2224,0.36,1.25,-5.27,267.578,10.742,1166.016,-18.45,-14.25,-31.20,16.24
2234,-1.47,1.33,-2.87,109.863,-65.918,1142.578,-16.50,-11.10,-31.65,16.29
2244,-0.29,1.55,-1.04,206.055,40.039,1027.344,-20.10,-11.70,-36.00,16.24
2257,-0.54,1.85,-4.02,173.340,-24.902,1269.043,-20.10,-11.70,-36.00,16.19
2267,-3.05,-1.67,-4.24,232.910,-27.344,993.652,-23.55,-14.10,-36.00,16.48
2277,-1.95,0.52,-1.60,182.129,-79.590,1158.203,-21.90,-12.30,-33.45,16.24
2287,1.22,3.66,-2.36,217.773,9.766,764.648,-19.50,-12.75,-32.40,16.29
2296,-0.11,-1.47,-2.56,172.852,32.227,1036.621,-15.90,-13.20,-30.30,16.19
2306,1.66,0.92,-1.40,179.687,41.504,859.863,-15.90,-13.20,-30.30,16.38
2318,3.65,2.06,-1.82,86.426,49.805,1025.391,-20.25,-9.90,-34.95,16.38
2328,2.51,-0.53,-2.82,119.629,14.648,1047.363,-22.65,-11.10,-35.70,16.29
2338,2.95,1.43,-1.72,158.691,19.043,974.121,-22.65,-11.10,-35.70,16.24
2354,4.08,0.77,-0.11,144.531,-142.090,1192.871,-22.20,-13.50,-33.15,16.24
2363,2.97,-0.24,-3.42,218.262,-127.441,978.027,-18.15,-14.10,-30.75,16.24
2373,-0.50,0.11,-0.11,239.258,-64.941,1085.449,-17.85,-11.25,-30.30,15.95
2383,0.12,-2.44,-4.75,120.605,-24.902,1194.824,-17.10,-12.15,-31.80,16.19
2395,-2.24,-2.60,-7.05,122.559,81.055,1075.684,-23.25,-11.70,-36.30,16.24
2405,-1.34,-2.26,-4.13,190.918,151.367,1239.258,-23.25,-13.65,-36.00,16.19
2415,-4.56,-0.41,-5.75,196.777,201.660,1094.727,-23.25,-13.65,-36.00,16.19
2425,0.10,-1.88,-5.74,363.281,-58.105,921.387,-17.40,-12.45,-30.30,16.29
2435,-3.10,-0.52,-5.15,203.125,116.699,665.039,-18.15,-10.05,-32.25,16.24
2445,-2.34,-3.55,-5.40,272.461,-20.508,760.254,-22.80,-9.75,-36.30,16.19
2455,-1.50,-2.29,-7.35,273.437,2.441,1018.555,-24.00,-10.50,-36.75,16.10
2467,1.15,-1.60,-2.31,215.820,138.184,960.937,-24.00,-10.50,-36.75,15.95
2477,-1.31,-2.56,-5.24,183.105,75.195,874.023,-17.55,-13.05,-30.90,16.10
2487,1.78,-3.12,-6.73,147.461,-86.914,1051.758,-17.85,-10.05,-30.75,16.38
2497,-3.50,0.21,-2.78,150.879,-71.289,892.090,-17.85,-10.05,-30.75,16.38
2507,-0.25,2.29,-6.41,293.457,-4.395,1067.383,-22.05,-10.95,-37.05,16.05
2517,-1.50,0.37,-2.26,-18.555,19.531,1166.016,-23.55,-12.15,-36.75,16.38
2527,0.95,-1.40,-3.08,340.332,-142.090,1399.414,-20.55,-12.15,-31.80,16.24
2538,2.02,-1.63,-3.42,265.625,-72.754,790.527,-17.40,-12.15,-29.55,16.05
2548,0.18,1.10,-3.15,90.332,68.359,1147.949,-17.40,-12.15,-29.55,16.43
2557,2.19,-1.02,-4.87,255.859,-167.480,755.371,-22.20,-10.35,-36.90,16.38
2567,2.05,0.69,-3.37,57.129,-134.277,744.629,-24.15,-12.75,-34.95,16.24
2577,-0.67,0.13,-6.86,239.258,-11.230,1400.391,-21.30,-11.25,-32.55,16.29
2587,-1.05,-0.56,-5.44,447.266,62.012,756.348,-17.10,-12.45,-31.05,16.10
2597,1.15,2.63,-4.95,265.137,-200.195,839.844,-16.80,-10.35,-33.15,16.19
2609,-3.40,0.31,-7.35,344.238,-27.344,1342.285,-21.60,-8.55,-37.05,15.95
2619,-2.49,1.06,-5.46,23.926,-50.781,1458.008,-22.95,-11.55,-36.15,16.24
2629,-1.54,1.42,-10.84,125.488,132.324,1268.066,-22.95,-11.55,-36.15,16.48
2639,1.47,0.46,-5.40,263.184,10.742,869.629,-15.90,-10.50,-31.50,16.38
2648,-3.03,1.50,-8.00,255.859,85.449,1204.102,-17.25,-9.90,-33.90,16.43
2658,-0.65,-2.68,-7.64,357.422,-132.324,1174.316,-22.35,-8.85,-35.55,16.05
2670,-3.24,1.94,-5.45,128.418,-36.133,963.867,-22.80,-11.70,-35.25,16.24
2680,-1.08,-0.89,-6.46,332.031,-14.648,1236.816,-17.85,-11.25,-30.30,16.10
2690,0.92,-1.32,-4.24,132.812,53.711,997.070,-16.05,-9.90,-30.90,16.38
2700,2.11,-1.72,-4.47,376.465,-149.902,928.223,-19.50,-9.90,-34.65,16.38
2710,2.46,-0.18,-7.75,162.598,-152.832,1022.461,-19.50,-9.90,-34.65,16.38
2720,1.76,0.66,-3.31,251.953,-26.855,1085.938,-20.55,-11.25,-34.05,16.29
2730,-2.54,-1.92,-7.57,236.328,2.441,1165.527,-16.65,-10.50,-31.80,16.43
2742,-4.27,1.18,-6.06,72.754,104.492,981.934,-16.20,-9.30,-34.05,16.19
2752,-3.63,1.05,-9.47,124.023,216.309,703.125,-21.45,-9.45,-36.15,16.38
2762,-2.09,-0.01,-8.72,127.930,-115.723,1444.824,-22.05,-11.25,-35.55,16.38
2772,-2.47,0.62,-7.52,222.168,116.699,1172.852,-16.80,-11.85,-30.90,16.38
2782,-1.21,-0.56,-4.74,64.941,210.449,1352.539,-15.90,-9.30,-32.25,16.38
2792,2.14,-0.88,-10.26,506.348,-126.953,827.148,-15.90,-9.30,-32.25,16.62
2802,2.37,1.53,-9.47,153.320,-66.406,817.383,-20.55,-12.15,-36.30,16.43
2814,1.97,0.53,-10.33,242.676,11.719,608.887,-18.75,-13.05,-31.20,16.38
2824,4.71,-2.03,-7.85,252.441,-224.121,1095.703,-15.75,-9.45,-30.90,16.10
2834,2.69,-2.93,-9.51,291.016,-137.695,505.371,-19.65,-9.30,-36.00,16.38
2844,3.48,-0.94,-8.67,-38.574,-274.414,860.352,-19.65,-9.30,-36.00,16.10
2854,0.46,-2.08,-10.75,231.934,-229.980,797.363,-17.25,-12.75,-31.20,16.38
2869,-2.37,-3.91,-9.80,218.750,-76.660,1400.879,-14.70,-8.85,-30.75,16.29
2878,-4.15,-4.73,-12.63,-11.719,313.477,1058.105,-21.30,-12.45,-35.25,16.38
2890,0.66,-7.55,-12.73,280.762,-250.977,929.199,-17.25,-13.50,-29.70,16.24
2900,4.98,-7.17,-9.89,-8.789,-44.434,1055.664,-16.20,-10.95,-31.50,16.43
2910,7.37,-3.96,-11.94,267.090,51.270,1098.633,-19.95,-9.90,-34.95,16.10
2920,10.24,-4.27,-12.40,141.113,-136.719,921.875,-19.95,-9.90,-34.95,16.38
2930,3.12,0.38,-11.59,408.691,-286.133,295.898,-17.25,-13.50,-29.40,16.43
2940,2.69,1.42,-11.46,58.105,-34.668,458.984,-17.40,-9.30,-32.25,16.29
2950,2.63,-0.79,-12.24,102.051,-260.742,677.734,-17.40,-9.30,-32.25,16.24
2962,-10.53,3.07,-17.37,336.426,38.574,1365.234,-19.65,-13.65,-30.75,16.29
2972,-13.50,3.29,-11.52,-102.051,241.211,1076.660,-14.70,-12.15,-30.75,16.24
2982,-13.59,6.11,-16.58,585.449,-169.922,1092.285,-19.50,-9.90,-33.90,16.38
2992,-5.90,-4.36,-16.05,68.848,96.191,1646.973,-21.90,-13.05,-34.95,15.95
3002,-5.78,2.79,-10.57,177.734,-354.492,1258.789,-21.90,-13.05,-34.95,16.38
3012,-1.50,0.29,-14.62,127.441,-177.246,1031.738,-16.80,-10.35,-32.70,16.38
3022,-0.21,-2.21,-13.79,363.281,-373.535,628.906,-21.60,-11.70,-34.80,16.24
3034,-8.92,-1.71,-15.26,253.418,-78.125,1584.961,-21.60,-11.70,-34.80,16.43
3044,-3.47,-4.81,-20.18,-13.672,-200.195,1254.395,-16.65,-12.15,-29.55,16.43
3054,-6.76,-2.36,-19.97,329.590,-204.102,1083.984,-19.65,-10.05,-34.80,16.43
3064,-3.30,-3.24,-20.43,369.629,62.500,762.695,-20.70,-13.50,-34.95,16.43
3074,-3.65,-7.42,-22.85,146.973,-76.172,1057.129,-18.15,-12.45,-29.85,16.10
3084,-2.17,-6.92,-25.50,175.781,-52.246,1915.039,-18.15,-12.45,-29.85,16.38
3096,1.46,-4.82,-21.66,156.250,-172.363,908.691,-19.35,-13.20,-31.05,16.10
3106,-1.03,-10.24,-23.49,29.785,-225.098,1485.840,-19.35,-13.20,-31.05,16.43
3116,1.23,-4.05,-21.50,20.508,73.730,1460.449,-22.80,-10.05,-35.55,16.24
3126,-5.43,-2.25,-22.10,-10.254,10.742,444.824,-18.90,-12.45,-33.30,16.43
3136,-4.22,-3.66,-23.20,261.230,315.918,1024.902,-16.50,-9.90,-32.40,16.19
3146,0.39,-3.05,-21.98,267.090,-234.375,471.680,-20.55,-8.55,-34.80,16.48
3156,-4.39,2.19,-27.85,-39.063,-43.457,1101.074,-20.55,-8.55,-34.80,16.29
3168,1.87,4.40,-21.02,366.211,15.625,794.434,-15.90,-10.50,-30.75,16.19
3178,-0.37,0.81,-21.79,-75.195,-138.672,728.516,-19.35,-8.85,-36.00,16.29
3188,0.40,-0.73,-22.50,463.867,-456.543,608.887,-19.35,-8.85,-36.00,16.24
3198,-2.73,-0.08,-21.05,86.426,-452.637,1183.105,-16.50,-11.85,-30.15,16.38
3208,-2.05,-1.81,-20.78,157.227,-303.711,1127.930,-18.90,-8.85,-36.75,16.38
3218,-4.36,0.60,-23.88,302.246,-262.695,1112.793,-20.25,-9.90,-36.15,16.38
3228,-2.64,-1.12,-22.89,463.867,-408.203,1255.371,-17.40,-10.05,-31.50,16.19
3240,4.93,3.21,-21.24,64.941,236.328,1178.223,-17.40,-10.05,-31.50,16.62
3250,4.87,3.68,-23.82,28.809,40.527,672.852,-20.10,-10.95,-34.05,16.29
3260,7.98,-1.47,-25.89,344.238,-115.723,1071.777,-15.15,-10.95,-31.05,16.24
3270,10.53,-2.73,-26.00,178.223,-450.195,483.887,-18.15,-6.90,-34.50,16.43
3280,-2.36,0.27,-26.44,-230.957,-57.129,1505.859,-21.00,-11.10,-34.20,16.38
3290,2.80,1.73,-20.53,166.504,-74.707,479.492,-16.05,-10.35,-31.20,16.29
3300,3.37,2.76,-23.05,49.316,-80.078,1460.449,-17.55,-7.05,-33.45,16.38
3312,-27.89,4.69,-104.69,477.539,-458.984,445.801,-20.70,-9.15,-34.20,16.58
3322,-5.67,2.76,-25.04,40.039,-320.801,768.066,-20.70,-9.15,-34.20,16.29
3332,-5.76,1.92,-29.60,367.187,-127.930,721.191,-18.75,-7.05,-34.20,16.29
3342,-0.98,-1.49,-24.53,441.406,-355.469,442.871,-19.35,-10.50,-32.25,16.29
3352,0.88,-7.06,-24.92,503.906,-275.879,772.949,-15.15,-7.65,-31.05,16.38
3362,10.14,-6.78,-19.82,216.309,24.902,1147.949,-18.45,-7.95,-35.40,16.38
3372,4.91,-8.83,-28.26,161.133,-271.484,1210.938,-16.05,-10.65,-32.40,16.38
3389,4.04,-8.36,-24.92,397.461,-572.754,1032.227,-19.35,-8.55,-33.75,16.38
3398,-3.05,-5.50,-19.33,145.508,-311.035,1165.527,-19.35,-8.55,-33.75,16.62
3408,-7.14,0.69,-23.96,-259.277,179.687,926.270,-19.20,-4.65,-34.20,16.19
3418,4.37,-0.53,-24.75,138.184,-119.141,467.773,-18.45,-7.95,-31.95,16.38
3428,3.23,-0.39,-25.65,467.285,-281.738,903.320,-13.50,-6.45,-29.85,16.24
3438,-3.65,4.79,-26.02,133.301,-201.172,1204.102,-18.45,-6.30,-33.15,16.38
3448,-0.40,0.77,-31.26,-227.539,128.418,835.449,-16.65,-9.75,-31.80,16.38
3460,2.56,3.45,-27.58,471.191,-460.937,792.480,-15.45,-5.25,-31.50,16.43
3470,-3.54,9.18,-27.70,314.941,-365.723,1025.879,-20.70,-6.30,-35.40,16.38
3480,-4.66,6.95,-28.43,262.695,-174.805,783.691,-20.70,-6.30,-35.40,16.38
3490,-10.74,1.92,-32.20,-215.820,-141.113,1208.984,-18.00,-4.65,-32.40,16.19
3500,-4.51,-3.26,-29.92,354.980,-183.105,1196.289,-18.00,-9.15,-32.70,16.62
3510,-8.66,-3.64,-29.61,58.105,44.434,953.125,-14.10,-5.85,-31.20,16.43
3520,0.59,-1.37,-31.48,213.867,-37.598,1040.527,-18.90,-7.35,-35.55,16.43
3532,0.66,-4.53,-29.34,21.973,-170.410,1137.207,-18.90,-7.35,-35.55,16.58
3542,3.78,-1.06,-32.71,-77.637,-266.113,836.914,-15.30,-5.85,-33.15,16.38
3552,-1.60,1.70,-29.77,65.918,-159.668,839.844,-18.45,-8.25,-34.95,16.38
3562,-7.12,-2.78,-30.09,-97.168,33.203,1089.844,-18.45,-8.25,-34.95,16.19
3572,-4.21,-3.56,-33.25,-201.660,147.949,1122.559,-18.00,-5.55,-35.40,16.19
3582,4.61,-5.87,-31.71,126.465,57.617,875.000,-15.15,-8.55,-32.55,16.58
3592,8.60,-5.60,-30.96,-29.785,159.180,1008.789,-16.50,-4.65,-33.45,16.48
3604,3.85,-4.34,-35.58,110.840,-484.375,1007.812,-18.00,-8.25,-34.65,16.48
3614,6.46,-4.27,-25.25,484.863,-452.148,260.254,-18.00,-8.25,-34.65,16.29
3624,-3.93,4.42,-35.89,48.340,-878.418,902.832,-18.15,-5.25,-34.50,16.29
3634,-6.36,-4.92,-20.60,312.988,-704.102,1088.379,-15.15,-7.65,-33.75,16.38
3644,-11.31,0.66,-29.53,338.867,-68.848,352.051,-15.15,-7.65,-33.75,16.19
3654,-8.26,0.38,-20.54,243.652,-387.207,1109.863,-17.25,-9.15,-35.40,16.38
3664,3.24,6.47,-8.30,-231.445,-57.129,627.441,-13.20,-4.95,-30.75,16.38
3676,15.98,-0.08,-21.37,130.371,-507.812,541.992,-13.35,-9.15,-31.95,16.38
3686,11.53,5.81,-31.44,511.230,-715.820,758.301,-13.35,-9.15,-31.95,16.29
3696,11.73,2.98,-34.95,204.590,-702.148,552.734,-13.35,-9.15,-31.95,16.29
3706,2.36,3.34,-25.15,291.504,-416.504,1437.012,-12.30,-4.35,-32.40,16.43
3716,-6.71,-0.58,-33.59,-23.437,-358.887,819.336,-12.30,-4.35,-32.40,16.29
3726,-11.76,-5.41,-30.80,305.664,-479.980,1828.613,-13.20,-4.35,-32.40,16.10
3738,-9.83,-4.80,-30.39,164.551,-47.852,1149.414,-17.55,-3.90,-34.95,16.43
3748,-3.89,-4.42,-37.71,-69.336,125.000,687.500,-13.80,-7.95,-30.90,16.10
3758,1.20,-5.89,-29.20,387.207,-341.309,1016.602,-15.45,-3.75,-33.30,16.43
3768,2.41,0.95,-37.56,190.918,-374.023,755.859,-15.45,-3.75,-33.30,16.43
3778,-1.92,-5.87,-34.04,-30.273,121.094,1298.340,-13.50,-4.95,-32.55,16.48
3788,-0.01,-2.54,-32.27,119.629,-2.930,1297.363,-16.65,-6.45,-35.25,16.38
3798,-6.00,2.22,-33.18,0.488,-107.910,751.465,-16.65,-6.45,-35.25,16.58
3810,2.70,1.02,-35.52,-95.215,-448.730,1431.152,-17.10,-4.05,-34.50,16.43
3820,1.96,-1.56,-26.95,211.426,-292.969,990.234,-11.85,-7.50,-30.45,16.38
3830,5.86,0.17,-32.95,691.406,-517.578,1411.133,-14.70,-4.05,-34.50,16.29
3840,-0.98,4.05,-31.34,-158.691,-156.250,945.801,-13.20,-7.35,-33.00,16.38
3850,-5.96,-2.30,-35.36,-396.973,32.227,1532.715,-13.20,-7.35,-33.00,16.38
3860,4.53,4.45,-34.11,320.312,-432.617,742.187,-12.75,-7.35,-35.25,16.58
3870,11.76,4.75,-25.22,337.891,-322.754,918.457,-11.40,-3.15,-33.45,16.43
3882,11.25,0.49,-30.60,307.617,-578.125,811.523,-11.40,-3.15,-33.45,16.43
3892,-4.54,-3.21,-30.16,803.223,-775.391,1183.105,-10.95,-4.50,-31.80,16.29
3907,-10.15,-7.21,-30.83,565.918,-516.113,1484.375,-13.95,-4.95,-34.80,16.38
3916,-8.00,0.64,-27.47,-73.730,-217.285,1064.941,-10.65,-6.30,-31.65,16.29
3926,-6.87,-1.36,-34.79,146.484,123.535,1000.000,-15.75,-3.90,-33.90,16.43
3936,5.46,-3.01,-31.08,100.586,-142.090,1164.063,-15.75,-3.90,-33.90,16.43
3948,-1.24,-2.25,-34.52,-395.020,396.484,1415.039,-11.85,-6.75,-31.65,16.48
3958,0.60,2.94,-35.61,-15.137,-401.367,240.723,-13.80,-3.15,-34.95,16.48
3968,5.44,-3.14,-38.77,407.227,-623.047,15.625,-13.05,-7.05,-33.15,16.38
3978,10.31,-7.05,-29.13,499.512,-268.555,1314.453,-12.45,-3.30,-33.30,16.19
3988,14.17,-0.40,-29.15,479.492,-365.723,1180.664,-12.00,-6.15,-32.25,16.19
3998,4.33,1.78,-38.54,14.160,-458.496,994.141,-11.40,-0.75,-33.45,16.38
4008,1.73,-1.93,-41.34,202.148,-1052.734,698.730,-11.40,-0.75,-33.45,16.58
4020,-4.65,2.05,-29.60,6.348,273.437,341.309,-11.10,-2.70,-32.40,16.29
4030,-1.85,3.89,-31.40,451.660,-141.602,253.418,-13.05,-5.85,-32.40,16.48
4040,-1.72,-3.66,-24.94,629.395,-470.215,628.418,-11.25,-2.10,-33.75,16.58
4050,2.82,-2.45,-41.48,260.254,-287.109,1122.559,-11.25,-6.15,-33.00,16.48
4060,11.54,-2.85,-30.24,711.426,-313.965,1999.939,-11.25,-6.15,-33.00,16.19
4070,5.82,2.82,-28.08,92.285,-307.129,1604.980,-11.25,-6.15,-32.55,16.43
4082,-3.96,-4.12,-35.88,-160.645,106.934,1999.939,-9.90,-2.70,-32.40,16.10
4092,-12.71,2.81,-34.56,-120.605,489.746,1338.867,-9.90,-2.70,-32.40,16.10
4102,1.23,2.57,-28.73,310.059,401.367,317.871,-10.65,-3.15,-33.15,16.58
4111,10.11,0.37,-28.11,497.559,-709.961,105.957,-12.75,-7.65,-34.05,16.43
4121,13.18,-5.92,-32.74,443.359,-1054.688,1014.160,-9.90,-3.15,-33.15,16.43
4131,17.64,-8.96,-35.28,513.184,-874.023,1941.895,-12.60,-6.30,-34.20,16.19
4141,21.11,-2.68,-37.90,581.543,-876.465,1999.939,-12.60,-6.30,-34.20,16.48
4153,-7.19,-2.82,-32.37,249.512,-71.289,1999.939,-12.00,-5.25,-35.25,16.38
4163,-1.14,-4.94,-34.91,212.402,136.230,1999.939,-8.70,-1.05,-33.15,16.48
4173,-9.77,3.79,-26.08,520.020,-352.051,1999.939,-8.70,-1.05,-33.15,16.48
4183,-12.68,0.92,-27.85,483.398,-273.437,1304.688,-10.35,-1.50,-33.15,16.48
4193,-18.45,1.28,-36.36,142.090,-107.422,637.695,-10.35,-4.35,-34.65,16.38
4203,-4.90,0.10,-31.29,477.051,-198.730,489.258,-9.60,-1.95,-33.15,16.43
4213,-4.56,1.69,-30.71,487.305,-399.902,813.477,-10.50,-5.70,-33.75,16.24
4224,-6.40,6.66,-33.36,-252.441,-83.984,296.387,-10.50,-5.70,-33.75,16.29
4234,-1.40,2.00,-30.89,185.059,-804.687,551.270,-9.75,-4.95,-33.30,16.38
4244,-10.09,-1.21,-45.28,271.973,-280.273,62.500,-10.65,-1.05,-33.90,16.38
4254,-7.05,-7.85,-40.55,503.906,-820.312,1198.730,-10.65,-1.05,-33.90,16.38
4264,2.56,-6.23,-32.29,144.531,-403.809,632.812,-8.70,0.75,-34.20,16.38
4274,6.06,-2.65,-39.52,-114.258,-147.461,836.914,-8.40,-5.10,-31.95,16.19
4284,8.74,-2.92,-38.94,-300.293,147.949,973.633,-10.35,-1.50,-34.20,16.19
4296,16.09,-4.07,-38.13,233.887,-741.211,1463.867,-7.95,-2.70,-32.70,16.48
4306,9.76,4.02,-37.64,54.688,-379.883,1229.492,-7.95,-2.70,-32.70,16.24
4316,1.04,2.75,-39.55,79.102,-330.566,1442.383,-7.35,-1.65,-33.30,16.48
4326,-1.60,-0.89,-35.28,364.258,-733.887,1500.488,-9.60,-1.50,-35.40,16.38
4336,-2.55,5.01,-34.59,350.586,-559.570,1331.543,-9.60,-1.50,-35.40,16.38
4346,8.90,2.07,-34.34,367.676,-545.410,1182.129,-8.55,-2.85,-34.80,16.58
4356,7.67,5.06,-34.79,-21.973,-439.941,1370.605,-6.90,-0.75,-33.15,16.62
4368,12.56,5.80,-40.66,-54.199,9.277,1401.855,-6.90,-0.75,-34.65,16.48
4378,2.15,-0.51,-31.91,43.457,-110.840,1723.633,-6.90,-0.75,-34.65,16.38
4388,-7.38,0.50,-42.29,309.570,-509.766,1514.648,-6.60,-0.15,-35.55,16.38
4398,-6.85,2.02,-35.83,201.660,-772.949,859.375,-7.05,-4.05,-33.75,16.77
4408,-5.65,-1.85,-32.29,301.270,-298.340,950.195,-7.80,-0.45,-36.30,16.38
4423,-5.27,-1.02,-37.08,83.496,41.016,581.055,-6.60,-2.55,-34.50,16.10
4432,12.05,-4.95,-35.13,-262.695,-302.246,1306.641,-7.05,-0.90,-36.75,16.24
4444,3.18,6.00,-33.03,-233.398,-171.875,466.797,-6.60,0.90,-35.25,16.38
4454,2.66,0.16,-40.44,-640.137,-527.344,649.414,-6.30,0.90,-37.50,16.24
4464,-6.27,3.97,-30.40,-311.523,-18.066,993.652,-6.30,0.90,-37.50,16.43
4474,-1.46,7.51,-40.09,-152.832,-628.906,585.937,-5.70,0.75,-38.10,16.43
4484,0.47,6.15,-37.50,103.027,-735.840,1104.980,-5.55,0.45,-37.05,16.48
4494,-5.23,6.05,-31.58,-311.523,-625.977,1520.020,-5.85,1.35,-38.25,16.62
4504,-3.60,6.98,-37.90,107.910,-281.738,569.824,-4.50,0.75,-38.10,16.29
4516,-0.57,6.11,-30.20,62.988,-168.457,1078.613,-4.50,0.75,-38.10,16.43
4526,0.47,5.44,-37.40,-59.082,-312.012,984.375,-5.10,1.35,-38.25,16.38
4536,5.06,-1.21,-31.49,-98.145,70.313,815.430,-4.80,0.45,-38.25,16.19
4546,11.93,-2.24,-27.97,15.137,-506.348,1458.984,-4.80,0.45,-38.25,16.48
4556,9.34,3.02,-36.61,-259.766,-707.031,638.184,-3.45,0.30,-38.85,16.62
4566,-2.64,-2.97,-30.89,43.945,-894.531,723.633,-2.40,-0.15,-38.25,16.48
4576,-9.45,-3.84,-44.06,-49.805,-435.059,626.465,-3.60,0.90,-39.00,16.58
4588,-8.84,-10.47,-32.25,3.906,-275.879,966.309,-3.75,0.30,-38.10,16.77
4598,1.54,-14.34,-31.08,198.730,-468.750,1179.199,-2.55,0.30,-37.65,16.77
4608,2.29,-9.70,-31.88,-188.965,-354.980,1043.457,-2.40,0.45,-36.75,16.19
4618,-26.21,1.08,-55.78,114.258,-449.707,1097.168,-2.40,0.45,-36.75,16.38
4628,-1.50,-1.56,-48.05,-62.012,-614.746,665.039,-3.60,2.10,-38.25,16.48
4638,-3.89,-2.24,-40.22,-288.086,102.051,1115.234,-2.85,0.90,-39.00,16.62
4648,-1.16,-6.31,-41.64,-353.027,-256.348,1171.387,-3.00,1.50,-39.15,16.48
4660,-9.49,-0.65,-37.44,-41.992,-260.254,962.891,-2.85,0.90,-40.50,16.72
4670,-1.17,-2.82,-36.74,-255.371,-147.949,1276.855,-2.85,0.90,-40.50,16.38
4680,3.07,-1.15,-35.23,-11.719,-131.348,1216.309,-1.65,0.45,-39.75,16.48
4690,9.60,-2.10,-38.53,-35.156,-304.199,516.113,0.00,0.75,-38.85,16.19
4700,1.19,-0.93,-46.89,-303.223,16.113,929.199,0.00,0.75,-38.85,16.38
4710,2.35,1.83,-34.83,56.152,-359.863,430.176,0.45,0.15,-37.50,16.48
4719,7.53,-2.66,-35.12,238.770,-540.039,726.074,0.15,1.35,-37.05,16.48
4730,2.03,-1.42,-34.27,-8.789,-618.164,632.324,-0.15,-0.15,-37.50,16.48
4740,0.73,-1.55,-39.05,-371.582,-679.199,619.141,-1.65,1.35,-35.55,16.29
4750,-1.66,2.59,-38.83,10.254,-628.906,748.535,-1.65,1.35,-35.55,16.24
4760,4.68,4.93,-34.63,-115.234,-662.598,683.105,-0.45,0.90,-36.75,16.24
4770,-7.07,-0.28,-41.32,-26.367,-445.801,737.793,0.00,1.05,-37.35,16.58
4780,-7.37,-0.46,-37.62,-117.188,-739.746,906.738,0.00,1.05,-37.35,16.48
4790,-7.29,1.15,-37.37,111.328,-442.383,1314.941,-0.30,-0.75,-36.90,16.38
4801,-3.05,5.56,-32.68,122.559,-483.887,759.766,-0.45,0.45,-37.80,16.48
4811,4.25,1.66,-37.70,-20.508,-485.840,1161.621,-0.30,-0.75,-36.60,16.72
4821,11.69,7.49,-36.18,-66.895,-558.105,900.391,0.30,0.30,-36.60,16.29
4830,11.24,5.53,-41.76,-270.508,-482.910,777.344,0.30,0.30,-36.60,16.38
4840,11.82,8.46,-31.66,-369.629,-247.559,720.703,0.00,1.05,-36.60,16.48
4850,15.43,16.76,-32.67,-334.473,-860.840,1762.207,0.00,-0.30,-36.90,16.38
4860,-4.18,-2.89,-41.73,-128.418,-620.605,955.078,-0.15,1.65,-36.75,16.48
4872,-24.37,-2.44,-40.50,72.266,-921.875,1999.939,0.30,1.95,-36.90,16.43
4882,-30.22,1.07,-35.20,-254.883,-39.063,1307.617,0.15,0.45,-36.30,16.29
4892,-32.23,-3.62,-47.44,-133.789,-23.926,1412.109,0.75,0.75,-36.60,16.19
4902,-19.54,2.56,-34.72,-238.281,-137.207,1142.090,1.05,0.30,-36.60,16.48
4912,-8.57,-3.50,-43.21,-300.781,142.090,1255.371,1.05,0.30,-36.60,16.43
4922,-6.85,-3.62,-40.62,-305.664,80.566,1119.629,0.75,0.00,-35.40,16.43
4939,7.12,0.56,-32.72,-143.066,-554.687,1572.266,1.05,-0.75,-36.90,16.58
4948,-2.05,2.82,-33.94,-104.492,-515.137,1121.582,1.50,0.45,-37.80,16.48
4958,-2.50,0.04,-36.56,-178.223,-656.250,1869.141,2.25,0.75,-36.60,16.24
4968,-16.03,-4.08,-37.86,-42.480,-521.973,1329.590,2.25,0.75,-36.60,16.24
4978,-24.56,-9.34,-40.93,-167.969,231.445,1849.609,2.55,0.75,-36.90,16.58
4988,-13.97,-13.40,-36.31,-206.543,-150.391,1999.939,2.55,0.75,-36.15,16.58
4998,-2.43,-13.35,-28.75,-177.734,-32.227,1009.277,2.55,0.75,-36.15,16.62
5010,18.57,-13.73,-31.52,-144.043,-432.129,1517.090,2.85,-1.35,-35.25,16.48
5020,18.79,-17.26,-39.83,-28.809,132.812,404.785,2.40,-1.35,-36.30,16.62
5030,33.72,-15.95,-34.74,-29.297,-402.344,979.980,1.50,0.00,-36.15,16.43
5040,12.57,-14.69,-40.18,296.875,-1367.188,1022.949,1.50,0.00,-36.15,16.19
5050,-9.69,-14.73,-46.54,-378.906,-215.332,1145.020,4.20,0.75,-36.15,16.62
5060,-4.37,-13.01,-46.79,133.301,-751.953,905.762,3.00,1.05,-35.70,16.43
5070,-2.09,-11.86,-33.86,-10.742,-121.582,766.113,3.00,1.05,-35.70,16.48
5082,-1.08,-14.85,-35.40,-48.828,-627.930,521.973,2.10,0.15,-35.55,16.48
5092,10.33,-23.48,-35.60,-108.398,-556.641,760.254,3.45,0.00,-36.60,16.48
5102,3.37,-17.40,-40.20,316.895,-542.480,508.789,2.25,0.00,-36.15,16.58
5111,10.52,-26.30,-24.64,-245.117,-231.934,1999.939,1.20,-0.90,-37.05,16.38
5121,4.37,1.00,-27.69,-68.359,-1321.289,345.215,1.20,-0.90,-37.05,16.38
5131,-17.45,-12.10,-34.64,10.254,-58.105,607.422,2.10,-0.15,-36.75,16.38
5141,-5.90,-11.11,-36.81,229.004,-408.203,1039.063,2.40,-0.90,-35.55,16.77
5153,-12.19,-17.99,-30.83,156.250,-680.176,1420.898,2.40,-0.90,-35.55,16.48
5163,-8.91,-14.29,-32.13,-92.285,-648.437,1127.441,2.25,0.00,-36.15,16.38
5173,-9.15,-8.23,-23.20,-12.207,-479.004,521.484,2.10,0.90,-37.05,16.58
5183,-11.79,-5.11,-37.94,-125.000,-52.246,965.820,0.75,0.00,-36.60,16.38
5193,-7.37,-8.94,-38.28,-198.242,-162.109,1221.680,0.45,-0.45,-37.80,16.38
5203,-6.56,-0.35,-36.46,-608.398,251.465,1074.219,0.45,-0.45,-37.80,16.48
5213,-2.76,7.73,-36.00,-631.348,183.594,1246.094,2.25,-0.75,-36.90,16.58
5225,1.47,7.30,-34.81,-61.523,-315.918,1999.939,1.50,0.30,-36.60,16.48
5235,0.76,14.44,-28.74,-188.965,-199.219,1765.625,1.50,0.30,-36.60,16.43
5245,0.98,18.24,-29.82,-49.805,-115.723,397.949,1.20,0.90,-36.75,16.48
5255,-0.82,2.81,-138.73,62.988,-226.562,1224.121,2.55,0.00,-38.10,16.58
5264,3.37,15.53,-54.60,-157.715,-626.953,1350.098,3.75,0.00,-38.40,16.29
5274,-6.63,10.22,-26.12,65.430,-626.465,799.316,3.15,0.15,-37.50,16.38
5283,-16.76,7.50,-27.08,97.168,90.332,1361.328,3.15,0.15,-37.50,16.48
5294,-0.15,1.56,-29.96,-18.066,-30.762,1840.820,3.00,-0.75,-38.10,16.62
5304,2.90,13.24,-25.69,-275.391,145.020,1166.992,3.45,0.00,-36.60,16.43
5314,10.70,6.41,-23.25,-116.699,189.941,952.637,3.45,0.00,-36.60,16.29
5324,18.66,7.65,-21.25,-101.074,-204.590,1055.176,5.25,1.05,-37.35,16.19
5333,1.69,5.69,-31.91,93.262,-557.617,1265.137,4.20,1.05,-38.10,16.58
5343,-4.74,2.74,-27.45,-195.312,-336.914,1039.063,4.80,0.45,-37.50,16.38
5353,-9.40,-0.57,-29.99,-289.062,-53.711,1530.762,3.60,-0.45,-37.50,16.38
5365,-5.98,0.64,-23.00,47.852,-170.410,933.105,3.60,-0.45,-37.50,16.48
5375,5.15,-5.99,-27.45,-66.406,-7.324,1582.031,4.80,0.15,-36.75,16.48
5385,4.50,-4.91,-29.44,-227.539,-528.320,1163.574,5.85,1.65,-37.50,16.58
5395,3.69,0.55,-38.56,-128.418,-400.391,1314.941,5.85,1.65,-37.50,16.38
5404,2.28,-0.39,-27.51,115.723,-836.426,1226.563,6.45,0.75,-36.60,16.62
5414,1.27,2.88,-27.58,-78.125,-413.086,601.562,5.70,0.75,-37.65,16.58
5423,-2.23,-3.12,-30.42,-88.867,-172.852,1161.133,6.90,0.75,-36.90,16.19
5435,5.79,-0.23,-31.36,-208.496,-687.500,971.680,4.95,0.75,-38.10,16.48
5449,2.76,3.27,-35.26,-20.508,-435.547,810.059,4.95,0.30,-37.35,16.43
5459,-3.85,7.40,-31.87,-254.883,-134.766,996.582,6.45,-0.30,-38.40,16.43
5469,2.85,5.05,-39.15,198.730,-637.207,770.508,6.45,-0.30,-38.40,16.58
5478,-2.32,-1.61,-34.50,-174.316,-442.871,815.430,6.15,0.00,-37.65,16.19
5488,3.39,-4.20,-30.62,-143.555,-298.828,794.434,7.35,0.90,-38.25,16.43
5498,-0.18,1.30,-36.25,-42.480,-501.953,1578.613,8.40,0.30,-37.65,16.58
5510,3.11,-0.53,-37.04,238.281,-375.000,924.805,7.20,-0.75,-37.65,16.48
5520,8.42,-0.18,-34.20,-45.898,-463.379,1471.191,7.20,-0.75,-37.65,16.38
5530,-2.56,-0.15,-37.31,-11.719,-447.754,1999.939,7.65,1.50,-37.35,16.43
5540,-1.81,4.13,-32.50,-359.863,-173.340,1097.168,6.90,-0.30,-37.65,16.38
5550,-1.39,-0.08,-37.48,34.180,-161.133,756.836,8.40,0.30,-39.15,16.38
5560,1.95,0.99,-36.78,244.141,-500.488,688.965,8.70,0.30,-37.35,16.24
5569,-5.29,2.40,-33.98,-183.594,-264.160,1773.438,8.70,0.30,-37.35,16.62
5581,3.67,3.98,-30.09,75.195,-432.129,339.844,7.95,0.75,-37.65,16.38
5590,3.08,1.86,-35.96,-147.949,-108.398,1206.543,8.25,0.45,-38.55,16.48
5600,2.81,3.40,-36.76,-164.551,-440.430,1445.313,8.25,0.45,-38.55,16.62
5610,-1.43,1.66,-31.15,-36.621,-259.277,1117.676,7.80,0.15,-38.25,16.48
5620,-4.09,-0.69,-36.56,-161.133,-242.187,866.211,9.15,0.30,-35.70,16.29
5630,-4.94,0.30,-34.15,-44.922,-590.820,678.711,8.70,-0.30,-37.35,16.43
5640,-2.69,0.53,-34.50,-254.883,-501.953,764.160,9.90,-0.30,-37.35,16.72
5652,-2.57,0.45,-38.13,-93.262,-442.871,713.379,9.90,-0.30,-37.35,16.38
5662,2.92,-1.37,-33.26,119.629,-353.027,1054.688,9.75,-0.45,-37.05,16.58
5672,0.35,-6.60,-40.69,1.465,-622.559,1528.320,9.90,-0.75,-38.10,16.38
5682,6.33,2.19,-32.20,-73.730,-246.094,1393.555,9.90,-0.75,-38.10,16.62
5692,-1.39,-0.26,-40.38,-250.977,-158.203,961.426,9.75,-0.15,-39.00,16.58
5702,2.94,2.47,-45.01,-89.844,-529.297,710.449,10.50,-1.35,-36.75,16.29
5712,9.34,1.87,-37.07,157.227,-672.852,1001.465,11.25,-0.45,-38.25,16.38
5724,-5.97,3.25,-45.92,-104.492,-80.566,645.508,11.40,-1.95,-36.90,16.29
5734,-1.52,-0.35,-40.33,102.539,-396.484,514.160,11.40,-1.95,-36.90,16.48
5744,6.20,0.45,-41.50,321.777,-963.867,628.906,11.10,-1.50,-38.10,16.29
5754,2.61,-0.85,-41.65,155.762,-709.473,1407.715,9.30,-0.15,-38.55,16.38
5764,5.12,3.92,-43.92,-239.258,-407.715,1281.738,9.30,-0.15,-38.55,16.72
5774,7.85,-0.53,-46.25,111.816,-722.656,689.941,11.40,-0.75,-39.15,16.38
5784,1.82,-4.72,-37.69,-133.301,-336.426,1166.504,11.25,-2.55,-37.80,16.48
5796,1.76,-4.99,-47.17,-212.402,-479.980,764.648,12.45,-0.15,-37.80,16.48
5806,-6.47,0.25,-49.36,-209.961,-176.270,922.363,13.05,-2.25,-37.35,16.43
5816,0.73,1.48,-48.97,-97.168,-93.750,494.141,13.05,-2.25,-37.35,16.58
5826,14.03,-1.03,-40.35,52.246,-1198.730,693.359,13.05,-1.95,-37.35,16.72
5836,-8.20,-9.92,-37.28,86.426,98.145,1020.508,12.00,-0.45,-38.25,16.72
5846,-10.60,-9.23,-42.16,31.250,-560.547,1685.547,12.00,-0.45,-38.25,16.38
5856,-7.88,-8.86,-39.64,41.992,191.406,1138.672,11.85,-1.05,-38.85,16.38
5869,5.60,-8.64,-39.98,56.152,-751.953,1194.336,13.35,-4.35,-38.40,16.48
5879,11.20,-9.44,-41.72,-134.766,-398.437,1915.039,12.45,-0.90,-38.25,16.43
5889,9.57,-7.78,-50.63,161.621,-679.199,1222.656,12.75,-2.55,-37.50,16.58
5899,3.88,3.40,-47.21,-825.195,-234.375,1078.613,12.75,-2.55,-37.50,16.24
5909,6.62,3.56,-43.99,196.777,-1076.172,387.207,12.75,-2.85,-37.80,16.62
5919,2.29,-2.64,-43.24,-150.391,-155.762,791.504,14.55,-0.75,-38.10,16.48
5931,0.05,4.96,-46.37,-105.469,-429.687,177.246,13.20,-1.65,-37.50,16.43
5941,-8.96,6.60,-52.65,176.270,-87.402,549.316,16.05,-3.90,-38.40,16.58
5951,-5.91,1.55,-45.03,-48.340,-100.098,941.406,14.70,-2.10,-38.55,16.43
5973,-0.21,0.65,-40.63,108.887,-799.805,1074.707,13.20,-4.05,-37.50,16.38
5982,-5.14,-0.92,-71.74,-28.320,-748.047,992.676,15.30,-4.35,-37.35,16.38
5992,-5.40,-1.79,-40.70,-253.906,-370.117,1275.391,16.05,-1.05,-37.35,16.29
6002,-2.73,5.75,-42.21,-195.801,159.668,720.703,14.55,-4.65,-37.65,16.43
6012,0.66,-0.37,-47.73,-124.512,-143.555,630.371,15.90,-2.10,-37.80,16.77
6022,-2.53,5.89,-50.48,141.602,-172.852,959.473,15.90,-2.10,-37.80,16.48
6034,3.55,2.95,-45.52,23.437,-472.656,780.273,16.50,-2.70,-38.10,16.29
6044,-3.01,3.30,-51.75,-151.855,-409.180,834.961,15.30,-4.65,-39.60,16.62
6054,1.33,2.27,-51.57,107.910,-715.820,777.344,15.30,-4.65,-39.60,16.58
6064,-2.17,-2.82,-42.31,-111.328,-782.227,1169.922,15.15,-4.05,-38.25,16.19
6074,-8.72,-4.82,-48.68,80.566,-618.164,982.910,17.25,-4.65,-39.90,16.29
6084,3.09,0.49,-44.09,-255.859,158.203,1374.512,15.15,-4.50,-38.55,16.48
6093,17.22,3.76,-53.82,-103.027,-269.531,890.137,16.80,-3.45,-37.35,16.58
6105,3.43,4.85,-52.86,-21.973,-1007.812,745.605,16.80,-3.45,-37.35,16.72
6115,-20.62,5.21,-40.92,-277.832,-939.941,976.562,17.40,-4.05,-36.75,16.48
6125,-14.88,4.82,-49.57,-307.129,-302.246,522.461,15.30,-5.85,-37.35,16.58
6135,-4.60,9.58,-49.11,158.203,56.641,616.699,15.30,-5.85,-37.35,16.19
6144,3.28,6.08,-37.35,880.859,-360.840,846.191,16.50,-6.30,-38.40,16.58
6154,-1.53,-2.82,-53.72,675.293,-269.043,268.555,18.00,-3.15,-38.40,16.48
6166,14.27,-3.28,-44.31,-607.910,-329.590,560.547,18.15,-5.70,-40.05,16.62
6176,-1.42,-2.57,-44.47,216.309,-632.812,1037.598,17.55,-5.85,-37.35,16.48
6186,-15.00,3.78,-45.41,-235.840,-132.324,318.848,17.55,-5.85,-37.35,16.62
6196,-2.38,-2.65,-50.94,266.602,-252.441,994.629,16.50,-3.90,-38.40,16.62
6206,6.95,-4.96,-39.20,300.781,-262.695,970.703,17.85,-7.35,-38.55,16.38
6216,5.30,0.11,-41.34,49.805,-770.996,91.309,17.85,-7.35,-38.55,16.48
6225,0.82,-10.49,-37.02,-327.637,-570.312,1446.289,18.15,-6.15,-37.05,16.43
6237,0.40,-1.96,-41.98,-30.273,-519.043,1147.461,19.20,-5.10,-38.10,16.48
6247,0.80,2.97,-42.53,135.742,-94.727,900.879,18.45,-7.50,-39.60,16.43
6257,2.82,-0.71,-34.42,-162.109,-217.773,995.117,18.75,-6.30,-38.85,16.72
6267,-3.81,-0.86,-44.72,-226.074,-93.262,1335.449,18.75,-6.30,-38.85,16.48
6277,0.02,6.81,-39.83,-193.848,51.758,1244.141,19.95,-6.75,-38.85,16.38
6287,7.12,0.60,-44.84,-25.879,-321.777,1746.582,19.50,-7.95,-38.85,16.77
6297,-4.18,1.64,-58.12,-277.832,106.934,1732.422,19.50,-7.95,-38.85,16.58
6309,-1.27,2.73,-57.98,-151.367,-732.910,661.621,19.50,-7.05,-38.40,16.62
6319,0.11,0.94,-43.20,90.820,-352.051,675.293,19.65,-6.90,-39.30,16.62
6329,-3.48,0.07,-38.65,57.129,-550.781,1013.184,20.10,-7.65,-38.25,16.72
6339,2.89,1.36,-39.18,194.824,-480.469,880.859,19.50,-5.55,-39.60,16.62
6349,3.57,0.76,-46.57,140.625,-566.895,1266.113,19.50,-5.55,-39.60,16.72
6359,1.27,0.69,-36.54,192.871,-485.840,997.070,19.65,-7.35,-39.30,16.48
6368,3.37,4.00,-46.97,-89.844,-25.391,558.594,20.55,-8.85,-39.00,16.58
6380,4.37,2.29,-37.40,6.348,-267.090,869.141,21.90,-6.30,-39.15,16.62
6390,-1.52,2.23,-43.53,-122.070,-117.188,992.676,20.10,-9.75,-39.00,16.77
6400,3.03,0.60,-37.50,-104.004,-291.016,1050.781,19.95,-8.25,-40.65,16.72
6410,-4.02,-0.39,-41.63,-314.453,-232.422,872.559,21.90,-9.45,-39.60,16.48
6420,-5.80,-1.69,-51.40,-203.125,235.352,970.215,20.10,-6.45,-39.00,16.38
6430,-13.63,-3.57,-38.36,-83.984,37.598,871.582,20.10,-6.45,-39.00,16.43
6440,-5.72,-4.90,-32.83,189.453,-612.305,1331.543,20.85,-8.10,-41.55,16.72
6452,-5.02,4.32,-39.27,-372.070,384.277,804.687,20.25,-9.15,-41.40,16.58
6462,1.67,-4.99,-46.13,-152.344,-43.457,954.590,20.70,-10.65,-38.85,16.48
6472,-4.04,-1.40,-47.22,-112.305,36.621,969.727,20.10,-9.75,-40.05,16.58
6488,0.26,-0.56,-39.98,-149.414,-424.316,801.270,20.85,-10.05,-39.00,16.72
6497,-5.91,-3.44,-40.44,-165.527,148.437,1187.988,21.00,-9.45,-39.60,16.43
6509,-4.23,2.24,-33.17,349.609,-317.871,929.199,21.00,-9.45,-39.60,16.58
6519,-6.61,0.75,-30.83,-119.629,-393.066,727.539,19.95,-9.90,-40.65,16.72
6529,-6.97,-3.81,-43.85,-432.617,-208.008,828.613,22.20,-9.45,-37.65,16.38
6539,0.17,-3.90,-41.59,-10.254,-426.270,1239.258,21.30,-10.05,-40.05,16.38
6549,-2.08,-3.71,-45.27,252.930,-480.469,1087.891,22.65,-9.90,-39.15,16.38
6559,-3.20,-5.57,-39.28,123.535,-335.937,1342.773,22.65,-9.90,-39.15,16.72
6569,0.39,-3.40,-44.51,-109.863,-209.961,1542.480,22.95,-11.10,-38.85,16.48
6581,1.66,3.10,-32.73,258.789,-104.980,989.258,21.45,-11.10,-39.15,16.58
6591,12.33,-4.70,-33.66,434.082,-662.109,1419.922,21.00,-11.85,-38.85,16.77
6601,15.05,-0.76,-42.74,253.418,-698.730,1570.801,22.35,-10.50,-39.00,16.77
6611,11.75,1.14,-33.47,6.348,-389.160,873.535,22.35,-10.50,-39.00,16.24
6620,8.81,-2.50,-46.01,-84.473,-483.887,1042.480,22.20,-13.05,-40.65,16.48
6630,0.86,-3.78,-45.96,-69.824,-35.645,772.949,22.35,-10.05,-39.75,16.62
6640,0.27,0.86,-44.28,-48.828,14.160,495.605,22.35,-10.05,-39.75,16.48
6652,9.18,4.12,-36.24,404.785,-937.012,1169.922,21.90,-12.30,-38.85,16.58
6662,1.85,2.59,-40.20,287.109,-629.883,1250.000,21.90,-12.30,-38.85,16.77
6671,-4.17,2.33,-35.33,270.996,-437.988,331.055,24.60,-13.05,-38.85,16.38
6681,-4.76,1.37,-36.64,31.738,-2.441,557.129,22.35,-12.15,-39.75,16.48
6691,5.05,-1.95,-33.54,267.090,-226.562,952.637,22.35,-12.15,-39.75,16.48
6701,6.38,-1.44,-32.89,57.129,-697.754,526.855,22.65,-12.75,-1.95,16.58
6711,0.96,4.77,-40.26,164.551,-724.609,328.125,22.65,-12.75,-40.35,16.48
6723,-7.25,1.76,-40.95,130.859,-472.656,1175.781,21.30,-13.20,-40.80,16.38
6733,-7.50,3.55,-35.08,-150.391,-200.195,956.055,23.70,-11.55,-39.15,16.48
6743,-9.92,3.24,-40.82,-192.383,-28.809,1378.906,23.70,-11.55,-39.15,16.72
6753,-15.79,-0.83,-40.92,-62.988,-81.543,1215.820,23.40,-11.10,-38.40,16.48
6763,-3.48,6.08,-45.51,206.543,-518.066,741.699,23.40,-13.80,-39.60,16.38
6773,-0.02,0.51,-38.08,23.437,-171.387,1453.125,22.05,-12.90,-40.05,16.62
6785,3.46,1.15,-39.75,-225.586,-539.062,307.617,24.90,-15.00,-38.10,16.43
6795,-1.83,8.69,-41.26,-390.137,-146.973,519.531,24.90,-15.00,-38.10,16.77
6805,-5.98,8.98,-37.73,-53.711,-243.652,799.316,24.60,-13.80,-38.40,16.62
6815,1.19,7.18,-32.53,-321.777,-49.805,911.621,23.40,-14.25,-41.40,16.62
6825,9.53,3.99,-33.31,-35.156,-479.492,1841.309,23.70,-14.70,-39.60,16.38
6835,-4.63,7.68,-39.44,-136.719,150.391,1325.684,24.60,-15.90,-41.10,16.19
6845,8.81,7.10,-47.73,242.676,-749.023,1281.250,24.60,-12.75,-40.35,16.82
6857,-8.08,2.29,-39.63,334.473,-445.801,1420.898,25.35,-16.65,-38.85,16.62
6867,-8.22,1.69,-36.33,-54.688,-526.367,1002.441,23.55,-14.40,-40.50,16.72
6877,-8.22,-5.51,-29.42,273.437,-137.207,382.324,23.55,-14.40,-40.50,16.48
6887,3.05,-3.21,-31.25,276.855,-398.437,-11.719,23.55,-17.70,-39.30,16.58
6897,2.34,-13.05,-54.32,-309.082,-258.301,1125.488,23.40,-14.25,-39.60,16.72
6907,6.51,-17.64,-35.76,520.508,-491.211,1482.910,24.75,-17.25,-39.30,16.38
6917,6.31,-6.88,-41.95,205.566,-386.719,1044.434,24.15,-15.00,-40.65,16.58
6929,-1.69,-3.69,-59.09,-4.395,-210.449,1588.379,26.10,-15.00,-39.15,16.29
6939,2.98,-4.57,-39.48,223.633,-720.215,1472.168,24.15,-16.65,-40.35,16.38
6949,-1.21,-1.83,-40.80,-165.527,-116.699,1063.477,24.90,-14.70,-39.60,16.72
6959,-8.00,2.11,-85.83,80.078,-526.855,881.348,24.90,-14.70,-39.60,16.38
6969,-7.47,3.89,-16.09,-14.160,-294.922,512.207,24.60,-15.45,-40.65,16.58
6979,-7.73,6.56,-32.15,-18.555,-260.254,1232.422,25.05,-17.25,-39.00,16.43
6989,-0.65,8.39,-39.12,91.797,-468.262,1484.863,22.95,-15.90,-40.65,16.29
7006,-2.20,7.56,-26.51,-166.016,-208.496,1053.711,25.80,-16.05,-39.30,16.58
7015,1.78,-3.12,-43.45,6.836,-349.609,548.828,24.75,-15.60,-40.80,16.48
7025,5.83,7.02,-31.80,14.160,-376.953,955.566,24.30,-18.45,-38.55,16.72
7034,5.28,2.85,-38.82,363.281,-498.047,441.895,24.30,-18.45,-38.55,16.48
7044,1.24,4.11,-34.65,-59.082,-523.437,1112.305,27.00,-17.70,-38.55,16.58
7054,3.89,-0.96,-32.01,302.734,-555.664,1240.234,23.40,-17.85,-40.65,16.38
7064,-13.41,-7.27,-36.29,-306.641,-723.145,1322.754,23.70,-17.85,-40.35,16.77
7076,-16.50,-0.08,-42.89,288.574,-519.043,959.961,24.30,-18.45,-40.50,16.43
7086,-9.70,-7.89,-37.87,170.898,-310.059,1337.402,24.30,-18.45,-40.50,16.48
7096,-5.57,-7.35,-43.61,-166.504,-155.762,1724.121,24.15,-19.80,-39.15,16.62
7106,1.19,-4.71,-44.15,58.594,-300.293,716.797,23.55,-18.90,-41.55,16.62
7116,10.26,-5.11,-42.53,-97.168,-459.473,583.984,23.55,-18.90,-41.55,16.58
7126,5.76,-6.21,-34.86,110.352,-552.246,272.949,24.30,-19.20,-41.25,16.58
7136,8.07,3.04,-38.79,-118.652,-581.543,1281.738,24.00,-17.25,-40.05,16.58
7148,7.51,2.94,-35.35,410.645,-490.234,685.059,24.75,-21.30,-39.75,16.43
7158,-0.03,5.56,-40.40,184.570,-465.820,845.215,22.65,-17.40,-41.10,16.43
7168,5.33,6.60,-37.89,43.945,-83.496,745.117,22.65,-17.40,-41.10,16.43
7178,6.34,2.60,-44.73,-6.836,-699.219,1203.613,24.90,-19.80,-40.35,16.38
7188,-11.48,3.45,-44.31,-34.180,-210.449,518.066,24.15,-19.05,-39.90,16.72
7198,-2.63,5.34,-31.07,202.637,-459.473,780.762,24.15,-19.05,-39.90,16.58
7208,3.85,-1.56,-38.71,-191.895,-193.359,681.641,25.50,-18.45,-41.25,16.24
7220,6.73,5.82,-30.69,56.641,-554.199,578.613,25.65,-20.70,-40.35,16.72
7230,2.50,1.02,-36.05,331.543,-802.246,693.359,24.75,-20.40,-40.80,16.38
7240,4.46,-7.86,-28.91,2.441,-783.691,857.910,24.90,-19.80,-40.65,16.72
7250,1.78,-7.56,-32.68,12.207,-626.953,1625.000,24.90,-19.80,-40.65,16.77
7260,-1.60,-9.40,-43.25,-29.297,50.781,869.629,24.75,-20.10,-40.50,16.48
7270,-0.76,-14.94,-37.53,-250.488,-191.406,1846.191,26.25,-21.30,-39.75,16.58
7280,-2.37,-10.31,-27.80,218.262,-604.004,386.719,24.90,-23.10,-40.35,16.58
7292,-1.98,-4.66,-45.17,-53.711,-583.984,1073.730,25.50,-23.25,-41.25,16.43
7302,5.44,1.02,-32.98,0.000,-828.125,750.977,25.50,-23.25,-41.25,16.48
7311,-8.40,3.79,-38.12,97.168,-495.605,1257.813,23.40,-20.70,-42.15,16.58
7321,-8.55,9.66,-47.55,274.902,-413.574,345.703,25.05,-20.85,-39.75,16.91
7331,-6.69,17.25,-39.64,-93.262,-33.691,348.145,25.05,-20.85,-39.75,16.72
7341,0.21,3.71,-43.82,40.527,-451.172,994.141,26.70,-20.10,-42.45,16.72
7350,-0.60,12.94,-41.72,-3.418,-490.723,1170.410,25.65,-24.30,-39.90,16.38
7362,-6.48,8.23,-41.91,-393.555,-502.930,982.422,24.00,-22.05,-42.00,16.38
7372,-1.36,-3.89,-44.21,363.770,-808.105,915.527,25.50,-22.05,-40.50,16.38
7382,2.25,5.26,-38.18,286.133,-526.367,493.164,25.50,-22.05,-40.50,16.43
7392,-7.68,-5.03,-36.56,220.215,-504.883,1511.230,25.65,-22.65,-40.65,16.58
7402,-3.34,-1.68,-47.72,332.520,-59.570,1640.137,25.65,-24.30,-40.65,16.58
7412,-11.34,-6.24,-48.44,-391.113,-962.402,1999.939,25.65,-24.30,-40.65,16.77
7424,-22.16,-2.98,-48.15,-622.070,235.352,975.098,24.30,-23.70,-40.80,16.72
7434,13.22,-12.97,-47.54,659.180,-1204.102,-20.508,24.00,-24.90,-40.80,16.62
7444,-11.29,6.52,-39.61,-141.602,-34.180,476.074,25.05,-22.05,-39.75,16.48
7454,-5.14,-6.47,-45.97,99.121,-1016.602,1445.801,25.05,-22.05,-39.75,16.38
7464,-2.66,-3.10,-42.24,-109.375,-840.820,-157.715,22.35,-24.45,-41.55,16.77
7474,-24.59,2.86,-46.40,-291.016,89.355,897.461,24.00,-23.70,-41.25,16.72
7484,-6.98,1.65,-31.35,195.801,-218.262,1460.449,24.00,-23.70,-41.25,16.62
7496,-6.89,-2.50,-32.73,-470.215,-872.559,1999.939,23.55,-22.80,-42.00,16.72
7506,0.43,8.63,-31.11,411.621,-843.262,118.652,22.95,-26.25,-39.60,16.48
7521,-5.50,8.44,-47.61,-433.594,282.227,797.363,24.15,-26.25,-41.40,16.48
7530,-2.24,-2.06,-43.48,825.195,-1195.801,1587.402,24.90,-25.50,-42.15,16.82
7540,-4.56,3.60,-49.68,-222.656,-178.223,504.395,24.90,-25.50,-42.15,16.62
7550,-2.59,-8.62,-41.48,964.355,-485.840,1415.039,24.90,-26.25,-40.65,16.77
7560,-9.21,-4.37,-158.52,-208.008,-169.434,1037.598,23.70,-25.05,-41.10,16.48
7572,0.99,-5.36,-25.09,-304.687,-217.773,455.566,23.70,-25.05,-41.10,16.48
7582,0.11,-18.57,-39.10,188.477,-630.859,1600.586,23.55,-27.60,-41.55,16.48
7592,0.31,2.35,-36.66,-76.172,-451.660,711.426,23.55,-25.20,-41.25,16.48
7602,1.99,-11.92,-34.10,21.484,-1067.383,1999.939,24.30,-27.15,-40.80,16.58
7612,15.85,-4.66,-40.48,51.758,-797.363,315.430,23.25,-27.15,-41.25,16.48
7622,-26.00,4.53,-31.53,-357.422,-293.457,940.918,23.25,-27.15,-41.25,16.58
7632,11.26,7.82,-35.30,525.391,-1003.906,-526.855,24.00,-27.60,-40.80,16.72
7643,3.44,-1.87,-32.11,508.789,-964.355,1999.939,22.95,-29.40,-41.10,16.48
7653,9.68,11.63,-29.39,-184.570,-829.102,489.746,24.15,-28.20,-40.35,16.72
7663,-3.47,1.07,-20.75,-62.012,-219.238,1999.939,22.65,-27.75,-42.60,16.43
7673,19.98,0.14,-23.86,650.391,-819.824,105.957,23.40,-25.05,-41.85,16.48
7683,-10.88,10.76,-32.75,287.109,-344.727,30.273,23.25,-28.80,-40.05,16.72
7693,5.95,-9.84,-37.18,362.305,-754.395,1001.953,23.25,-28.80,-40.05,16.58
7703,1.91,2.58,-28.09,-144.043,-791.016,413.574,23.70,-26.55,-40.65,16.77
7715,0.29,-0.49,-19.85,170.410,-493.164,1148.926,22.65,-29.85,-41.85,16.72
7725,-11.62,-0.37,-37.47,-420.898,-471.191,1999.939,21.45,-27.75,-43.35,16.62
7735,2.55,-1.63,-33.63,364.746,-852.051,-92.773,23.70,-28.20,-40.65,16.72
7745,-13.89,4.98,-33.99,-682.617,-190.430,880.371,23.25,-28.80,-41.25,16.62
7755,8.12,-4.24,-42.72,445.312,-882.324,970.703,22.65,-28.20,-41.40,16.29
7765,-5.60,5.40,-42.00,8.301,-470.703,601.562,23.40,-27.75,-41.40,16.62
7775,0.18,-1.00,-20.42,-146.484,-465.820,1999.939,23.40,-27.75,-41.40,16.72
7787,-12.66,4.17,-43.95,-841.309,-365.234,1999.939,22.35,-27.15,-41.55,16.72
7797,2.14,1.53,-38.30,291.504,-665.527,647.461,22.65,-29.40,-40.65,16.58
7806,2.82,3.48,-36.50,-54.199,-385.742,906.738,22.05,-29.25,-43.50,16.48
7816,-3.33,1.97,-37.68,-148.437,-717.773,1999.939,22.95,-28.20,-41.10,16.43
7826,14.79,0.41,-33.90,298.340,-809.082,5.859,22.95,-28.20,-41.10,16.10
7836,-7.99,-1.84,-41.83,-972.168,389.648,909.668,21.30,-28.80,-42.00,16.48
7848,-15.37,4.92,-40.24,-11.230,-92.285,-322.266,21.90,-28.20,-41.85,16.48
7858,1.92,-5.11,-33.43,238.770,-1094.727,62.988,21.90,-28.20,-41.85,16.43
7868,-0.24,0.06,-45.80,-254.395,-139.648,1134.766,22.35,-31.20,-42.75,16.58
7878,-3.96,-6.82,-39.13,179.199,-478.027,1860.840,22.80,-30.00,-42.75,16.62
7888,-0.95,1.26,-42.62,24.414,-238.770,934.082,21.60,-30.75,-42.45,16.58
7898,-6.16,-10.19,-41.21,-404.785,-407.715,1999.939,22.05,-29.25,-43.95,16.38
7908,9.48,-3.34,-42.85,-176.270,-591.309,506.836,22.05,-29.25,-43.95,16.58
7920,15.07,-3.54,-46.86,214.844,-865.234,214.355,21.90,-32.25,-41.40,16.29
7930,-23.20,-5.54,-49.76,-901.367,428.223,1538.574,22.65,-31.05,-42.90,16.38
7940,9.85,-2.46,-34.31,531.738,-1100.098,-133.301,22.65,-31.05,-42.90,16.38
7950,-11.87,2.26,-43.89,-483.887,-279.297,187.988,22.05,-30.75,-43.95,16.77
7960,2.47,-1.99,-34.50,437.988,-247.559,1785.645,20.25,-29.85,-42.60,16.72
7970,5.21,7.92,-39.80,-251.953,-681.641,1144.531,22.05,-30.75,-43.20,16.38
7980,-1.68,-3.56,-43.63,122.559,-1084.473,1999.939,21.45,-32.25,-41.85,16.48
7992,-0.13,0.75,-44.80,-172.852,-188.477,1999.939,21.45,-32.25,-41.85,16.43
8002,21.60,1.37,-45.07,220.703,-877.930,212.402,22.20,-31.05,-42.15,16.38
8012,-5.20,2.05,-47.20,-424.316,-180.176,864.258,20.25,-32.25,-43.65,16.91
8022,15.22,-1.97,-39.96,97.656,-1192.383,524.902,20.25,-32.25,-43.65,16.82
8037,0.85,0.98,-39.01,-270.508,-744.629,1388.672,20.25,-30.15,-42.90,16.58
8046,-1.72,2.72,-36.26,-296.875,-441.406,739.258,21.45,-30.60,-42.90,16.38
8058,-5.28,0.53,-43.32,-176.270,-293.945,1289.063,21.45,-31.05,-43.35,16.43
8068,-7.32,3.31,-38.94,203.613,-603.027,1118.164,21.45,-31.05,-43.35,16.82
8078,-6.72,4.02,-26.58,219.727,-69.336,1029.297,21.60,-30.75,-42.75,16.24
8088,6.27,-0.98,-43.44,-170.898,-379.883,1212.891,20.85,-30.45,-42.75,16.58
8098,5.85,-1.83,-45.49,-203.613,-426.758,1754.883,20.85,-30.45,-42.75,16.72
8108,7.17,0.33,-38.00,-219.238,-661.621,662.598,19.95,-32.25,-42.15,16.58
8118,0.50,-2.04,-38.29,-73.730,-756.348,1385.254,20.85,-32.85,-42.00,16.62
8130,-2.95,0.69,-36.85,-51.270,-283.691,1217.285,20.25,-31.05,-42.15,16.48
8140,0.45,-4.69,-37.91,-56.641,-698.242,1216.309,20.25,-31.80,-42.60,16.58
8150,-1.95,2.01,-40.60,-260.742,-525.879,1134.766,20.25,-31.80,-42.60,16.72
8160,5.78,-3.91,-42.19,-351.074,-530.273,770.020,19.50,-33.00,-42.15,16.38
8170,-0.52,1.13,-40.10,-187.988,-212.891,1740.234,19.20,-31.80,-43.65,16.48
8180,3.40,0.13,-32.50,-139.160,-557.129,1247.070,19.50,-31.80,-42.60,16.62
8190,3.73,8.10,-39.94,-52.246,-104.980,1357.422,20.10,-33.60,-43.50,16.58
8201,13.02,6.28,-31.98,-109.863,-551.270,415.039,20.10,-33.60,-42.00,16.72
8211,1.02,0.53,-32.07,70.313,-330.566,1456.543,19.20,-32.55,-42.15,16.38
8220,4.75,-11.39,-35.73,76.660,-294.434,861.816,20.70,-32.25,-42.90,16.48
8230,-1.89,-2.40,-37.62,-148.437,-736.816,1158.691,20.70,-32.25,-42.90,16.58
8240,1.75,-3.13,-37.11,51.270,-449.219,877.930,19.20,-33.45,-42.90,16.77
8250,-5.29,-2.37,-33.85,-122.559,-264.160,47.852,18.75,-33.00,-41.85,16.58
8262,2.65,-3.19,-29.74,-24.902,-405.762,671.875,17.55,-33.45,-42.60,16.48
8272,1.76,-10.03,-42.84,-10.254,-560.059,830.078,19.20,-33.45,-42.15,16.62
8282,6.21,-4.40,-29.63,-45.898,-587.402,928.711,19.20,-33.75,-42.15,16.58
8292,5.04,5.34,-35.34,-300.293,-789.062,1090.332,19.50,-32.25,-42.60,16.62
8302,-0.39,2.05,-38.89,-261.230,-210.449,1306.641,18.15,-32.85,-41.25,16.58
8312,3.52,5.39,-31.59,61.523,-673.828,429.199,18.15,-32.85,-41.25,16.72
8321,2.31,2.66,-34.25,-197.754,-747.559,1034.180,18.00,-33.75,-42.90,16.77
8333,2.91,-2.96,-35.14,-246.094,-365.234,602.539,17.55,-34.65,-42.60,16.62
8343,-1.76,0.80,-32.27,-161.133,-354.492,1158.691,19.20,-34.65,-42.15,16.48
8353,3.31,-7.84,-36.20,-30.762,-253.906,1200.684,18.15,-34.35,-41.55,16.48
8363,-4.44,-5.96,-33.05,83.008,-432.617,1102.051,18.15,-34.35,-41.55,16.48
8373,-7.15,2.08,-34.04,128.906,-463.379,622.559,18.00,-34.95,-41.40,16.48
8383,-4.88,1.67,-31.85,133.789,-327.148,458.984,17.40,-32.85,-42.00,16.62
8393,5.74,-0.65,-31.48,-192.383,-316.895,1016.602,17.40,-32.85,-42.00,16.62
8405,7.37,6.65,-27.42,-65.918,-420.898,748.047,17.10,-35.25,-42.00,16.72
8415,-0.98,2.80,-37.63,-5.371,-285.645,1371.094,17.40,-35.25,-40.80,16.58
8425,3.24,0.02,-26.51,124.512,-318.359,689.941,16.80,-33.75,-41.10,16.58
8435,-5.15,1.47,-31.35,-87.402,-361.816,617.187,16.80,-33.75,-41.10,16.48
8445,-2.14,-0.56,-34.20,-71.777,-401.367,646.484,17.25,-34.95,-41.40,16.38
8455,-2.12,1.58,-33.44,-170.410,-311.523,1168.945,16.65,-35.55,-42.45,16.82
8465,4.72,-4.25,-34.00,8.789,-339.355,658.203,16.65,-35.55,-42.45,16.77
8477,6.57,2.92,-28.60,-181.641,-362.793,479.492,16.65,-34.80,-41.55,16.58
8487,4.26,-7.37,-52.86,-380.859,-433.594,1248.047,17.85,-35.25,-40.80,16.48
8497,-1.21,-3.85,-41.82,-65.918,-259.766,1377.441,16.80,-35.85,-41.10,16.62
8507,0.51,-4.76,-37.62,42.969,-535.156,1093.750,17.40,-35.55,-42.00,16.77
8517,-1.39,-3.85,-34.94,-199.707,-501.953,1112.305,17.40,-35.55,-42.00,16.29
8527,-6.49,-3.76,-36.95,-211.914,144.531,975.098,16.50,-34.95,-40.65,16.10
8539,3.54,-1.47,-33.02,58.594,-312.012,839.844,16.50,-34.20,-40.65,16.19
8554,-3.45,-0.38,-33.02,-214.844,-334.961,1090.332,16.50,-34.20,-40.65,16.43
8563,-7.71,4.52,-27.86,-129.395,-531.738,528.320,15.45,-36.00,-40.50,16.58
8573,-4.83,8.08,-27.24,-160.645,-293.945,858.398,16.05,-34.95,-40.35,16.77
8583,0.97,5.28,-29.57,114.746,-39.063,801.758,15.90,-35.25,-40.05,16.43
8593,14.85,2.81,-34.14,-373.535,-240.723,1053.223,16.05,-34.95,-42.15,16.24
8603,8.27,-0.48,-21.63,-102.051,-554.687,1371.094,16.05,-34.95,-42.15,16.77
8615,3.24,-5.08,-27.02,-58.594,-788.086,1142.578,16.20,-36.75,-41.25,16.29
8625,0.05,6.06,-25.31,-232.422,-494.629,823.242,15.45,-35.55,-41.25,16.72
8635,-1.85,-1.54,-29.28,-93.262,-52.734,1411.133,15.15,-36.00,-41.25,16.62
8645,1.94,-2.17,-27.07,-6.836,87.891,1696.289,15.45,-36.00,-40.50,16.58
8655,2.41,-2.35,-33.33,28.320,-474.121,924.805,13.95,-37.20,-40.05,16.72
8665,-0.25,0.79,-24.11,-443.848,-280.762,817.871,16.05,-36.60,-41.10,16.38
8677,5.07,-4.78,-24.50,-160.645,-477.539,1266.602,16.05,-36.60,-41.10,16.72
8687,-0.24,-1.46,-32.69,-197.266,-338.379,1204.590,14.40,-35.55,-41.55,16.62
8697,5.83,3.02,-23.79,185.547,-354.492,663.574,14.40,-35.55,-40.80,16.38
8706,1.02,-0.12,-26.67,62.012,-181.152,1263.184,14.40,-35.25,-40.80,16.77
8716,-0.12,4.56,-25.98,-214.844,-538.574,1462.402,14.55,-35.85,-40.65,16.48
8726,-7.03,1.27,-26.59,-117.676,178.711,1495.117,14.55,-35.85,-40.65,16.58
8736,7.85,5.90,-19.96,-83.496,-208.984,391.602,14.70,-36.45,-41.55,16.48
8747,-1.43,-0.63,-25.24,19.043,-258.789,1555.176,14.85,-36.60,-40.65,16.29
8757,-0.22,-0.16,-21.13,269.531,-333.984,789.062,14.85,-36.60,-40.65,16.29
8767,-5.30,-2.90,-33.01,134.277,-626.953,1455.566,13.80,-35.40,-42.15,16.58
8777,-4.48,3.29,-20.60,127.441,-176.758,1305.664,13.95,-36.75,-40.80,16.77
8787,7.08,-0.58,-21.89,-150.391,-215.820,591.309,13.05,-37.80,-41.10,16.82
8797,11.01,-2.44,-21.40,-86.426,-440.430,516.602,13.95,-37.65,-40.50,16.62
8807,1.44,6.56,-24.34,-190.918,-622.559,950.684,13.95,-37.65,-40.50,16.58
8819,2.51,3.85,-29.84,-316.895,-238.770,1452.637,13.80,-37.05,-40.65,16.58
8829,0.69,1.99,-25.46,66.895,-415.039,831.055,13.95,-36.45,-40.05,16.72
8839,6.37,-1.16,-15.31,84.473,-357.910,658.203,13.95,-36.45,-40.05,16.29
8849,10.22,0.26,-22.58,-210.449,-419.434,1066.406,13.05,-36.60,-40.65,16.58
8859,3.57,1.26,-37.69,-429.687,-498.535,960.937,13.95,-36.75,-40.05,16.91
8869,8.46,-2.86,-23.69,39.063,-820.801,907.227,12.60,-37.05,-40.65,16.72
8879,5.00,-3.92,-12.73,141.602,-770.996,1124.023,13.35,-34.65,-39.90,16.72
8891,-1.72,-2.95,-28.26,-66.895,-318.848,455.566,13.35,-34.65,-39.90,16.77
8901,10.11,-7.85,-30.18,-238.281,-586.426,1365.234,12.45,-37.20,-40.05,16.48
8911,-0.87,-5.85,-25.98,-219.727,-109.863,1146.973,13.20,-35.55,-39.30,16.48
8921,3.24,-5.71,-30.40,270.020,-544.434,540.039,13.20,-35.55,-39.30,16.19
8931,5.05,-0.92,-33.53,-2.930,-573.242,453.125,11.40,-35.40,-41.85,16.48
8941,-13.77,-5.92,-51.92,-190.918,-498.535,936.035,12.60,-36.60,-38.85,16.58
8953,-4.44,0.00,-34.72,-361.328,-74.219,1457.520,11.70,-37.65,-39.75,16.82
8963,1.34,3.74,-32.50,-40.039,-444.824,668.945,13.20,-36.75,-39.75,16.48
8973,0.76,6.93,-11.95,12.695,-553.223,914.551,13.20,-36.75,-39.75,16.62
8982,-0.97,4.55,-36.75,22.461,-413.086,519.043,11.85,-37.80,-40.65,16.38
8992,0.02,12.27,-43.78,184.082,-712.891,487.305,12.00,-37.95,-39.75,16.77
9001,6.63,9.44,-29.19,183.594,-419.434,996.582,11.70,-37.20,-39.75,16.48
9011,1.97,4.98,-27.92,-209.961,-644.531,1053.223,13.35,-37.35,-39.15,16.62
9023,4.16,1.51,-32.08,-136.230,-553.711,1964.355,11.40,-37.05,-38.85,16.62
9033,-1.94,-3.85,-35.91,-270.020,-310.547,1089.355,11.40,-37.05,-39.60,16.72
9043,0.85,-1.52,-38.47,119.629,-223.633,415.527,12.30,-37.05,-39.60,16.72
9053,3.13,-2.08,-43.28,-69.824,-421.875,1186.523,12.30,-37.05,-39.60,16.38
9068,5.29,-3.92,-40.11,-145.996,-433.105,1089.355,13.50,-37.20,-39.75,16.48
9077,5.95,-3.10,-39.71,208.008,-599.609,958.008,13.05,-38.55,-39.60,16.58
9087,0.83,-0.92,-38.04,-19.531,-729.980,971.680,12.75,-36.00,-39.00,16.62
9097,-3.66,1.26,-40.39,106.445,-859.375,1788.574,12.75,-36.00,-39.00,16.29
9109,2.99,-1.21,-45.35,4.883,-692.871,1315.918,11.25,-37.95,-40.05,16.43
9119,8.25,0.14,-41.11,-222.168,-21.973,1681.641,12.45,-38.70,-38.55,16.38
9129,3.75,2.05,-49.03,256.836,-334.473,1220.703,12.45,-38.70,-38.55,16.48
9139,5.99,4.96,-38.27,-11.719,-727.051,578.125,12.30,-37.35,-38.40,16.58
9149,-2.95,8.89,-35.88,5.371,-496.094,358.398,11.25,-39.15,-39.00,16.58
9159,-5.47,-1.69,-37.95,-100.098,-933.594,1145.508,11.70,-37.95,-40.05,16.62
9169,-3.56,-3.38,-42.10,53.223,-1029.785,506.836,11.10,-38.55,-38.40,16.62
9181,-8.09,-0.42,-52.18,-137.207,-374.023,1362.793,11.10,-38.55,-38.40,16.43
9191,-3.82,2.76,-42.93,96.680,-223.145,220.703,11.85,-37.05,-39.15,16.48
9201,0.60,1.18,-36.39,-25.879,-488.281,1204.102,11.25,-38.70,-38.25,16.58
9211,-2.47,-5.16,-46.17,-37.109,-347.656,1788.574,11.25,-38.70,-38.25,16.38
9221,1.76,-0.25,-42.39,52.734,-630.371,328.125,12.30,-37.80,-39.15,16.58
9231,4.19,-2.46,-34.92,-104.980,-664.062,1207.520,10.05,-39.15,-39.00,16.72
9243,13.45,-2.44,-48.17,141.602,-733.398,529.297,10.35,-38.55,-38.85,16.82
9253,11.44,3.63,-40.71,-75.684,-869.629,1607.422,11.40,-39.30,-38.40,16.48
9263,7.18,-5.63,-48.80,-46.875,-933.594,1364.746,11.40,-39.30,-38.40,16.72
9273,3.26,-4.37,-51.27,170.410,-636.719,788.086,11.10,-38.55,-38.40,16.48
9283,1.34,-8.06,-43.32,-185.547,-874.512,1265.137,11.25,-38.40,-39.00,16.38
9293,-1.95,-2.12,-37.62,-238.281,-557.617,1195.313,11.25,-38.40,-39.00,16.62
9303,2.27,-1.91,-42.47,-100.586,-503.906,926.270,10.05,-38.70,-38.55,16.58
9315,5.92,-0.27,-44.89,-74.707,-148.926,1420.898,10.35,-39.75,-38.85,16.48
9325,3.62,0.25,-44.93,24.902,-795.898,711.426,9.60,-39.00,-39.90,16.58
9335,-4.09,1.56,-45.87,-64.941,-559.570,410.645,10.05,-39.15,-39.30,16.72
9345,-2.54,-7.18,-42.42,-98.633,-455.566,1503.418,10.05,-39.15,-39.30,16.72
9355,0.16,-7.11,-47.24,-125.488,-266.113,1076.660,11.40,-39.00,-37.35,16.58
9365,6.73,-2.37,-44.82,575.195,-326.660,207.031,9.30,-40.35,-38.25,16.48
9375,1.95,-6.34,-47.32,-166.504,-909.180,1059.570,9.30,-40.35,-38.25,16.58
9387,7.18,-5.86,-46.37,-26.855,-770.508,508.301,9.00,-39.60,-38.25,16.43
9397,2.71,-5.24,-37.76,-430.176,-778.809,1055.664,7.95,-37.35,-38.40,16.72
9407,2.17,0.53,-46.60,-170.410,-370.605,1506.348,9.00,-39.15,-37.80,16.58
9417,-1.10,16.15,-42.44,-172.363,-543.945,1520.508,9.00,-39.15,-37.80,16.62
9427,-9.73,6.51,-43.77,-531.250,-836.426,905.273,9.15,-38.55,-39.60,16.77
9437,-2.75,2.31,-48.41,93.262,-870.605,1134.277,9.90,-38.55,-37.65,16.58
9447,-7.29,4.99,-59.00,-217.285,-416.992,870.605,8.70,-38.25,-38.40,16.58
9459,8.04,4.64,-49.27,156.738,-354.492,934.570,8.70,-40.20,-37.65,16.72
9469,9.00,7.61,-39.43,-147.949,-583.496,996.094,8.40,-39.75,-38.85,16.38
9479,7.35,0.84,-49.76,66.895,-1030.273,733.398,7.65,-39.30,-37.35,16.48
9489,3.26,-3.19,-48.23,62.988,-943.359,1531.738,8.25,-38.40,-37.80,16.82
9499,-3.24,-3.66,-52.26,90.820,-690.918,1413.574,8.25,-38.40,-37.80,16.43
9509,-2.19,-0.46,-50.63,137.695,-274.902,140.137,8.40,-40.20,-36.90,16.77
9519,2.16,-4.50,-44.41,35.645,-694.336,815.430,7.95,-40.20,-39.60,16.58
9531,-3.54,-7.08,-54.19,-226.562,-393.555,1194.336,8.25,-39.60,-37.50,16.58
9541,1.77,-5.97,-51.84,80.078,-199.219,1273.926,7.80,-40.80,-38.25,16.58
9551,1.59,-1.60,-49.30,-10.254,-511.230,935.059,7.80,-40.80,-38.25,16.38
9561,4.64,3.84,-31.13,-101.074,-772.461,853.027,7.20,-40.50,-37.65,16.38
9571,-1.67,0.75,-43.89,-56.152,-488.281,478.516,5.70,-39.75,-38.10,16.62
9588,3.13,-2.69,-42.66,-172.363,-771.973,858.887,5.85,-41.10,-37.80,16.72
9597,7.68,-0.19,-51.38,-165.039,-675.293,125.977,6.30,-39.15,-38.55,16.62
9607,5.43,-3.54,-44.65,-145.996,-711.914,1183.594,6.30,-39.60,-37.05,16.58
9617,3.29,-3.59,-45.18,-6.836,-418.457,1158.691,5.85,-39.90,-37.80,16.38
9627,-3.53,-3.77,-45.34,-140.137,-436.035,371.582,5.85,-39.90,-37.80,16.58
9637,-5.97,-0.47,-45.90,180.176,-475.098,921.387,6.30,-42.30,-37.05,16.58
9647,-8.91,-2.02,-47.67,170.898,-664.551,1298.340,6.30,-40.35,-37.80,16.58
9659,-1.65,6.42,-54.37,56.641,-312.988,382.812,6.30,-40.35,-37.80,16.72
9669,7.85,1.86,-41.92,-326.172,-587.402,1544.434,6.45,-41.70,-38.10,16.82
9679,11.21,0.40,-47.90,-76.172,-207.031,1103.027,4.95,-40.50,-38.40,16.72
9689,8.35,3.74,-53.24,180.664,-376.953,694.336,4.80,-42.30,-36.30,16.48
9699,7.69,2.62,-50.79,72.266,-720.703,1066.406,4.35,-41.10,-37.80,16.58
9709,5.58,-5.05,-49.84,-336.426,-570.801,1194.336,4.35,-41.10,-37.80,16.58
9719,0.18,-3.86,-49.76,-101.563,-844.727,339.844,4.20,-42.15,-36.15,16.72
9731,-10.29,-3.51,-53.05,-289.062,-250.977,857.422,4.50,-41.70,-36.90,16.48
9741,-5.89,-6.31,-51.79,-32.227,-152.344,1227.539,4.50,-41.70,-36.90,16.72
9751,0.95,-1.72,-47.34,83.496,-468.750,979.004,3.60,-41.10,-36.75,16.58
9761,12.66,-4.27,-47.56,115.723,-738.770,1591.309,3.00,-41.40,-37.35,16.58
9771,4.14,3.32,-31.86,-75.684,-464.355,1169.922,1.65,-43.95,-36.30,16.72
9781,-0.44,-0.47,-49.28,-182.617,-789.551,667.969,3.00,-40.20,-37.65,16.48
9791,-10.67,3.16,-47.50,-110.352,-543.457,1208.496,3.00,-40.20,-37.65,16.43
9803,-14.64,-3.38,-47.28,-32.227,-99.121,537.598,3.00,-41.70,-36.60,16.43
9813,-8.06,-0.01,-53.56,48.828,-416.504,1159.668,2.40,-39.60,-36.75,16.62
9823,2.00,-3.05,-44.85,20.996,-1001.465,1277.344,2.40,-39.60,-36.75,16.58
9833,-5.17,-1.76,-55.65,-29.785,-601.562,808.105,2.55,-41.40,-37.35,16.62
9843,-5.51,5.93,-45.89,-83.008,-522.949,335.449,1.65,-41.10,-36.00,16.62
9853,2.93,0.27,-57.67,25.879,-649.902,1268.555,2.10,-42.30,-37.05,16.48
9862,3.02,-0.54,-34.68,-150.879,-662.598,1250.000,2.85,-40.35,-37.50,16.72
9873,-0.83,2.47,-50.08,179.199,-844.238,753.418,2.85,-40.35,-37.50,16.58
9883,6.69,5.18,-54.89,-317.383,-500.977,646.484,1.05,-41.70,-37.65,16.58
9893,6.30,2.13,-45.96,199.707,-996.094,1275.391,0.75,-41.70,-35.40,16.72
9903,-2.02,3.33,-52.92,-120.117,-472.656,972.656,0.75,-42.90,-36.60,16.72
9913,-1.37,5.88,-47.09,-137.695,-781.738,281.250,-0.75,-40.95,-36.90,16.72
9923,-2.15,-1.13,-44.82,-188.965,-643.555,889.648,0.75,-42.15,-36.60,16.38
9933,1.79,-5.24,-45.85,-391.602,-639.160,1742.676,0.30,-41.40,-38.10,16.58
9945,7.22,-2.03,-44.08,111.328,-342.773,1485.352,0.75,-40.50,-36.60,16.62
9955,0.97,1.00,-59.95,38.086,-640.137,1114.746,0.75,-40.50,-36.60,16.77
9964,5.67,-2.75,-41.01,82.031,-1045.898,564.941,-0.30,-39.75,-38.10,16.72
9974,8.89,-3.58,-51.53,-707.520,-482.422,994.629,0.00,-42.60,-36.15,16.62
9984,12.06,-4.37,-50.33,-157.227,-701.660,134.277,-1.20,-41.55,-37.80,16.38
9994,1.76,-1.16,-59.45,-27.832,-665.039,776.855,-1.05,-42.15,-36.15,16.77
10006,-3.77,2.67,-41.36,-45.410,-819.824,962.402,-1.05,-42.15,-36.15,16.72
10016,-14.58,0.68,-53.56,299.805,-627.930,1035.645,-0.90,-40.35,-37.50,16.29
10026,-15.83,1.50,-51.71,263.184,-750.000,1307.129,-0.90,-42.30,-36.00,16.43
10036,-12.29,5.61,-42.29,-343.750,11.230,1009.277,-0.90,-42.30,-36.00,16.77
10046,4.58,-1.73,-46.28,-360.840,-70.313,1427.734,-1.65,-40.80,-36.30,16.48
10056,22.35,6.60,-45.96,-125.000,-931.641,651.855,-3.45,-42.15,-36.15,16.58
10066,10.84,3.46,-49.50,24.414,-1008.301,1514.648,-3.45,-40.95,-36.90,16.43
10078,2.71,7.20,-51.56,117.676,-599.609,1193.359,-2.55,-41.70,-35.40,16.62
10088,7.14,3.41,-45.34,532.227,-633.301,1339.355,-3.00,-41.40,-35.40,16.38
10103,-8.75,0.45,-58.18,-292.480,-665.527,577.148,-3.60,-42.75,-36.75,16.43
10112,-10.28,-1.71,-50.21,117.676,-157.715,708.496,-3.60,-42.75,-36.75,16.58
10122,-1.38,-3.86,-48.26,60.547,-637.695,714.844,-3.60,-42.75,-35.25,16.72
10132,8.98,-11.09,-55.44,292.969,-501.465,1708.008,-5.10,-40.35,-36.00,16.72
10142,2.65,-1.85,-47.00,-111.328,-692.383,1826.660,-3.60,-41.10,-37.05,16.38
10155,-6.39,-0.96,-48.81,-99.121,-232.422,986.328,-3.75,-41.70,-37.65,16.19
10164,3.18,-0.23,-47.44,-23.437,-713.867,1218.750,-3.75,-41.70,-37.65,16.38
10174,1.85,-1.21,-56.12,-310.059,-786.621,984.863,-5.10,-40.80,-34.80,16.62
10184,3.31,2.90,-53.19,92.285,-632.812,273.437,-5.85,-41.55,-37.80,16.58
10194,-11.80,0.02,-52.22,17.090,-140.137,781.738,-5.85,-41.55,-37.80,16.77
10204,-4.21,-4.06,-46.74,-44.434,-653.320,1010.254,-5.10,-42.30,-36.75,16.58
10214,-0.38,4.79,-51.60,-95.215,-308.594,851.562,-7.05,-39.15,-37.05,16.38
10226,12.47,-0.56,-48.13,-241.211,-435.547,865.723,-6.45,-41.40,-36.60,16.77
10236,9.63,2.80,-54.85,-8.301,-290.039,712.402,-5.25,-39.30,-36.15,16.58
10246,6.32,3.54,-48.95,-226.074,-279.785,920.410,-5.25,-39.30,-36.15,16.58
10256,4.94,12.83,-45.21,146.973,-365.723,459.961,-6.30,-41.10,-36.75,16.62
10266,5.44,5.24,-48.77,-1.953,-515.625,938.965,-6.30,-37.95,-36.00,16.77
10276,2.52,1.85,-47.31,51.758,-741.699,1781.250,-6.30,-37.95,-36.00,16.38
10286,-2.41,1.39,-50.98,-92.773,-797.852,726.562,-6.45,-39.75,-37.65,16.48
10298,-10.83,5.37,-53.52,-376.465,-657.227,764.648,-8.40,-40.20,-34.65,16.77
10308,-10.10,0.69,-51.00,-228.516,-92.285,1735.352,-7.35,-38.70,-35.55,16.72
10318,4.43,1.90,-50.60,-111.328,-181.152,1322.754,-7.35,-38.70,-35.55,16.38
10328,4.38,-0.09,-47.14,293.945,-506.348,1090.332,-8.25,-39.15,-35.55,16.72
10338,7.69,1.52,-52.18,-252.441,-717.773,760.742,-8.25,-39.15,-35.25,16.58
10348,-0.05,-0.57,-49.52,-48.340,-604.492,1591.797,-8.70,-40.20,-35.40,16.62
10358,-0.39,7.82,-55.70,-174.805,-612.305,778.320,-7.95,-38.25,-36.15,16.62
10371,2.34,1.71,-46.46,-347.656,-342.285,1051.758,-8.40,-41.70,-34.95,16.48
10381,6.27,1.34,-50.88,229.004,-607.910,1270.508,-7.65,-39.30,-35.70,16.48
10391,0.43,-0.71,-55.36,-16.602,-694.824,1362.305,-8.55,-38.70,-33.30,16.72
10401,-1.39,3.23,-44.15,-197.754,-931.641,1206.543,-8.55,-38.70,-33.30,16.38
10411,-3.46,1.61,-66.37,-206.055,-827.637,757.324,-9.90,-39.30,-34.95,16.38
10421,1.41,5.99,-52.15,-170.410,-404.785,205.566,-8.70,-40.20,-35.70,16.72
10433,2.08,-0.69,-43.44,-170.898,-189.941,1081.543,-10.65,-37.80,-36.15,16.48
10443,5.59,3.10,-55.63,412.598,-723.633,-252.930,-9.75,-39.15,-35.25,16.38
10453,0.82,-7.23,-44.91,442.871,-456.055,1639.648,-9.75,-39.15,-35.25,16.72
10463,1.85,-4.72,-60.07,-407.715,-642.090,1414.551,-9.90,-38.25,-34.65,16.48
10473,6.08,-9.89,-47.95,214.844,-882.324,840.332,-10.50,-40.35,-34.80,16.62
10483,-4.69,0.50,-53.87,-79.102,-467.285,1141.113,-10.50,-40.35,-34.80,16.29
10493,-5.19,-1.34,-53.48,-367.676,-622.070,686.035,-10.05,-37.20,-34.80,16.29
10505,11.22,-9.15,-49.10,25.879,-674.805,360.352,-10.05,-39.15,-35.25,16.48
10515,7.24,-8.97,-49.58,-125.977,-803.711,1702.637,-11.70,-37.65,-34.50,16.62
10525,7.24,2.83,-58.59,-216.309,-570.312,550.293,-11.85,-38.55,-34.65,16.62
10535,3.28,1.73,-52.54,-245.117,-546.387,806.641,-11.85,-38.55,-34.65,16.62
10545,2.06,-0.46,-44.10,125.977,-999.023,898.926,-12.75,-37.20,-35.25,16.77
10555,-5.85,4.30,-47.17,-34.180,-803.711,1117.188,-13.20,-37.65,-35.25,16.72
10567,1.92,6.57,-47.34,116.699,-602.539,1171.387,-13.20,-37.65,-35.25,16.62
10577,-0.27,7.11,-42.87,-84.961,-577.637,1999.939,-12.00,-36.45,-34.50,16.58
10587,-1.42,8.59,-47.17,227.051,-532.715,499.512,-14.10,-36.60,-34.95,16.43
10597,-8.90,4.96,-52.70,21.973,-478.027,323.730,-12.60,-36.60,-33.90,16.29
10607,2.54,3.85,-46.34,-301.758,-518.555,1323.730,-13.05,-37.05,-33.90,16.62
10629,11.50,4.11,-50.19,246.094,-540.527,841.797,-12.45,-36.00,-35.25,16.58
10638,7.12,-1.38,-45.76,194.824,-507.324,1041.016,-12.45,-36.00,-35.25,16.58
10650,-8.51,-5.85,-49.79,28.809,-675.781,431.641,-11.70,-36.45,-34.50,16.77
10660,-11.45,-7.73,-50.91,-163.574,-841.797,1387.207,-12.60,-33.75,-35.40,16.72
10670,-4.56,-8.58,-41.35,-68.848,-15.137,1340.820,-11.70,-35.25,-34.50,16.58
10680,-6.77,-1.64,-48.51,-357.910,383.301,1007.812,-13.95,-35.55,-35.55,16.62
10690,10.30,2.89,-46.14,-46.387,-80.566,722.168,-13.95,-35.55,-35.55,16.48
10700,4.41,2.44,-44.95,264.648,-895.020,1112.793,-15.30,-34.95,-34.20,16.72
10710,-9.92,9.50,-46.24,-101.563,-471.191,652.344,-14.40,-33.15,-34.50,16.48
10722,8.27,8.13,-41.70,122.559,-341.797,998.047,-13.50,-34.80,-34.05,16.62
10732,3.98,-11.44,-46.79,-364.746,-241.699,1300.781,-15.15,-35.25,-34.80,16.82
10742,14.44,3.78,-48.11,0.977,-607.422,299.805,-13.35,-32.25,-34.95,16.62
10752,-2.95,-0.24,-52.83,211.426,-652.344,596.191,-14.40,-34.05,-33.75,16.43
10762,-2.72,-3.31,-45.58,140.625,-291.992,1354.004,-14.55,-32.55,-34.20,16.48
10772,-6.94,0.19,-42.69,61.523,-267.090,1123.047,-14.55,-32.55,-34.20,16.29
10784,4.54,-2.09,-34.35,15.137,-792.480,1387.695,-13.80,-34.20,-34.20,16.48
10794,0.56,-5.31,-52.24,-257.324,-546.875,1372.070,-13.50,-32.40,-34.05,16.38
10804,1.17,0.84,-54.43,-92.773,-705.078,859.375,-13.35,-33.75,-33.45,16.43
10814,12.58,2.86,-39.41,-78.125,-344.727,901.855,-15.75,-32.55,-33.15,16.62
10824,3.73,7.21,-49.34,333.496,-604.492,1157.715,-14.40,-33.15,-33.00,16.62
10834,-0.48,5.92,-48.61,-411.621,239.746,1964.355,-14.70,-31.95,-33.30,16.77
10844,-2.71,5.36,-43.91,-83.496,-1037.109,832.031,-13.35,-33.00,-33.45,16.48
10856,-3.58,5.63,-43.27,-50.293,-39.063,1367.188,-13.35,-33.00,-33.45,16.77
10866,-8.01,14.59,-33.19,-158.691,-67.383,784.668,-15.45,-30.45,-33.00,16.48
10876,0.35,8.44,-40.82,414.062,238.770,1215.820,-13.35,-31.35,-33.15,16.43
10886,-6.30,-23.95,-37.16,-236.328,-781.250,1618.652,-13.80,-31.80,-32.70,16.72
10896,-4.98,20.92,-67.22,-273.926,-842.285,1750.000,-14.40,-30.00,-33.30,16.62
10906,-9.47,30.26,-74.02,14.160,-885.742,930.664,-14.40,-30.00,-33.30,16.62
10918,5.04,-5.79,-40.62,-574.219,-472.656,1848.145,-13.05,-31.05,-33.45,16.62
10928,4.37,2.97,-37.08,-9.277,-310.059,543.457,-13.05,-31.35,-33.15,16.77
10938,3.23,7.66,-42.21,305.176,-342.773,424.316,-13.05,-31.35,-33.15,16.72
10948,16.99,10.79,-43.83,195.312,-197.754,159.180,-13.50,-30.75,-32.70,16.72
10958,19.97,3.03,-57.46,-280.273,-517.578,907.715,-13.50,-30.75,-32.25,16.58
10968,18.83,7.87,-18.04,256.836,-1617.188,1195.313,-15.45,-31.65,-30.75,16.77
10978,-4.66,12.50,-68.27,-382.812,-1124.512,1881.348,-13.80,-28.65,-32.40,16.58
10990,-8.02,-6.79,-58.60,54.688,-854.492,1804.688,-15.15,-29.55,-32.25,16.58
11000,7.82,-12.18,-42.77,-108.398,-906.250,1555.176,-13.50,-29.25,-30.30,16.77
11010,11.77,-12.05,-45.87,420.410,-154.785,893.066,-13.50,-29.25,-30.30,16.72
11020,12.98,-13.40,-52.24,-28.320,-601.562,1032.227,-13.95,-29.55,-31.05,16.48
11030,21.11,-14.14,-42.92,-55.176,-470.703,814.941,-15.45,-30.75,-28.80,16.77
11040,21.39,-13.97,-40.35,-98.633,-755.859,1768.066,-16.50,-29.40,-29.40,16.38
11050,13.89,-19.44,-25.33,109.375,-236.328,1535.156,-15.90,-28.80,-28.05,16.77
11062,3.09,-20.11,-55.50,221.680,-1030.273,680.176,-15.90,-28.80,-28.05,16.38
11072,-12.98,-25.24,-49.88,-135.742,-360.352,1255.371,-17.10,-27.60,-28.35,16.48
11082,-13.76,-17.70,-43.32,-3.418,-645.996,1897.461,-15.75,-28.20,-27.45,16.62
11092,-15.22,-21.37,-48.33,-289.551,-229.004,832.031,-15.75,-28.20,-27.45,16.77
11102,8.05,-23.44,-57.24,-37.109,-12.207,1393.555,-19.50,-27.45,-30.45,16.58
11112,15.64,-14.01,-47.07,-404.297,-291.992,1999.939,-17.85,-30.00,-29.55,16.62
11124,-0.41,-8.27,-42.20,217.285,-776.855,1288.574,-19.65,-28.35,-29.85,16.62
11134,-11.37,-9.63,-59.64,-306.152,-1208.984,368.652,-18.45,-26.55,-27.90,16.72
11150,-13.62,-6.00,-53.94,-310.547,32.715,806.641,-20.55,-27.60,-29.85,16.58
11159,-11.92,-12.63,-35.65,-627.930,-268.066,1594.238,-20.55,-28.05,-29.10,16.62
11169,35.36,-15.34,-61.13,251.953,107.422,263.184,-21.90,-28.95,-29.10,16.58
11179,12.96,-25.97,-103.38,-609.375,-199.707,1214.844,-20.70,-27.00,-28.95,16.77
11191,11.80,1.86,-8.88,-871.094,-520.996,1766.602,-19.35,-26.85,-28.05,16.62
11201,31.15,-3.56,-38.63,-4.883,-873.535,410.156,-19.35,-28.35,-29.55,16.62
11211,7.34,13.47,-24.96,-602.051,-569.824,1063.965,-22.20,-24.60,-30.90,16.24
11221,0.73,11.19,-41.66,85.938,-93.750,1999.939,-22.20,-24.60,-30.90,16.48
11231,7.91,8.50,-29.21,469.727,-529.785,916.504,-19.95,-27.45,-31.95,16.62
11241,-11.36,10.66,-33.13,-558.594,-259.277,1045.410,-20.55,-24.90,-31.50,16.72
11253,0.63,11.15,-36.46,-108.887,-497.070,1169.922,-20.25,-26.55,-30.15,16.62
11263,24.04,-5.58,-39.58,562.012,-1211.914,1999.939,-20.85,-26.85,-31.80,16.58
11273,10.88,6.19,-43.68,-185.059,-985.352,678.223,-20.85,-26.85,-31.80,16.91
11283,-7.53,3.33,-51.77,-50.293,-537.109,1212.402,-21.00,-27.00,-30.15,16.48
11293,6.39,0.85,-50.60,10.254,-767.090,1447.266,-21.45,-25.05,-30.45,16.43
11303,8.47,11.49,-39.92,184.082,-613.281,1078.613,-21.45,-25.05,-30.45,16.62
11313,7.76,-0.44,-53.34,195.801,-827.637,1555.664,-20.85,-27.15,-30.30,16.48
11325,4.85,-1.17,-33.94,-424.805,-185.547,1999.939,-21.45,-24.60,-30.90,16.24
11335,7.01,-7.88,-43.12,286.621,-575.684,842.773,-21.00,-26.55,-28.95,16.72
11345,6.62,0.60,-43.10,-180.176,-350.098,1125.488,-22.20,-27.00,-30.90,16.72
11355,-11.60,-10.36,-40.48,-456.055,-292.969,1999.939,-22.20,-27.00,-30.90,16.62
11365,11.12,-6.36,-48.66,388.184,-479.492,-586.914,-22.65,-27.75,-28.65,16.43
11375,-9.80,-10.10,-44.85,-217.773,-435.059,1670.410,-23.25,-25.95,-31.05,16.62
11387,-17.83,-0.82,-39.49,224.609,-220.215,1447.754,-23.25,-25.95,-31.05,16.48
11397,-15.23,-10.79,-44.50,-375.000,170.410,1771.484,-21.30,-27.15,-30.75,16.43
11407,3.69,-3.63,-36.95,401.367,-219.238,1171.875,-22.65,-23.85,-32.40,16.38
11417,6.53,7.21,-47.65,-505.371,-133.301,1020.996,-22.20,-25.50,-30.15,16.58
11427,-3.02,-0.79,-37.29,51.270,337.402,1151.855,-22.20,-26.55,-31.20,16.43
11437,20.60,-4.58,-45.66,-214.355,-266.602,458.984,-22.20,-26.55,-31.20,16.72
11447,13.75,15.79,-37.48,24.414,-181.641,469.238,-21.60,-25.95,-29.55,16.58
11458,18.34,10.72,-41.48,208.008,-541.504,826.172,-22.95,-24.30,-31.65,16.48
11468,10.24,15.77,-37.92,10.742,-596.191,658.691,-22.95,-24.30,-31.65,16.48
11478,11.14,-1.42,-28.19,273.437,-922.363,1999.939,-22.05,-25.95,-30.30,16.48
11488,0.82,2.26,-45.21,142.578,-773.926,708.984,-22.35,-22.80,-30.30,16.58
11498,-6.64,-3.87,-35.86,-402.832,0.488,1330.078,-21.90,-23.10,-28.95,16.48
11508,9.19,-8.57,-35.31,541.016,-498.535,893.066,-23.40,-24.30,-29.70,16.62
11520,12.69,-17.88,-42.84,753.906,-690.430,1367.188,-21.90,-23.40,-29.40,16.77
11530,4.45,-3.58,-36.18,161.621,-316.406,868.164,-23.40,-25.05,-30.90,16.62
11540,5.67,-21.45,-39.44,-28.320,-545.898,1999.939,-22.95,-20.25,-30.45,16.58
11550,2.46,-11.76,-33.41,366.211,-806.641,120.605,-22.65,-23.85,-29.70,16.62
11560,-15.49,-14.94,-42.28,-453.125,592.285,1300.293,-23.55,-22.50,-31.05,16.38
11570,6.89,-18.87,-36.69,406.738,-564.941,407.715,-23.25,-21.60,-32.55,16.72
11580,-9.01,-1.50,-45.18,-136.230,-28.320,783.203,-22.95,-22.20,-29.40,16.58
11592,-9.34,3.60,-35.71,-189.453,-378.906,83.496,-22.95,-22.20,-29.40,16.77
11602,-16.92,4.67,-40.53,-438.965,-747.559,1999.939,-22.05,-19.20,-29.85,16.72
11612,1.73,8.66,-36.03,-78.613,-553.223,392.578,-22.80,-22.05,-31.50,16.62
11622,-21.60,9.15,-40.57,-625.977,155.762,847.168,-24.00,-21.60,-32.55,16.58
11632,27.46,2.05,-33.09,717.773,-698.242,-566.406,-23.40,-20.70,-29.40,16.38
11642,-18.47,1.93,-36.78,-359.375,490.723,205.078,-22.95,-23.10,-29.70,16.38
11654,-5.97,0.61,-40.12,-218.262,-972.656,1999.939,-22.80,-22.50,-31.05,16.43
11669,23.26,-1.48,-47.56,-21.484,-393.555,107.422,-22.35,-20.10,-30.30,16.48
11678,-10.74,1.66,-27.82,188.965,-1701.172,1999.939,-22.35,-20.10,-30.30,16.62
11688,-0.76,-4.54,-50.64,-691.895,-557.617,908.203,-23.55,-22.05,-31.05,16.62
11698,12.09,-12.68,-42.83,291.504,-1099.121,1528.809,-24.00,-19.20,-30.30,16.62
11708,2.85,-1.20,-45.09,-628.906,154.785,1318.848,-22.80,-21.60,-29.85,16.38
11718,19.10,-8.16,-39.82,937.500,-1398.438,1238.770,-23.40,-21.90,-30.90,16.77
11728,-0.82,10.85,-46.13,-312.012,66.406,891.113,-23.40,-21.90,-30.90,16.58
11740,-7.52,5.98,-36.05,10.254,-557.617,646.484,-24.15,-20.70,-31.20,16.48
11750,-7.11,-2.89,-32.91,300.293,-1066.406,1907.715,-24.15,-20.70,-31.20,16.38
11760,-11.85,11.40,-30.13,-180.176,-681.152,1363.770,-24.00,-20.85,-30.75,16.62
11770,-3.65,-3.37,-50.17,277.832,-505.859,1999.939,-24.15,-21.45,-32.70,16.77
11780,-2.64,-0.74,-57.85,-65.918,-213.867,902.344,-23.25,-18.00,-32.70,16.48
11790,-16.13,-3.05,48.41,-513.672,390.137,1270.020,-22.95,-22.20,-30.90,16.43
11802,-4.96,2.82,-6.50,-209.961,-573.242,1999.939,-22.95,-22.20,-30.90,16.43
11812,3.98,0.10,-46.44,60.547,-685.547,551.270,-24.00,-18.45,-31.05,16.38
11822,-20.95,4.20,-43.15,-570.801,220.215,527.832,-23.55,-22.05,-31.50,16.58
11832,6.64,-0.93,-46.97,783.691,-865.234,-659.180,-23.55,-22.05,-31.50,16.72
11842,-30.94,-0.07,-36.60,-779.785,515.137,1183.594,-24.00,-17.70,-31.05,16.58
11852,7.42,-0.40,-30.41,701.660,-750.000,-591.309,-22.80,-20.40,-31.05,16.58
11862,-18.59,2.15,-44.83,-381.836,528.320,830.078,-24.60,-18.30,-31.95,16.77
11874,-23.65,3.95,-43.61,-701.660,-132.812,1289.551,-24.15,-17.40,-30.90,16.48
11884,15.11,-3.85,-40.31,886.719,-475.098,385.742,-24.15,-17.40,-30.90,16.58
11894,-1.26,9.34,-49.77,-438.965,-211.914,447.266,-23.55,-18.00,-30.30,16.29
11904,19.34,-1.11,-35.69,559.570,-817.383,1422.852,-23.25,-17.70,-31.50,16.43
11914,12.50,7.73,-43.21,-206.543,-158.691,854.004,-23.25,-17.70,-31.50,16.43
11924,26.56,3.73,-38.19,505.859,-1370.117,-51.758,-22.20,-19.05,-30.15,16.48
11934,-14.33,-1.06,-32.59,-347.656,-594.727,1635.254,-22.35,-16.50,-30.75,16.77
11946,-8.18,-9.84,-57.58,156.738,-628.418,1999.939,-23.55,-17.25,-29.55,16.58
11956,7.16,-6.61,-40.18,436.035,-456.543,1676.270,-23.40,-19.50,-30.90,16.62
11966,-18.94,-3.95,-41.31,-379.395,-95.215,1080.566,-23.40,-19.50,-30.90,16.72
11976,11.25,-2.52,-37.38,-586.914,-250.488,765.625,-22.80,-18.45,-29.55,16.62
11986,-2.20,1.83,-43.97,644.043,-1079.590,1999.939,-23.25,-18.45,-29.55,16.62
11996,-8.34,7.82,-38.45,-339.355,-110.840,871.582,-23.25,-18.45,-29.55,16.58
12008,-0.75,-2.10,-46.98,-352.539,-281.738,921.387,-23.55,-18.45,-31.50,16.62
12018,-1.68,3.05,-35.62,734.863,-1074.707,1999.939,-24.00,-17.70,-32.25,16.43
12028,-11.31,18.87,-26.70,-305.176,-80.566,1002.441,-22.20,-14.70,-30.45,16.72
12038,0.63,-3.92,-45.44,726.074,-822.754,1012.207,-21.45,-16.65,-29.70,16.58
12048,-8.41,11.92,-48.83,-322.266,72.266,539.062,-21.45,-16.65,-29.70,16.29
12058,9.72,-7.40,-47.05,854.492,-1374.512,218.750,-23.25,-14.40,-31.05,16.58
12068,-15.79,4.82,-45.54,-419.922,72.266,961.914,-22.05,-16.05,-30.75,16.77
12079,5.19,1.98,-61.17,-927.734,-377.441,998.535,-23.55,-16.80,-31.50,16.62
12089,19.15,-5.40,-61.05,402.832,-598.145,1627.930,-23.25,-15.30,-33.00,16.48
12099,31.76,-2.50,-41.82,510.742,-804.199,915.039,-22.35,-14.85,-31.50,16.43
12109,13.44,-12.25,-46.66,-206.543,-962.402,948.730,-21.45,-15.45,-30.45,16.72
12119,12.67,-1.59,-29.68,171.875,-364.258,958.496,-22.20,-15.90,-31.95,16.38
12129,9.39,-11.23,-35.06,363.281,-1074.707,1755.859,-22.20,-15.90,-31.95,16.58
12141,-3.50,-12.18,-33.78,646.484,-1328.125,1999.939,-23.25,-15.30,-29.85,16.48
12151,-10.34,-8.27,-29.47,-883.789,101.074,1036.133,-22.95,-13.80,-31.20,16.58
12161,-5.71,-5.63,-43.22,241.699,-190.430,1488.770,-22.65,-13.50,-30.45,16.58
12171,-8.09,-4.52,-32.00,-9.766,92.285,1252.441,-22.65,-13.50,-30.45,16.58
12186,1.60,-5.84,-41.24,-284.668,-192.383,385.254,-23.70,-13.80,-30.45,16.38
12195,2.71,-0.14,-35.97,265.625,-536.621,1293.457,-24.00,-12.45,-30.30,16.38
12207,4.51,7.37,-35.63,615.723,-642.578,767.090,-24.00,-12.45,-30.30,16.58
12217,-11.53,-3.02,-40.26,-471.191,64.941,998.535,-22.05,-13.65,-31.50,16.43
12227,9.05,3.64,-34.22,-238.770,-162.109,637.207,-24.00,-10.05,-31.80,16.38
12237,11.35,-4.52,-40.81,103.516,-1342.285,793.457,-21.90,-13.05,-31.65,16.62
12247,-4.40,-5.24,-44.95,-634.766,71.777,1054.199,-22.65,-13.50,-31.65,16.58
12257,1.05,-8.17,-30.21,-81.543,-192.871,1375.977,-22.65,-13.50,-31.65,16.62
12267,18.74,-9.24,-38.05,-53.711,-1206.055,1067.383,-22.95,-12.75,-31.65,16.29
12279,9.66,-5.95,-35.95,817.871,-75.195,851.562,-22.80,-13.65,-33.00,16.77
12289,-2.34,2.46,-46.56,-239.746,-193.359,509.766,-22.80,-13.65,-33.00,16.38
12299,12.33,4.15,-47.66,-237.793,-325.195,842.773,-21.90,-11.85,-32.40,16.38
12309,17.55,-8.64,-36.50,781.250,-873.047,1999.939,-23.25,-13.65,-30.30,16.72
12319,-0.95,6.88,-44.15,-607.422,-14.648,1097.168,-22.65,-11.10,-32.40,16.43
12329,4.05,1.02,-33.85,-63.965,-916.016,624.512,-22.35,-11.70,-31.80,16.48
12341,-8.52,5.32,-39.31,-365.234,-762.695,1699.707,-22.35,-12.90,-32.55,16.62
12351,-3.86,7.65,-28.49,407.715,-1181.641,681.641,-22.20,-9.90,-33.45,16.77
12361,-16.82,6.39,-24.86,-142.578,-572.754,1490.723,-22.20,-9.90,-33.45,16.43
12371,-5.82,5.07,-38.89,-51.758,-842.773,1845.215,-19.95,-13.05,-30.90,16.29
12381,0.60,-3.90,-38.92,301.270,-986.816,1180.176,-21.30,-11.25,-32.55,16.48
12391,1.23,-5.35,-36.35,-249.023,-526.855,852.539,-20.70,-11.10,-32.55,16.72
12401,6.33,2.77,-37.52,385.254,-277.344,1535.645,-20.70,-11.85,-31.20,16.62
12413,-3.73,-4.47,-40.76,-439.453,-466.797,1116.211,-20.70,-11.85,-31.20,16.48
12423,9.56,-0.86,-44.79,290.527,-669.434,934.570,-20.85,-10.05,-31.05,16.48
12433,5.89,-4.73,-38.35,20.508,-974.609,594.727,-19.95,-11.10,-30.90,16.62
12443,-12.35,8.72,-37.15,-582.520,-291.992,350.586,-19.95,-11.10,-30.90,16.48
12453,3.09,3.68,-35.66,859.863,-474.609,404.785,-20.55,-10.50,-30.30,16.48
12463,-8.74,8.64,-40.82,-502.441,-352.539,543.945,-20.55,-8.85,-30.75,16.58
12475,27.03,5.73,-41.45,1465.820,-1316.406,1509.277,-22.20,-11.10,-30.90,16.29
12485,0.19,7.77,-30.89,693.359,-904.297,642.090,-20.10,-11.25,-30.75,16.43
12495,-28.12,10.71,-46.51,-523.926,-881.348,527.832,-20.10,-11.25,-30.75,16.58
12505,1.04,-5.50,-44.69,355.469,-1363.770,777.344,-20.70,-8.70,-30.90,16.62
12515,-9.03,5.32,-37.76,-10.742,-864.258,1304.688,-19.95,-9.90,-30.90,16.62
12525,-22.13,-11.93,-41.11,1193.848,-564.941,412.109,-20.10,-8.10,-32.25,16.58
12535,-27.57,-8.46,-38.30,391.602,-77.637,1425.293,-19.35,-8.10,-31.50,16.43
12547,35.74,-5.94,-14.21,237.305,-797.852,1124.512,-20.55,-6.90,-30.30,16.48
12557,9.95,-0.63,-30.53,-625.488,-1156.250,1999.939,-19.35,-7.65,-29.10,16.38
12567,2.95,3.85,-30.03,-334.473,-487.793,670.410,-19.65,-9.30,-30.75,16.43
12577,-0.72,0.20,-31.18,191.895,-317.871,983.887,-19.65,-9.30,-30.75,16.58
12587,15.40,-8.18,-21.24,698.730,-1419.922,1999.939,-18.90,-7.35,-29.85,16.38
12597,-17.29,6.82,-30.02,-569.336,-1021.484,308.105,-18.15,-8.55,-30.30,16.48
12607,-6.29,2.96,-45.52,-184.082,-414.551,1035.156,-19.50,-7.50,-33.15,16.43
12619,-4.61,-6.69,-38.21,-100.586,-489.258,1168.945,-18.00,-6.75,-31.20,16.77
12629,-12.72,6.47,-41.78,-304.199,794.434,1608.398,-18.00,-6.75,-31.20,16.48
12639,26.47,-4.85,-42.53,-205.566,327.637,-328.613,-18.75,-10.35,-29.70,16.58
12649,25.85,1.44,-39.69,55.176,-729.004,586.426,-20.25,-7.95,-31.20,16.48
12659,30.53,-7.85,-65.62,124.023,-1125.488,183.105,-20.25,-7.95,-31.20,16.72
12669,-19.09,-3.53,-30.02,-113.281,-995.605,1134.277,-19.65,-9.75,-31.80,16.72
12681,-13.85,-6.46,-42.89,297.363,-1091.797,693.848,-18.45,-9.45,-33.45,16.77
12691,-13.97,-9.41,-48.95,609.375,-921.875,1794.922,-18.75,-6.75,-32.40,16.72
12706,-11.73,-9.66,-44.13,57.129,-1005.859,304.687,-19.20,-5.85,-32.40,16.29
12715,-13.09,-9.96,-48.55,-473.633,660.645,1983.887,-18.15,-7.35,-32.55,16.38
12725,10.12,0.33,-39.60,-211.914,-522.949,654.785,-18.00,-5.10,-31.65,16.72
12735,16.49,-6.66,-44.17,596.680,-1400.879,1549.316,-18.00,-5.10,-31.65,16.72
12747,9.63,9.56,-39.07,-528.320,41.504,1077.637,-18.00,-6.75,-31.20,16.58
12757,17.24,0.82,-52.82,420.898,-1223.145,905.762,-18.15,-6.90,-29.85,16.72
12767,-7.18,0.88,-49.45,-192.383,-872.070,1075.195,-17.10,-6.45,-31.05,16.38
12777,-10.15,9.84,-46.21,-373.535,-223.633,1106.934,-18.60,-5.70,-31.05,16.72
12787,9.23,2.92,-45.80,194.336,153.320,1311.035,-18.60,-5.70,-31.05,16.58
12797,17.14,1.52,-41.11,46.387,-755.371,728.027,-18.60,-5.25,-31.05,16.62
12810,-18.73,-4.78,-38.17,-177.734,-148.437,1518.066,-18.00,-4.35,-30.45,16.19
12819,5.76,-4.55,-48.24,-350.098,-577.148,91.797,-18.00,-4.35,-30.45,16.48
12829,7.04,-9.41,-48.64,154.297,-603.516,214.355,-15.90,-7.65,-29.85,16.72
12839,19.43,-5.47,-47.51,42.969,-958.008,160.645,-15.75,-5.85,-28.95,16.91
12849,19.38,-4.34,-20.01,427.246,-744.629,97.168,-16.20,-4.95,-31.50,16.38
12859,26.76,-13.18,-63.11,-871.582,-1505.371,8.301,-16.50,-3.90,-29.70,16.62
12869,17.68,-7.82,-60.58,-2.930,-2000.000,133.789,-16.50,-3.90,-29.70,16.38
12881,-4.46,12.30,-52.51,-175.781,-349.121,626.953,-17.40,-5.70,-29.10,16.48
12891,6.25,4.43,-41.45,413.086,-181.641,1343.750,-16.50,-5.55,-31.65,16.38
12901,4.34,5.15,-56.27,504.883,-1526.367,1104.980,-17.10,-4.50,-30.75,16.72
12911,-17.80,7.56,-28.64,-144.043,-734.375,754.395,-16.65,-4.05,-31.05,16.48
12921,-14.53,-1.44,-36.58,-493.652,-792.969,1999.939,-16.05,-5.10,-30.45,16.72
12931,-1.41,-0.37,-46.21,-109.863,-413.086,1511.719,-16.20,-3.30,-31.80,16.29
12941,7.66,2.51,-40.32,340.332,-295.410,1476.074,-15.90,-3.75,-31.05,16.38
12953,9.12,7.95,-30.08,-174.316,10.254,803.223,-16.20,-4.50,-33.30,16.48
12963,6.39,-6.18,-54.63,55.664,-204.102,1763.184,-15.90,-2.55,-32.55,16.62
12973,7.46,-0.96,-33.57,-583.008,-1124.023,1187.500,-14.85,-3.15,-31.95,16.29
12983,-16.89,0.82,-37.36,438.965,-1109.863,758.789,-14.40,-3.30,-31.80,16.62
12993,-18.87,5.89,-41.73,-260.254,299.805,1498.047,-15.30,-3.90,-31.65,16.48
13003,2.02,0.43,-42.68,-479.004,-844.238,105.957,-14.40,-2.85,-31.50,16.77
13015,4.00,-1.98,-47.93,109.863,-481.934,1279.297,-15.30,-2.70,-31.20,16.72
13025,0.16,3.03,-39.73,754.395,-831.055,-173.828,-15.30,-2.70,-31.20,16.48
13035,-6.27,-6.64,-51.96,404.297,-1126.953,500.977,-16.20,-3.75,-31.05,16.58
13045,-11.99,-2.71,-46.27,-426.270,-817.383,-82.031,-14.40,-2.55,-31.80,16.72
13055,-2.67,4.12,-46.15,161.133,-185.547,1649.414,-15.15,-1.35,-32.25,16.38
13065,-1.08,-2.85,-27.68,-446.289,-1116.211,1973.145,-13.95,-3.30,-32.25,16.77
13075,1.56,1.89,-43.69,711.914,-839.355,1166.992,-13.95,-3.30,-32.25,16.58
13087,7.51,-0.54,-34.64,-379.395,-320.312,673.828,-13.80,-2.25,-32.40,16.62
13097,16.80,4.02,-40.93,-193.848,-700.195,1999.939,-13.20,-1.35,-32.25,16.91
13107,3.15,-0.24,-49.09,65.918,-1034.668,1448.242,-13.20,-1.35,-32.25,16.58
13117,-9.58,4.14,-46.48,-242.676,-780.762,693.848,-13.95,-1.65,-33.00,16.62
13127,-11.77,-5.21,-51.14,-397.461,-735.352,1429.199,-12.60,-1.95,-33.15,16.48
13137,-6.70,5.03,-37.51,-47.852,-361.328,1365.723,-12.60,-1.05,-33.45,16.43
13147,4.15,-0.15,-38.40,-329.590,-731.934,871.094,-12.30,-2.25,-32.70,16.82
13159,5.56,-8.58,-47.56,-277.832,-346.680,1627.441,-12.30,-2.25,-32.70,16.29
13169,18.05,-2.33,-45.98,-679.687,-178.711,709.473,-12.45,-1.65,-33.30,16.72
13179,34.00,1.77,-46.95,287.109,-1320.801,323.242,-13.80,-1.05,-33.15,16.77
13189,11.24,-6.55,-36.69,-44.434,-1127.441,1239.258,-13.80,-1.05,-33.15,16.58
13199,7.84,0.73,-48.50,128.418,-1007.324,446.289,-12.30,-0.75,-33.15,16.43
13209,0.05,-7.46,-55.54,-79.102,-1306.152,1379.395,-11.25,-1.35,-32.25,16.62
13226,-10.57,-1.37,-47.27,-130.371,-740.723,1467.285,-11.70,-1.35,-33.30,16.38
13235,-12.21,6.11,-50.70,-336.426,-135.742,985.352,-11.70,-1.35,-33.30,16.38
13245,-4.08,3.18,-40.81,-418.945,-90.820,1737.305,-11.10,-0.30,-33.15,16.58
13255,6.40,5.07,-48.55,-223.633,-460.937,1229.980,-10.50,0.15,-33.30,16.58
13265,17.11,-1.34,-38.19,-206.055,-794.922,1227.051,-10.50,0.15,-33.30,16.58
13275,13.97,4.37,-38.92,-155.762,-666.504,1524.902,-10.65,0.30,-33.45,16.62
13285,8.85,6.02,-46.60,-223.145,-685.059,970.215,-9.30,-0.45,-34.50,16.38
13297,-11.65,6.54,-40.27,72.754,-572.754,1165.039,-10.05,-0.90,-34.05,16.62
13307,-18.69,5.15,-26.80,-603.516,-141.602,656.250,-9.00,0.90,-33.30,16.43
13317,-0.73,3.44,-43.54,111.816,-892.578,638.184,-9.00,0.90,-33.30,16.48
13327,1.28,-6.89,-45.28,-179.687,-1043.945,1560.547,-9.30,0.45,-32.25,16.48
13337,2.40,-1.83,-40.25,68.848,-493.652,1458.496,-9.60,-0.30,-32.70,16.58
13347,-0.02,-2.43,-49.36,-141.113,-470.215,702.148,-9.60,-0.30,-32.70,16.48
13357,17.26,-11.56,-41.37,234.375,-1116.211,1398.438,-9.00,0.45,-32.55,16.43
13369,17.39,-7.38,-40.84,-235.840,-920.410,477.539,-8.25,-0.45,-33.00,16.72
13379,5.05,-3.73,-52.58,-7.324,-574.219,677.246,-9.00,1.35,-32.55,16.43
13389,9.89,-4.10,-37.61,-91.797,-674.805,801.758,-8.25,-0.15,-33.00,16.29
13399,8.95,4.47,-45.39,-68.848,-1135.742,633.301,-8.25,-0.15,-33.00,16.48
13409,-0.73,1.63,-41.29,-149.414,-571.777,661.621,-7.35,-0.45,-33.30,16.77
13419,-9.19,12.68,-44.67,-367.187,-464.844,937.500,-9.00,0.45,-34.50,16.77
13429,-0.22,9.01,-40.10,-275.391,-997.070,1047.363,-9.00,0.45,-34.50,16.48
13441,-0.31,5.80,-32.58,-155.273,-293.945,1087.402,-8.70,0.75,-33.45,16.72
13451,1.60,5.94,-38.22,65.430,-723.633,615.234,-8.40,0.75,-33.90,16.77
13460,-5.53,3.77,-39.11,-141.113,-602.051,576.660,-6.30,-0.15,-33.00,16.38
13470,-0.43,2.15,-46.07,155.273,-498.047,1121.094,-7.20,0.00,-32.70,16.72
13480,-1.28,0.90,-41.15,-128.418,-246.094,672.363,-7.20,0.00,-32.70,16.58
13490,7.15,-0.83,-46.38,-74.219,-785.156,971.680,-7.05,0.90,-33.75,16.58
13502,4.79,-2.42,-40.29,-285.156,-706.543,580.078,-8.25,0.90,-34.05,16.29
13512,2.33,-1.01,-42.70,-129.883,-621.094,933.105,-7.65,2.70,-33.90,16.48
13522,-1.62,0.27,-43.02,217.285,-752.930,1073.242,-6.60,2.55,-34.50,16.58
13532,-4.11,1.50,-49.63,-223.633,-722.656,1220.703,-6.30,2.10,-35.25,16.62
13542,-0.51,0.84,-41.30,-257.812,-876.465,1060.059,-6.45,2.70,-34.20,16.19
13552,4.27,-1.47,-38.18,-185.059,-226.562,1456.543,-5.55,1.65,-36.75,16.58
13562,0.47,3.64,-47.71,-176.758,-191.406,810.059,-5.55,1.65,-36.75,16.58
13574,0.23,-3.86,-45.36,-213.379,-79.102,1539.551,-5.10,0.90,-36.30,16.48
13584,-0.34,-4.55,-52.24,-8.301,-680.176,1032.715,-4.20,1.50,-34.95,16.72
13594,-1.42,-9.63,-34.56,-259.766,-916.504,1091.797,-3.75,1.05,-34.95,16.77
13604,-1.66,-7.85,-47.24,-413.574,-272.461,693.359,-3.75,1.05,-34.95,16.43
13614,4.82,-9.00,-42.62,42.969,-420.410,609.375,-4.80,0.45,-34.80,16.38
13624,-6.46,-0.19,-45.00,-103.027,-900.391,687.012,-5.70,1.50,-36.60,16.38
13634,-13.63,-7.88,-56.68,-179.687,-147.949,1381.836,-5.70,1.50,-36.60,16.72
13646,-5.48,-8.73,-42.51,-188.965,-685.547,1268.066,-3.00,1.05,-36.60,16.72
13656,-6.24,-3.74,-41.31,-149.902,-365.234,816.406,-2.55,0.75,-37.35,16.62
13666,5.63,-11.69,-48.86,-215.820,-589.355,905.762,-2.40,1.35,-36.30,16.62
13676,2.73,3.42,-41.90,-321.777,87.402,923.340,-0.30,0.30,-34.95,16.62
13685,5.46,-4.98,-49.69,-252.930,-250.488,609.375,-0.30,0.30,-34.95,16.24
13695,13.60,1.87,-46.21,-242.676,-85.938,513.672,-2.25,2.70,-32.70,16.43
13705,15.79,0.20,-40.34,-108.887,-1090.820,1177.246,-1.65,2.10,-34.50,16.72
13716,0.82,1.92,-43.69,-562.500,-813.477,873.047,-1.65,2.10,-34.50,16.72
13726,-0.25,1.04,-42.32,107.422,-1401.855,1023.437,-1.20,2.85,-35.25,16.72
13741,-14.05,4.92,-52.84,-151.855,-1000.000,461.914,-1.20,3.30,-34.05,16.43
13750,-17.53,2.13,-44.76,-452.637,-353.027,1486.816,-2.10,1.35,-33.75,16.43
13760,-3.04,10.76,-44.57,-195.312,-292.480,466.309,-1.50,2.70,-33.90,16.77
13770,10.08,1.34,-49.27,-346.191,-477.539,1048.340,-1.50,2.70,-33.90,16.48
13780,21.31,9.90,-47.94,-249.023,-719.727,1019.531,-0.45,0.15,-34.05,16.58
13790,19.11,1.95,-41.82,-180.176,-1114.258,1999.939,-0.75,1.95,-33.15,16.82
13802,0.26,7.79,-49.02,-185.059,-1254.395,1966.309,-0.75,1.95,-33.15,16.58
13812,-20.39,9.51,-53.84,-15.137,-791.016,1519.531,-1.20,1.35,-34.50,16.48
13822,-31.66,-0.11,-48.08,-150.879,-828.125,972.168,0.00,1.95,-33.90,16.58
13832,-27.97,-5.28,-51.36,-460.937,-707.031,1357.910,-1.05,0.75,-33.90,16.24
13842,-20.72,4.56,-53.75,-65.430,-735.352,755.371,0.15,0.15,-34.05,16.62
13852,-13.85,-5.08,-52.54,117.188,166.504,1847.168,0.15,0.15,-34.05,16.77
13864,-3.43,3.67,-46.24,133.301,-967.773,974.609,0.30,0.00,-34.95,16.38
13874,-17.35,2.49,-55.93,-107.422,-583.984,778.320,0.30,0.00,-34.95,16.62
13884,-12.44,-1.27,-59.41,108.887,-1105.469,1475.586,0.75,0.00,-33.90,16.43
13894,-24.76,-9.54,-51.81,-266.602,-91.797,1697.754,1.65,-0.15,-34.05,16.58
13904,-16.99,-18.21,-52.84,-960.937,98.145,1999.939,0.90,0.90,-34.80,16.38
13914,12.21,-16.93,-94.19,-83.496,266.113,1999.939,1.05,-0.30,-33.90,16.62
13924,23.08,-16.18,-47.47,-311.523,-976.074,1465.332,1.05,-0.30,-33.90,16.62
13936,28.79,-19.31,-41.27,-219.727,-1368.652,1123.047,0.75,1.05,-33.15,16.38
13946,7.81,-11.25,-120.12,124.512,-676.758,1413.086,0.90,1.35,-33.30,16.48
13956,-8.28,-12.79,-43.29,-678.223,-814.453,1011.230,0.90,1.35,-32.55,16.58
13966,-1.62,-28.17,-4.80,-375.977,-1234.375,1082.031,2.40,0.45,-34.50,16.77
13976,-10.08,-25.37,-84.64,35.645,-160.156,268.066,2.25,0.30,-34.20,16.48
13986,9.14,-31.00,-63.08,-8.789,-83.496,956.055,1.50,0.30,-33.90,16.38
13996,12.79,-20.05,-64.52,-282.715,263.184,671.387,0.90,-0.90,-34.50,16.82
14008,-2.59,-28.00,-38.44,184.570,-1105.957,1044.922,0.90,-0.90,-34.50,16.24
14018,-0.44,-22.55,-16.96,-297.363,-773.926,1094.727,0.75,0.00,-33.45,16.43
14028,-16.50,-25.08,-57.19,-574.707,-967.285,1494.141,0.75,1.05,-34.20,16.48
14038,-7.02,-30.59,-48.67,-20.020,-444.336,797.363,0.90,0.15,-34.80,16.72
14048,-26.07,-15.34,-46.11,-160.156,-937.988,405.273,0.45,-0.45,-34.80,16.58
14058,-27.29,-20.71,-60.07,-393.555,-622.070,978.027,0.45,-0.45,-34.80,16.38
14070,-4.47,-9.30,-65.88,-571.289,-874.023,1624.512,2.40,-0.15,-34.80,16.62
14080,13.71,0.70,-42.97,-845.703,-591.797,1999.939,2.25,0.75,-34.20,16.77
14090,12.33,0.51,-78.63,-213.379,-541.992,347.656,2.25,0.75,-34.20,16.38
14099,-1.10,26.50,-64.66,-356.934,-688.477,166.016,1.65,2.55,-36.30,16.72
14109,13.90,20.60,-47.72,-196.777,-899.902,1301.270,3.90,1.35,-35.25,16.82
14119,2.75,18.26,-69.92,11.230,-1093.262,1160.156,2.85,0.90,-36.75,16.58
14128,6.24,24.82,-8.27,60.059,-982.422,813.965,2.55,2.25,-36.90,16.43
14140,-7.22,40.92,-26.45,-394.043,-577.148,833.984,2.55,2.25,-36.90,16.72
14150,1.84,20.43,-54.60,-113.770,-318.848,864.746,4.20,0.30,-37.65,16.19
14160,3.40,21.60,-48.60,392.090,-45.410,1444.336,4.95,0.75,-36.60,16.82
14169,3.60,15.97,-41.05,-347.168,-204.102,1166.992,4.95,0.75,-36.60,16.62
14179,-4.40,11.56,-55.30,-296.387,-1085.449,1469.238,6.15,1.50,-36.60,16.58
14189,13.44,-0.02,-40.63,234.375,-661.133,1256.836,6.30,0.90,-36.75,16.77
14198,3.11,-0.04,-58.28,177.246,-638.184,684.570,5.25,1.05,-37.65,16.43
14209,5.18,-6.79,-56.82,120.605,-863.770,412.598,6.90,1.50,-35.40,16.82
14219,-5.50,-1.06,-51.30,-360.840,152.344,644.531,6.90,1.50,-35.40,16.62
14229,2.46,-9.34,-61.46,-53.711,-754.395,1192.383,6.60,2.10,-36.75,16.38
14239,9.85,4.03,-46.73,-213.379,-627.441,233.398,7.20,0.75,-37.65,16.77
14253,1.03,-3.22,-48.96,-155.762,-750.000,664.551,7.20,0.75,-37.65,16.58
14263,6.70,-11.82,-46.03,-163.574,-869.629,688.965,7.65,1.50,-38.10,16.82
14275,3.92,-0.92,-49.26,-229.004,-539.062,682.129,7.80,1.35,-37.80,16.72
14285,0.11,-9.44,-48.53,-268.555,-1001.953,1416.504,7.35,1.65,-37.50,16.58
14295,-0.02,-1.44,-43.10,-116.699,-700.195,1329.590,7.35,1.65,-37.50,16.43
14305,4.24,-2.76,-42.48,-138.672,-486.328,740.723,7.65,1.50,-38.10,16.43
14315,-8.47,0.07,-59.02,-180.176,-420.898,1398.926,7.95,0.75,-38.85,16.43
14325,8.15,-3.74,-39.83,-45.898,-677.246,1400.879,8.40,0.30,-38.10,16.38
14335,-2.07,-1.66,-52.26,-335.449,-875.977,1176.270,7.95,-0.30,-38.10,16.58
14347,-4.89,1.95,-51.92,-346.191,-817.871,908.203,8.40,1.95,-38.10,16.43
14357,-2.89,2.95,-39.23,-130.859,-808.105,1200.195,8.40,1.50,-37.35,16.72
14367,2.19,3.24,-48.50,-342.773,-559.082,1496.582,10.65,1.05,-37.35,16.58
14377,-4.69,2.36,-50.92,-17.578,-738.770,1316.895,10.65,1.05,-37.35,16.72
14387,1.70,7.51,-36.08,-141.602,-528.809,1015.137,10.65,1.05,-37.65,16.58
14397,-0.34,0.88,-47.38,-135.742,-748.535,1999.939,9.00,-0.15,-38.25,16.48
14407,7.21,2.85,-49.24,28.809,-1087.891,298.828,10.65,1.05,-37.65,16.38
14419,0.22,0.65,-46.05,-7.812,-525.879,1378.906,9.75,0.15,-37.80,16.24
14429,-5.38,3.37,-52.31,-295.410,-686.523,810.059,11.40,0.75,-37.35,16.48
14439,10.55,0.37,-46.77,12.207,-303.223,1033.203,12.45,-0.15,-37.50,16.48
14449,6.43,-5.15,-43.37,41.992,-486.816,1164.063,11.25,1.35,-38.55,16.48
14458,5.18,2.72,-53.56,-56.152,-318.848,485.352,11.25,1.35,-38.55,16.48
14468,0.81,-4.24,-58.15,-187.988,144.043,1172.363,11.70,0.90,-37.80,16.48
14477,2.92,2.80,-49.99,-309.082,-501.465,1347.656,12.75,-0.15,-38.25,16.58
14489,4.19,3.17,-46.86,-182.129,-1076.172,558.594,12.75,-0.15,-37.80,16.58
14499,3.83,-5.15,-43.37,-355.957,-880.859,1276.855,11.70,0.15,-37.50,16.72
14509,1.65,-4.39,-45.60,-199.707,-439.941,756.348,11.70,0.15,-37.50,16.58
14519,-2.65,-4.22,-51.14,-543.945,-407.715,1240.234,14.10,-0.75,-38.40,16.58
14529,5.36,-9.84,-45.23,-204.102,-495.117,813.477,13.95,-1.35,-37.50,16.48
14539,2.82,8.13,-46.95,-217.773,-691.406,24.902,13.95,-1.35,-37.50,16.38
14549,-8.43,-3.32,-48.72,-178.711,-621.094,1030.273,13.35,-0.75,-38.40,16.62
14561,-6.76,-2.76,-46.63,-332.031,-624.512,1241.211,13.50,-0.45,-38.55,16.38
14571,-10.18,-2.00,-52.11,28.320,25.391,869.629,13.35,0.30,-37.65,16.72
14580,-1.97,-2.21,-50.32,-73.730,-300.293,703.613,13.50,-1.35,-37.05,16.77
14590,7.54,-6.68,-40.41,61.523,-582.031,1108.398,13.50,-1.35,-37.05,16.77
14600,6.73,-2.81,-42.42,-372.559,-950.195,1717.285,13.20,-0.15,-37.50,16.48
14610,-4.29,4.53,-44.89,-120.605,-416.504,578.613,14.10,-1.05,-37.35,16.38
14622,2.80,-5.37,-46.56,-154.297,-636.719,1686.035,14.10,-1.05,-37.35,16.48
14632,-3.24,-0.24,-45.02,-77.637,-395.508,702.637,14.85,-0.75,-36.60,16.24
14642,-2.23,4.50,-40.50,9.766,-726.562,532.715,15.15,-1.65,-37.80,16.58
14652,-6.73,2.82,-52.76,-270.508,-433.594,500.977,13.95,-0.45,-39.30,16.62
14662,6.71,0.66,-46.64,30.273,-701.172,689.453,15.90,-2.10,-36.75,16.91
14672,-2.94,3.26,-47.45,-258.789,-566.895,1104.004,15.90,-2.10,-36.75,16.43
14682,3.60,8.34,-47.89,17.578,-648.926,1184.082,15.30,-1.95,-38.85,16.58
14694,6.85,-0.15,-50.43,-90.332,-706.543,1367.676,14.55,-2.25,-38.40,16.72
14704,5.53,4.08,-47.08,-264.160,-519.531,975.098,14.55,-2.25,-38.40,16.58
14714,3.55,4.34,-50.81,22.461,-419.922,771.484,16.50,-2.25,-39.60,16.38
14724,5.27,4.63,-45.85,-127.441,-1119.141,1176.758,15.75,-1.50,-38.85,16.48
14734,2.66,-1.65,-47.46,-411.133,-558.105,1732.910,17.10,-1.65,-39.30,16.77
14744,-1.05,-5.40,-47.15,-180.664,-302.734,845.215,16.65,-4.05,-37.50,16.77
14754,10.89,0.19,-41.88,-318.848,-625.488,779.785,16.65,-4.05,-37.50,16.43
14780,-19.56,6.38,-46.87,-170.410,-515.625,1170.410,17.25,-2.70,-39.60,16.72
14789,-4.77,0.18,-45.12,-529.785,-440.918,623.535,16.50,-3.90,-38.40,16.62
14799,0.59,8.65,-58.23,3.906,-172.852,804.687,15.15,-4.05,-38.25,16.62
14808,4.80,4.01,-64.24,265.137,-641.113,130.859,17.10,-3.30,-38.55,16.77
14818,7.73,-0.48,-41.53,-5.859,-556.152,316.406,17.55,-3.15,-36.90,16.29
14828,5.02,-1.42,-48.44,-108.887,-655.762,624.023,17.55,-3.15,-36.90,16.58
14838,-2.20,-1.93,-52.34,-361.816,-431.641,779.297,17.40,-2.85,-37.50,16.48
14850,7.66,0.21,-51.76,223.145,-598.145,0.000,17.10,-5.25,-38.25,16.48
14860,8.04,2.40,-52.04,125.000,-832.031,884.766,17.25,-4.65,-38.40,16.48
14870,-3.94,1.10,-51.11,-232.422,-219.238,1014.160,18.60,-4.50,-37.80,16.82
14880,-2.56,0.57,-50.26,-352.051,-410.156,581.055,17.55,-4.35,-38.40,16.77
14890,0.03,-0.55,-42.58,-524.902,-827.148,1051.270,18.75,-4.35,-37.65,16.43
14900,-1.93,-1.76,-45.38,-224.121,-563.965,1063.477,17.10,-4.95,-38.55,16.58
14910,-0.60,4.01,-33.94,-202.637,-126.465,1175.781,17.10,-4.95,-38.55,16.58
14922,2.42,2.33,-46.42,-416.992,-601.562,1809.082,18.90,-5.25,-37.80,16.24
14932,5.53,0.26,-49.06,118.164,-802.246,996.582,18.90,-4.95,-39.30,16.77
14942,-4.51,4.32,-49.15,-511.719,-530.762,1025.391,19.35,-5.25,-39.30,16.77
14952,1.14,7.16,-44.56,-53.223,-869.141,1163.086,17.55,-3.90,-39.15,16.62
14962,-10.92,8.48,-47.88,-125.488,-505.859,1364.746,19.35,-4.05,-39.30,16.58
14972,-2.96,5.57,-48.60,-84.473,-498.535,1062.012,19.35,-6.15,-38.25,16.72
14982,-8.91,6.98,-50.59,-419.434,331.055,1384.277,19.65,-5.25,-39.00,16.10
14994,3.56,3.76,-56.82,-29.785,-628.906,496.094,19.65,-5.25,-39.00,16.29
15004,10.23,0.21,-45.18,7.812,-655.762,1229.492,20.85,-6.45,-39.30,16.29
15013,6.37,-3.50,-53.87,3.906,-828.125,220.703,20.55,-5.70,-39.00,16.82
15023,0.32,-5.47,-47.97,-155.762,-873.535,1186.035,20.55,-5.70,-39.00,16.43
15033,-1.53,2.16,-47.24,75.684,-680.664,652.832,20.10,-6.45,-39.00,16.58
15043,-0.62,-13.03,-48.73,6.348,-826.172,1234.863,20.10,-6.45,-39.00,16.58
15053,-5.60,-3.44,-49.39,-159.668,-433.594,646.484,20.85,-7.35,-39.30,16.29
15065,-1.88,-9.34,-47.09,-149.414,-411.133,1633.789,20.10,-6.15,-39.00,16.43
15075,-5.50,-3.87,-46.24,-182.129,-297.363,758.789,20.10,-6.15,-39.00,16.43
15085,0.89,-4.69,-46.44,-123.047,-460.449,1113.770,21.60,-6.90,-39.75,16.72
15095,-3.85,-3.08,-48.07,-386.719,-401.367,581.543,21.60,-6.90,-39.30,16.62
15105,2.76,-4.40,-44.88,-46.875,-251.465,802.734,21.60,-8.10,-39.75,16.58
15115,0.97,-2.77,-42.49,-221.191,-701.660,563.477,21.60,-7.35,-39.75,16.43
15127,-1.20,-0.87,-47.47,-258.301,-12.695,1181.641,21.00,-7.95,-39.90,16.62
15137,10.54,-0.44,-38.07,-155.762,-354.492,825.195,20.10,-8.10,-39.30,16.43
15147,9.41,3.73,-39.73,-405.273,-686.035,1008.789,20.10,-8.10,-39.30,16.38
15157,12.71,-0.25,-40.33,-50.293,-1200.195,979.980,21.45,-8.25,-40.65,16.58
15167,1.11,0.40,-49.73,-324.219,-687.988,1157.715,21.90,-8.70,-39.90,16.38
15177,0.50,3.92,-42.11,139.648,-393.066,938.477,21.45,-9.15,-39.60,16.58
15186,1.26,-3.06,-50.63,26.855,-432.617,822.266,21.30,-8.85,-40.05,16.62
15198,7.73,-1.96,-46.67,146.973,-773.926,712.402,21.30,-8.85,-40.05,16.58
15208,-0.63,3.37,-42.48,-271.484,-664.551,613.281,21.30,-9.30,-40.05,16.62
15218,1.64,7.50,-46.74,-111.816,-353.516,794.922,22.65,-9.45,-38.40,16.58
15228,1.02,3.05,-41.62,-310.059,-376.953,1146.484,22.65,-9.45,-38.40,16.77
15238,-0.69,3.53,-40.76,-192.383,-528.809,1322.754,22.95,-9.45,-39.60,16.58
15248,-7.72,5.94,-47.95,-191.406,-645.020,455.078,21.45,-9.45,-39.60,16.77
15258,-0.58,5.98,-49.40,90.332,-441.895,1140.625,21.90,-8.70,-39.90,16.58
15270,-3.11,4.84,-47.36,-123.535,-507.812,718.262,22.35,-10.95,-39.75,16.58
15280,-6.92,4.40,-40.16,-261.719,-513.184,811.035,22.35,-10.95,-39.75,16.58
15296,-2.11,4.37,-42.21,226.074,-345.215,756.348,24.60,-11.55,-39.15,16.43
15305,-7.89,7.11,-46.04,197.266,-208.008,758.789,22.35,-10.50,-40.05,16.48
15315,1.39,-1.73,-46.26,151.855,-286.621,853.516,22.35,-10.50,-40.05,16.43
15325,-2.61,-0.16,-34.24,-220.703,-480.469,995.605,22.95,-11.85,-39.60,16.72
15337,2.81,1.87,-45.32,-78.125,-439.941,1039.551,23.55,-12.90,-40.05,16.72
15347,0.89,3.99,-40.72,-62.500,-618.164,871.582,24.15,-12.30,-40.35,16.72
15357,-1.55,5.89,-44.40,-35.156,-461.914,833.008,24.15,-12.30,-40.35,16.48
15367,3.89,3.78,-47.35,55.176,-313.965,954.102,24.60,-13.05,-40.35,16.91
15376,6.82,2.28,-46.21,81.543,-137.207,863.770,24.15,-13.50,-41.85,16.38
15386,8.53,8.18,-43.41,106.445,-108.398,1021.484,24.15,-13.50,-41.85,16.48
15395,5.39,5.96,-52.85,256.836,-909.668,593.262,25.35,-13.05,-41.10,16.82
15406,-2.79,5.58,-43.58,226.562,-576.172,168.945,25.65,-12.30,-42.15,16.77
15416,-9.85,-2.96,-44.71,-354.004,-1067.871,1776.855,25.50,-12.30,-42.15,16.62
15426,-8.86,1.90,-42.38,-64.453,-429.687,1047.363,25.65,-12.30,-41.85,16.72
15436,-4.06,-0.98,-45.85,264.648,-367.676,795.898,25.65,-12.30,-41.85,16.72
15446,-0.63,-0.77,-42.24,154.785,-780.762,605.957,23.70,-14.25,-41.85,16.48
15456,-7.04,0.53,-41.35,-279.785,-524.902,1038.574,24.30,-12.90,-41.25,16.77
15468,1.52,0.66,-47.48,11.719,-687.500,713.379,23.70,-14.70,-40.65,16.58
15478,-4.07,-1.06,-43.62,-68.848,-458.008,528.809,24.75,-14.10,-41.25,16.72
15488,-4.32,-1.07,-50.75,109.375,-223.633,1070.801,25.50,-14.40,-41.25,16.72
15498,7.83,-1.30,-42.67,87.891,-932.129,849.609,24.00,-15.60,-39.30,16.72
15508,2.27,3.39,-58.63,-198.730,-591.309,1254.883,25.50,-14.10,-41.55,16.38
15518,-2.05,6.25,-56.31,29.297,-834.473,778.320,25.50,-14.10,-41.55,16.58
15528,-5.50,8.71,-54.15,-182.129,-544.434,940.918,24.30,-14.40,-41.25,16.77
15540,-2.76,2.90,-44.25,40.039,-529.297,1561.523,25.35,-16.20,-41.40,16.58
15550,-14.66,1.78,-45.66,-286.133,-187.988,845.215,24.60,-15.90,-41.10,16.77
15560,-6.56,1.13,-45.42,-227.051,-464.844,910.156,24.30,-14.85,-42.00,16.62
15570,-2.04,2.72,-45.63,220.703,-569.824,1666.016,24.30,-14.85,-42.00,16.72
15580,-0.69,0.97,-41.83,154.785,-285.645,1525.879,24.75,-14.85,-41.25,16.58
15590,1.28,-3.27,-43.20,96.680,-393.555,1248.047,24.30,-16.05,-41.55,16.62
15600,-1.47,-4.02,-43.47,-154.297,-620.117,561.523,24.30,-16.05,-41.55,16.77
15612,-5.21,0.36,-41.47,-89.844,-313.477,987.305,24.75,-15.60,-41.55,16.58
15622,2.73,1.37,-44.20,252.441,-506.836,447.754,25.80,-17.25,-40.50,16.62
15631,7.63,-3.69,-52.01,181.641,-330.078,528.809,24.15,-16.20,-42.15,16.91
15641,0.60,-5.27,-44.58,-49.316,-552.734,1252.441,25.05,-16.05,-40.80,16.58
15651,-2.24,-5.31,-37.85,-115.723,-756.836,1304.199,25.05,-16.05,-40.80,16.62
15661,-0.85,-5.24,-50.72,-86.426,-969.727,935.547,25.05,-16.50,-40.80,16.48
15673,-3.00,-5.16,-44.57,-327.637,127.441,1512.207,26.40,-18.30,-41.10,16.62
15683,-5.32,-4.21,-44.54,-239.746,-384.277,986.816,26.40,-18.30,-41.10,16.38
15693,1.54,-1.54,-40.92,-21.484,-464.355,1042.480,24.75,-17.70,-40.05,16.48
15703,2.91,0.87,-35.46,41.016,-465.820,882.812,25.80,-18.45,-40.50,16.72
15713,2.61,0.12,-28.07,51.270,-738.770,700.684,24.90,-18.60,-41.85,16.62
15723,-0.76,-3.18,-43.68,-338.379,-350.586,905.273,25.05,-19.65,-40.05,16.48
15733,6.27,0.46,-39.18,-19.043,-660.156,416.016,25.05,-19.65,-40.05,16.62
15745,-1.82,-1.63,-41.89,-85.449,-317.871,1433.594,25.65,-18.30,-41.85,16.77
15755,5.02,2.56,-35.57,135.742,-685.547,436.035,25.50,-20.40,-41.55,16.58
15765,-3.24,7.48,-40.35,245.117,-422.852,739.746,25.50,-20.40,-41.55,16.48
15775,-2.01,-2.63,-40.48,-173.828,-460.449,1347.656,25.80,-20.40,-39.75,16.62
15785,1.92,2.60,-42.61,33.203,-659.180,981.445,25.65,-20.25,-41.85,16.77
15795,-2.16,5.98,-35.10,-158.203,-400.879,640.625,25.05,-20.85,-41.55,16.62
15812,-2.93,4.39,-43.00,-204.102,-309.570,754.883,25.50,-20.40,-42.00,16.77
15821,-4.57,4.04,-60.50,-313.965,-231.445,400.879,25.50,-22.05,-40.80,16.58
15831,2.65,3.33,-40.74,-28.320,-343.750,748.535,25.35,-20.25,-41.10,16.38
15841,-2.97,-5.17,-41.74,-133.789,-45.898,1384.766,25.35,-20.25,-41.10,16.58
15851,6.29,-2.79,-31.64,-77.148,-954.590,1000.488,25.35,-20.25,-39.90,16.62
15861,-4.92,5.67,-35.80,-202.148,-706.055,1299.316,26.70,-20.85,-41.55,16.77
15871,-0.01,-6.62,-38.05,-118.164,-763.672,1716.309,26.25,-21.30,-40.50,16.72
15883,-2.01,-0.38,-43.74,-19.531,-593.750,1225.586,26.10,-22.20,-42.60,16.58
15893,-10.24,3.47,-40.73,-424.805,-29.297,1178.223,26.10,-22.20,-42.60,16.62
15903,-2.05,-0.65,-38.56,-251.465,-422.852,1523.926,25.05,-21.60,-41.25,16.77
15913,1.22,8.67,-38.52,91.309,-276.367,850.586,25.05,-22.05,-41.55,16.48
15922,-1.99,4.54,-38.25,98.633,-427.734,1192.871,25.05,-22.05,-41.55,16.48
15932,0.04,13.43,-34.74,18.555,-570.801,782.715,25.05,-24.00,-42.45,16.82
15941,-4.20,8.97,-41.38,-116.211,-387.207,1185.547,23.55,-21.30,-42.00,16.72
15953,3.95,-0.09,-42.64,-46.875,-300.781,1092.773,24.60,-23.10,-41.85,16.72
15963,-5.02,1.43,-44.93,-322.754,-42.969,1119.629,24.00,-23.70,-42.00,16.43
15973,6.35,-0.09,-31.98,465.332,-615.234,500.977,24.00,-23.70,-42.00,16.38
15983,-5.56,-0.05,-37.31,-217.773,-598.633,1349.609,26.40,-23.85,-41.40,16.77
15993,4.19,-4.34,-36.37,314.453,-891.113,747.559,24.75,-24.00,-42.75,16.72
16003,-2.95,-1.34,-33.48,237.305,-680.176,259.766,24.00,-22.80,-42.45,16.58
16015,-0.03,-2.07,-33.92,202.637,-519.043,706.543,24.60,-25.05,-41.10,16.43
16025,-3.11,-4.40,-34.45,-190.430,-505.371,1604.492,25.05,-22.50,-41.25,16.62
16035,0.98,-4.35,-34.53,-175.293,-472.168,1500.488,26.25,-24.45,-41.55,16.72
16045,4.08,-1.37,-27.02,-89.844,-978.516,404.297,24.30,-24.00,-42.00,16.77
16055,-4.18,-0.17,-37.45,-257.324,-462.891,1999.939,24.30,-24.00,-42.00,16.43
16065,-9.37,-6.45,-23.84,-307.617,-105.469,1654.785,24.15,-24.30,-41.10,16.72
16075,-2.16,-0.54,-31.33,192.871,-477.051,378.906,23.70,-25.05,-42.60,16.72
16087,2.65,-2.95,-38.52,29.297,-462.402,865.723,23.70,-26.55,-42.60,16.58
16097,4.84,-1.75,-39.25,207.031,-483.398,996.094,23.70,-26.55,-42.60,16.58
16107,-9.45,3.53,-38.81,-614.746,-452.148,1150.391,23.70,-26.55,-42.60,16.77
16117,-0.79,-0.34,-40.92,62.988,-396.484,1425.293,24.60,-27.00,-42.15,16.62
16127,-3.42,2.80,-38.54,139.648,-662.109,485.352,24.60,-27.00,-42.15,16.77
16137,-2.89,0.68,-35.57,-75.195,-871.582,1520.996,24.60,-27.00,-42.15,16.38
16147,1.83,-4.50,-35.45,-67.871,-389.648,1371.094,24.30,-26.40,-43.20,16.72
16159,-3.38,-2.92,-40.93,-257.324,55.176,1768.066,22.80,-26.40,-41.55,16.38
16169,7.52,-8.80,-32.56,516.113,-1186.523,1068.359,24.00,-27.60,-42.45,16.77
16179,-11.08,1.74,-37.36,91.309,-419.922,176.270,24.00,-27.60,-42.45,16.77
16189,-7.00,-3.92,-40.52,-388.672,-495.605,1795.410,24.00,-27.60,-40.80,16.72
16199,8.68,-4.73,-33.70,-11.230,-499.023,516.113,23.55,-27.60,-41.25,16.58
16209,-4.76,6.27,-40.06,-429.687,-55.664,833.984,23.55,-27.60,-41.25,16.38
16221,6.34,13.53,-39.60,285.156,-466.797,533.691,23.55,-25.95,-41.25,16.48
16231,-6.43,-8.84,-36.92,-283.203,-346.680,1999.939,22.35,-26.40,-41.55,16.77
16241,5.74,-2.76,-34.73,118.652,-742.187,394.531,23.25,-25.95,-42.00,16.38
16251,-1.18,-0.63,-34.37,199.219,-374.023,780.273,22.65,-28.65,-42.15,16.72
16261,1.92,-2.50,-32.99,-281.250,-188.477,1878.906,22.65,-28.65,-42.15,16.77
16271,-1.56,2.64,-38.92,128.906,-438.965,627.441,21.90,-27.00,-42.15,16.48
16281,-14.08,-1.04,-51.82,-613.281,220.703,1583.008,22.65,-28.95,-42.60,16.72
16293,-1.50,8.55,-27.92,-4.883,-590.332,188.477,22.65,-28.95,-42.60,16.62
16303,-3.18,-7.57,-26.08,-166.016,-153.809,1635.254,22.65,-29.85,-41.40,16.72
16313,0.86,0.70,-32.02,317.383,-737.305,564.941,22.65,-28.20,-42.90,16.38
16328,-0.72,-3.52,-34.11,-81.543,-557.617,1140.625,22.05,-25.95,-43.20,16.82
16337,-4.63,-3.60,-24.98,-237.305,-405.762,1973.145,23.40,-28.65,-41.85,16.62
16347,1.62,-2.51,-28.85,301.758,-591.797,818.848,23.40,-28.65,-41.85,16.72
16357,3.02,1.44,-37.69,108.398,-687.012,1045.410,22.65,-28.95,-41.40,16.72
16369,-0.42,5.32,-37.89,-116.699,-580.566,452.148,22.95,-28.95,-42.60,16.72
16379,-11.04,-0.07,-50.08,-392.578,-191.895,1949.707,22.65,-30.15,-41.85,16.77
16389,-0.57,-2.98,-38.53,28.809,-159.180,1049.316,21.30,-29.55,-43.20,16.43
16399,5.94,8.23,-28.92,238.281,-558.105,897.949,22.95,-27.75,-42.60,16.43
16408,-3.46,1.12,-38.27,-490.234,-11.719,1362.793,22.20,-29.40,-41.40,16.58
16418,14.14,-10.03,-29.63,485.840,-449.707,520.996,22.20,-29.40,-41.40,16.58
16430,0.06,-10.69,-30.60,150.391,-918.457,1999.939,21.00,-28.20,-42.60,16.77
16440,6.98,-0.86,-38.02,-254.883,-562.988,931.641,21.90,-30.60,-42.15,16.43
16450,-13.07,3.13,-34.92,-319.336,-556.641,1037.598,21.45,-28.65,-42.60,16.58
16460,-0.28,-10.60,-40.60,35.645,-484.375,729.492,22.35,-30.00,-40.80,16.43
16470,-4.14,-5.37,-27.09,-545.898,38.574,996.582,22.35,-30.00,-40.80,16.58
16480,3.62,-5.23,-34.31,-199.219,-317.871,817.383,20.85,-30.45,-43.20,16.72
16490,6.99,0.01,-31.47,444.824,-726.074,317.383,21.00,-30.15,-41.10,16.48
16501,6.93,-8.50,-34.92,571.289,-1125.000,497.070,21.00,-30.15,-41.10,16.62
16511,-3.69,7.16,-35.10,-123.047,-604.004,552.246,21.45,-29.40,-42.60,16.58
16521,-2.70,-5.67,-33.29,-587.402,-415.039,1999.939,22.65,-29.85,-40.65,16.58
16531,2.50,-1.56,-29.54,40.039,-734.375,162.109,19.95,-32.25,-41.85,16.58
16541,-10.37,4.64,-29.63,-266.602,133.301,1082.031,20.85,-29.25,-41.25,16.77
16551,1.91,0.33,-35.44,439.941,-603.027,1179.688,20.85,-29.25,-41.25,16.58
16560,9.18,-1.63,-37.73,276.855,-896.973,304.687,20.25,-32.25,-41.40,16.62
16572,2.86,-6.27,-17.55,258.301,-905.273,940.430,21.30,-30.75,-42.45,16.48
16582,-4.33,3.96,-38.95,-81.543,197.266,752.441,21.30,-30.75,-42.45,16.38
16592,10.12,-4.16,-31.39,153.809,-437.500,1378.906,20.70,-31.05,-42.90,16.58
16602,9.11,2.01,-31.79,88.867,-720.215,620.605,20.10,-31.65,-41.25,16.72
16611,-2.43,5.63,-34.89,-136.719,-124.023,833.984,19.20,-33.00,-41.40,16.77
16621,-5.14,-3.50,-29.60,191.895,-731.445,1999.939,20.85,-33.15,-42.45,16.43
16633,-5.06,-1.72,-34.88,-188.477,-644.531,1999.939,20.85,-33.15,-42.45,16.62
16643,12.11,3.82,-45.04,-176.270,-598.145,253.906,20.25,-32.55,-41.85,16.77
16653,-17.66,5.40,-34.38,-569.336,181.152,852.539,18.45,-32.25,-42.15,16.48
16663,9.76,-6.91,-35.36,371.094,-837.891,264.160,18.45,-32.25,-42.15,16.43
16673,-9.02,-1.11,-28.44,-360.840,349.609,759.277,19.65,-33.60,-41.25,16.62
16683,20.16,-3.24,-32.40,795.898,-1143.066,528.320,20.25,-31.05,-41.85,16.77
16693,-8.73,-1.82,-21.29,-521.973,-225.586,424.316,19.65,-33.15,-41.25,16.62
16705,-0.71,-4.88,-41.67,-53.223,-354.492,1245.117,19.65,-33.15,-42.75,16.58
16715,0.11,-5.12,-38.72,-8.301,-896.484,1999.939,19.65,-33.15,-42.75,16.62
16725,9.95,0.05,-44.54,-494.141,-949.707,1121.582,19.50,-32.25,-41.40,16.72
16735,-14.75,-0.50,-22.32,-1307.617,511.230,1999.939,19.20,-31.80,-42.60,16.77
16745,15.88,3.07,-42.79,465.820,-507.324,-122.070,19.20,-31.80,-42.60,16.29
16755,-8.92,-4.30,-31.79,-470.703,-180.664,1145.508,18.75,-33.00,-41.40,16.38
16765,4.66,-1.11,-32.27,136.230,-858.887,513.184,18.45,-33.00,-42.90,16.82
16777,1.63,-2.50,-37.53,59.570,-420.898,1212.402,19.95,-31.35,-41.10,16.82
16787,-6.92,6.66,-35.54,-39.551,-349.609,697.266,20.10,-34.05,-40.05,16.77
16797,-2.76,-0.80,-46.95,277.344,-651.367,1999.939,20.10,-34.05,-40.05,16.58
16807,5.38,10.34,-29.50,-256.348,-430.176,987.305,18.60,-33.60,-42.00,16.72
16817,1.54,-9.18,-34.56,-253.906,-1295.410,1999.939,19.35,-34.05,-39.30,16.72
16827,6.11,6.32,-35.08,304.199,-581.543,717.773,18.00,-32.25,-41.10,16.29
16844,20.92,-6.53,-28.04,742.187,-952.637,-483.398,18.75,-35.85,-41.10,16.72
16853,-27.58,-8.63,-34.11,-942.871,-252.930,1438.965,19.20,-33.75,-42.60,16.77
16863,15.71,-7.72,-30.41,360.840,-711.426,-464.844,18.60,-33.15,-40.50,16.43
16873,-23.92,-7.13,-33.77,-582.520,617.187,789.551,18.60,-33.15,-40.50,16.77
16883,11.64,-6.24,-40.32,251.953,-760.254,-173.828,16.50,-33.75,-40.65,16.72
16893,-32.24,-2.94,-34.85,-729.980,500.000,1206.055,17.55,-34.65,-41.10,16.43
16903,18.08,-8.59,-24.72,8.301,-598.145,-759.277,18.15,-34.80,-41.25,16.77
16916,10.63,0.43,-31.56,-422.852,-410.645,770.508,17.40,-33.60,-41.55,16.77
16926,7.34,0.44,-34.39,-424.316,-1177.246,1999.939,17.40,-33.60,-41.55,16.29
16936,13.31,-0.40,-36.73,-43.945,-679.687,671.387,17.40,-35.55,-41.25,16.72
16946,-4.82,-7.24,-36.95,-342.773,-1029.297,1999.939,17.40,-34.80,-41.25,16.48
16956,8.59,-2.10,-30.22,204.590,-599.121,104.980,17.40,-34.80,-41.25,16.58
16966,-17.74,4.68,-34.66,-562.012,-94.727,1080.078,17.25,-35.40,-40.65,16.58
16976,14.80,6.21,-17.92,124.512,-561.035,-156.250,15.90,-34.80,-41.55,16.82
16987,-0.49,-9.66,-59.43,131.836,-677.734,1999.939,17.55,-34.65,-41.40,16.58
16997,0.58,6.09,-28.21,4.883,-395.508,736.328,16.05,-35.85,-40.65,16.19
17006,-14.98,6.18,-30.32,-225.098,-5.859,33.203,16.05,-35.85,-40.65,16.62
17016,7.06,-6.62,-41.59,254.395,-786.621,1498.047,16.65,-34.35,-40.50,16.58
17026,-4.73,2.05,-44.09,-260.742,-214.844,381.836,16.50,-35.85,-41.40,16.82
17036,-1.29,-9.64,-38.08,308.594,-830.078,1631.836,16.50,-35.85,-41.40,16.38
17048,3.69,-4.38,-34.44,47.852,-784.668,1999.939,15.45,-36.00,-40.50,16.72
17058,6.86,-1.14,-37.23,-181.641,-384.766,317.871,16.05,-34.95,-39.90,16.77
17068,3.53,-9.77,-40.90,94.238,-571.289,1999.939,17.40,-34.35,-41.25,16.38
17078,5.95,-8.01,-43.98,288.574,-652.344,699.707,16.50,-34.95,-40.35,16.72
17088,-0.56,-5.69,-37.47,-45.410,-735.352,1999.939,16.50,-34.95,-40.35,16.58
17098,7.68,-1.63,-45.60,-289.551,-669.434,293.945,15.30,-35.85,-41.40,16.82
17108,5.42,-10.47,-42.03,-122.070,-821.777,1999.939,14.40,-36.75,-40.05,16.58
17120,-5.70,-5.79,-31.59,-341.309,-548.340,1999.939,14.85,-34.95,-41.40,16.62
17130,16.42,2.83,-32.79,37.598,-839.844,337.402,15.15,-36.45,-40.05,16.58
17140,-34.91,1.23,-37.63,-415.527,370.605,457.031,15.90,-36.00,-40.05,16.77
17150,6.50,8.29,-38.53,251.953,-139.160,285.156,14.55,-34.65,-40.65,16.43
17159,0.62,7.78,-36.80,-104.980,42.969,871.582,14.55,-34.65,-40.65,16.62
17169,15.19,0.18,-39.33,145.020,-761.719,1156.738,14.70,-36.00,-40.05,16.62
17178,13.89,-10.28,-32.39,294.434,-571.777,692.871,14.70,-36.00,-40.05,16.38
17190,14.94,-8.15,-23.07,381.348,-1098.145,554.199,15.45,-36.00,-39.00,16.48
17200,-14.11,11.86,-36.63,-59.082,-227.051,424.805,15.15,-36.00,-40.05,16.43
17210,2.85,-8.40,-32.84,83.008,-851.562,1214.844,14.10,-35.40,-41.40,16.38
17220,-8.01,4.37,-32.78,-565.430,-125.000,715.332,15.75,-36.60,-39.60,16.72
17230,-5.11,-3.63,-36.11,-14.160,-291.504,1624.023,13.80,-36.60,-41.10,16.62
17240,3.01,-2.50,-34.22,-10.742,-324.707,902.832,13.80,-36.60,-41.10,16.43
17252,11.65,4.31,-31.70,-188.965,-543.457,303.711,15.45,-37.65,-39.75,16.72
17262,8.23,4.81,-39.70,-131.348,-498.047,1687.500,14.55,-36.60,-39.60,16.62
17272,14.44,-2.74,-26.32,15.137,-665.039,1129.395,14.70,-36.00,-40.50,16.48
17282,4.31,4.56,-38.95,-295.898,-636.230,1120.117,14.70,-36.45,-40.05,16.38
17292,5.12,-1.47,-32.81,42.480,-932.129,535.156,14.70,-36.45,-40.05,16.72
17302,-10.36,4.18,-25.29,-74.707,-176.270,1136.719,13.95,-36.00,-39.00,16.58
17312,2.64,-2.31,-34.12,30.273,-297.852,940.918,13.50,-36.75,-38.55,16.72
17324,3.45,-3.63,-33.52,-80.566,-397.949,1149.414,13.50,-36.75,-38.55,16.77
17334,2.54,0.83,-21.67,-92.285,-369.629,845.703,13.20,-35.25,-42.00,16.62
17344,4.44,-1.81,-43.75,-170.410,-259.277,1576.660,12.75,-36.45,-40.50,16.38
17359,4.31,7.81,-28.55,-118.652,-265.625,541.992,13.20,-36.45,-41.55,16.62
17368,6.40,3.83,-30.50,-147.461,-284.668,786.133,13.95,-36.00,-39.75,16.82
17378,8.81,0.16,-33.50,-309.570,-265.625,1453.125,13.95,-36.00,-39.75,16.82
17388,3.55,-2.25,-28.66,-258.789,-574.707,1663.574,13.35,-34.95,-40.65,16.72
17400,0.55,3.37,-32.41,-319.336,-168.457,804.199,13.50,-36.75,-40.80,16.77
17410,-1.26,-1.48,-29.93,23.437,-551.758,1375.977,13.35,-37.05,-39.90,16.62
17420,-2.15,-0.76,-36.65,-59.570,-214.355,1019.043,11.85,-36.15,-41.10,16.72
17430,1.15,-3.45,-32.70,259.766,-116.699,1497.070,12.00,-36.00,-40.05,16.43
17440,-6.50,4.54,-35.22,-174.316,-313.965,396.973,11.70,-36.45,-39.75,16.38
17450,2.64,-5.08,-33.36,-41.504,-233.398,1401.855,11.70,-36.45,-39.75,16.58
17462,5.78,-5.67,-36.44,72.754,-564.941,1435.059,12.75,-35.25,-40.05,16.72
17472,5.24,-0.05,-30.71,-30.762,-203.125,763.184,12.75,-35.55,-40.05,16.62
17482,1.13,-1.13,-33.60,-72.754,-469.727,1076.172,12.75,-35.55,-40.05,16.62
17492,-4.11,-1.73,-34.08,-82.031,-358.887,531.250,11.25,-36.45,-39.00,16.58
17502,-8.95,-1.17,-34.31,-386.230,-458.984,1074.707,12.60,-36.60,-39.60,16.72
17512,-1.67,-3.76,-37.70,-232.910,-324.707,936.035,11.85,-37.05,-39.90,16.48
17522,3.28,-6.99,-37.68,-211.426,-89.355,949.707,12.45,-36.45,-40.05,16.43
17534,3.42,-2.53,-29.28,-374.023,-730.469,825.684,12.45,-36.45,-40.05,16.48
17544,4.85,-0.06,-27.72,3.418,-1027.832,638.184,12.30,-37.05,-40.35,16.48
17554,0.92,3.05,-37.69,-419.922,-423.828,632.812,12.00,-37.20,-39.30,16.58
17564,6.26,0.98,-32.20,-182.129,-508.301,960.937,12.30,-36.60,-39.15,16.82
17574,-0.72,6.85,-31.48,-188.477,-458.008,1446.777,12.00,-36.75,-39.75,16.77
17584,4.29,8.51,-33.34,-108.398,-645.996,1358.398,12.00,-36.75,-39.75,16.58
17594,8.58,4.17,-43.27,-262.695,-625.977,123.535,11.25,-36.45,-39.75,16.62
17605,-2.26,0.67,-39.82,-353.516,-329.102,1221.680,12.60,-36.15,-39.90,16.48
17615,-1.02,-4.74,-35.89,31.250,-393.066,1325.195,12.60,-36.15,-39.90,16.72
17625,6.47,-1.89,-29.94,-181.641,-825.684,812.500,12.00,-37.65,-40.05,16.58
17635,2.85,-3.54,-50.55,-289.062,-402.832,1415.039,11.10,-37.05,-39.15,16.91
17645,10.98,-0.76,-38.18,-249.512,-1017.578,980.957,10.65,-37.05,-40.35,16.62
17655,1.92,2.47,-49.50,-148.926,-564.941,1765.137,9.15,-36.60,-39.90,16.48
17667,-7.34,1.89,-38.50,-707.031,-161.621,837.402,9.15,-36.60,-39.90,16.77
