Time_ms,GyroX_degps,GyroY_degps,GyroZ_degps,AccelX_g,AccelY_g,AccelZ_g,MagX_uT,MagY_uT,MagZ_uT,Temp_C
1317,0.31,-0.39,0.81,16.602,28.809,1067.383,-22.05,-12.15,-32.25,16.24
1333,-0.02,1.63,0.73,95.215,30.273,1021.484,-23.55,-11.70,-33.00,16.24
1343,-1.91,-1.84,-1.15,47.363,41.504,986.816,-23.40,-12.30,-32.40,16.24
1353,0.02,-2.12,0.37,68.359,27.344,1020.996,-22.05,-11.70,-32.25,16.29
1363,-1.44,1.63,-2.32,42.480,52.734,1016.602,-20.85,-12.45,-32.55,16.10
1373,1.92,-0.48,0.35,46.875,29.297,984.375,-20.85,-12.45,-32.55,16.19
1383,-0.17,-1.08,-2.53,16.113,13.184,1006.348,-22.05,-11.25,-31.80,16.24
1393,1.04,-1.68,0.92,-5.371,35.156,1000.000,-21.60,-10.05,-33.75,16.05
1405,0.71,0.86,-1.44,-1.465,42.969,1042.480,-21.60,-10.05,-33.75,16.10
1415,0.30,1.47,-0.36,55.664,40.527,1034.180,-21.45,-11.85,-30.90,15.86
1425,-0.58,-0.16,-1.82,45.410,65.430,1010.742,-20.25,-10.65,-30.90,16.24
1435,-0.46,1.16,-2.96,91.309,5.371,1058.105,-19.20,-10.65,-29.70,16.19
1445,0.01,-0.21,0.58,110.352,29.785,948.242,-20.70,-10.65,-30.15,16.29
1455,1.83,-0.91,-1.66,47.852,58.105,1017.090,-20.70,-10.65,-30.15,16.10
1465,2.27,-1.44,-0.79,39.551,19.531,1007.812,-20.55,-10.50,-31.05,16.10
1477,-0.64,0.31,-0.97,-8.301,33.691,1000.488,-19.35,-11.25,-30.75,16.19
1487,1.47,0.15,-2.08,-15.625,34.180,1012.207,-19.35,-11.25,-30.75,16.24
1497,0.08,1.31,1.79,67.383,35.645,1010.254,-21.45,-12.30,-30.15,16.19
1506,-0.68,1.31,0.48,60.547,66.895,1048.340,-19.20,-12.75,-29.40,16.38
1516,1.22,1.57,-1.63,82.031,49.316,1110.352,-20.25,-11.10,-29.70,16.29
1526,1.03,-0.48,1.55,132.324,20.508,1012.207,-19.20,-13.05,-30.45,16.29
1535,1.15,-2.39,0.20,62.012,28.809,1054.199,-19.20,-13.05,-30.45,15.86
1547,-1.85,-1.39,-1.20,27.832,39.063,937.500,-19.35,-12.90,-28.80,15.95
1557,-1.23,1.40,-1.77,49.805,24.902,998.047,-18.75,-11.85,-30.15,16.10
1567,-0.51,1.53,-1.95,119.141,41.016,982.910,-18.75,-11.85,-30.15,16.24
1577,0.57,-3.81,-2.16,83.008,41.016,1041.992,-18.15,-11.25,-30.30,16.29
1587,-1.67,0.68,-2.36,37.598,-3.906,1020.508,-19.50,-11.55,-30.45,16.29
1597,-1.36,3.69,-1.77,73.242,117.676,923.828,-20.10,-10.50,-30.75,16.38
1607,0.13,-1.83,-0.40,33.203,73.242,1039.551,-20.25,-11.55,-30.45,16.10
1619,-0.67,-0.56,-2.15,116.699,39.063,1036.621,-20.25,-11.55,-30.45,16.24
1629,-0.81,0.26,-1.56,102.051,40.527,998.047,-22.95,-12.75,-32.70,15.95
1639,-0.50,0.35,-1.91,99.121,6.836,1009.766,-22.20,-11.85,-31.20,16.05
1649,1.30,-1.52,0.82,63.965,51.758,1006.836,-22.35,-12.15,-32.25,16.38
1659,-0.01,-1.35,-2.69,35.645,7.324,1005.859,-22.65,-11.10,-31.20,16.38
1669,-0.05,0.73,0.41,94.727,20.508,1053.711,-22.35,-10.50,-33.30,16.19
1678,-0.49,-1.59,-2.09,126.953,47.363,1054.688,-22.65,-10.35,-34.20,16.10
1690,-0.99,-1.66,-0.80,66.406,34.668,1000.000,-23.25,-10.95,-34.05,16.38
1700,0.63,1.56,-6.54,34.180,20.508,1033.203,-23.25,-10.95,-34.05,16.29
1710,-0.50,0.70,0.92,82.031,19.043,1030.762,-21.90,-12.75,-31.95,16.19
1719,0.82,-1.73,-1.05,153.320,19.043,1007.324,-23.25,-12.45,-32.55,16.24
1729,-0.67,-1.68,-2.31,126.953,-23.926,1002.441,-23.25,-11.70,-31.80,16.29
1739,0.85,0.38,-1.75,-11.230,53.223,1020.020,-22.20,-12.30,-31.20,16.48
1749,1.65,-0.16,-1.30,149.414,0.000,994.141,-21.00,-12.75,-31.20,15.86
1761,-0.47,0.97,-0.72,105.957,80.078,962.402,-21.45,-11.10,-28.95,16.24
1771,-0.66,0.53,-1.53,19.531,-6.836,1032.715,-19.65,-12.15,-29.55,16.10
1781,-2.17,2.28,3.25,82.520,25.391,1208.496,-19.65,-12.15,-29.55,16.29
1790,0.11,2.80,-3.77,185.059,28.320,983.887,-19.35,-12.90,-28.35,16.43
1800,-1.11,2.75,-0.57,87.402,29.785,984.375,-20.10,-12.90,-28.35,16.38
1810,-0.62,-1.08,-1.02,50.293,28.320,1068.359,-19.35,-11.70,-29.55,16.10
1820,0.79,-0.61,-1.63,198.730,-7.812,965.332,-19.20,-11.55,-28.20,16.05
1844,-1.70,-1.27,-2.44,39.551,34.180,1115.723,-21.00,-12.30,-31.65,16.29
1853,-2.11,1.66,-0.27,224.121,17.578,962.402,-21.00,-12.30,-31.65,15.95
1863,-1.18,0.59,-2.44,89.355,55.176,1011.719,-21.00,-12.30,-31.65,16.38
1873,-2.05,-0.91,-0.11,-43.945,47.363,1151.855,-22.95,-11.10,-32.70,16.38
1883,1.17,-0.42,-0.44,229.980,-13.672,860.352,-22.95,-11.10,-32.70,16.38
1893,0.54,1.46,-2.19,40.527,47.363,1023.437,-22.95,-11.10,-33.15,16.29
1906,2.22,-2.24,-3.24,178.711,6.836,1067.383,-24.30,-12.15,-33.75,16.48
1916,0.11,0.46,-0.33,314.453,-88.867,721.680,-24.75,-12.15,-31.50,16.29
1926,1.34,1.53,-1.59,-31.738,82.520,1097.656,-21.90,-11.55,-30.45,16.19
1936,0.89,-1.40,-2.26,316.895,-50.781,978.516,-21.90,-11.55,-30.45,16.38
1946,-2.33,-1.00,-2.95,-15.137,95.215,1083.984,-20.10,-11.70,-29.10,15.95
1956,0.09,-0.85,-2.92,28.320,111.816,1252.441,-19.20,-12.75,-28.65,16.29
1966,5.44,-2.47,-2.63,222.656,-144.531,1033.691,-19.20,-11.85,-28.20,16.29
1978,2.80,1.28,-3.83,67.871,2.441,1114.746,-17.40,-10.95,-28.35,16.19
1988,1.07,-0.92,1.02,299.805,-39.063,933.594,-17.40,-10.95,-28.35,16.58
1998,0.51,0.92,-5.69,-39.063,-129.395,1108.398,-21.45,-12.30,-29.70,16.43
2008,-0.62,-0.24,-0.74,343.262,151.855,992.187,-21.90,-11.85,-30.45,16.29
2018,0.31,-0.73,-5.37,47.852,42.969,861.328,-21.90,-11.85,-30.45,16.29
2028,-2.34,1.21,-4.40,42.969,-91.797,1285.645,-24.00,-11.70,-33.00,16.24
2038,0.08,1.44,-0.71,146.973,-34.668,872.559,-25.35,-13.05,-33.15,16.43
2050,0.04,3.30,-3.53,218.750,-24.414,1309.570,-25.65,-12.30,-31.65,16.19
2060,1.05,4.95,-4.96,84.961,93.262,754.883,-24.15,-12.30,-29.40,16.24
2069,-2.38,-2.15,-6.34,84.473,27.344,1222.656,-24.15,-12.30,-29.40,16.43
2079,-2.54,1.98,-3.44,109.863,61.523,784.668,-21.90,-11.55,-27.45,16.38
2089,-2.33,2.62,-2.01,99.121,-58.594,1290.527,-19.50,-11.55,-26.70,16.10
2099,-1.02,2.39,-2.20,170.410,124.023,765.625,-19.50,-11.55,-26.70,16.43
2109,0.05,0.47,-2.79,208.496,122.070,1354.492,-18.90,-10.05,-29.10,16.38
2121,-1.27,-0.05,-4.86,46.875,114.258,863.281,-21.90,-11.10,-29.40,16.38
2131,-0.87,0.82,-4.21,226.562,14.648,1075.195,-22.65,-11.10,-31.20,16.29
2141,1.37,2.65,-6.11,101.074,91.797,893.555,-23.25,-11.25,-31.80,16.38
2151,-1.14,-0.92,0.56,167.480,-43.945,1074.707,-23.25,-11.25,-31.80,16.48
2161,0.77,0.38,3.23,225.586,-67.871,949.707,-26.10,-11.55,-31.95,16.24
2171,-0.76,-2.51,-0.66,73.242,51.758,912.598,-24.00,-11.25,-30.30,16.10
2181,1.60,-1.50,-1.59,207.520,76.660,1223.633,-24.00,-11.25,-30.30,16.19
2193,1.79,0.32,-1.89,177.246,23.926,1000.488,-21.30,-12.90,-27.60,16.05
2203,0.37,-6.16,-0.44,86.914,-122.559,1147.949,-19.65,-13.65,-28.05,16.38
2213,2.56,-0.98,-7.48,182.129,-28.809,1215.820,-19.35,-10.95,-28.35,16.38
2223,2.80,-2.35,-3.53,99.121,62.500,889.648,-20.70,-11.10,-29.40,16.43
2233,0.44,-1.80,-4.08,255.371,-44.434,1131.348,-20.70,-11.10,-29.40,16.38
2243,1.53,-0.45,-6.53,251.465,19.043,735.352,-25.50,-12.15,-33.00,16.48
2253,3.10,-3.11,0.60,-13.672,103.027,949.707,-24.30,-11.70,-33.00,16.10
2265,1.47,-1.59,-2.51,181.641,-38.086,1244.629,-23.70,-11.85,-28.95,16.48
2275,2.37,-0.61,-3.15,128.906,-1.465,985.840,-20.10,-12.15,-28.35,16.19
2285,2.73,-1.90,-4.98,146.484,3.418,1074.707,-19.35,-12.15,-27.60,16.24
2295,1.55,-0.79,-2.31,115.234,29.785,1050.781,-19.35,-10.05,-28.80,16.38
2305,-0.45,1.31,-4.58,123.047,-56.641,1088.379,-19.35,-10.05,-28.80,16.43
2315,-2.03,-1.42,-6.67,178.711,36.133,1293.945,-23.70,-11.55,-32.40,16.38
2327,-2.63,1.85,-6.75,106.445,126.953,1127.930,-25.35,-9.90,-34.95,16.24
2337,-0.79,-0.37,-5.79,63.477,-41.016,1165.527,-26.10,-11.55,-31.95,16.19
2347,-0.08,-2.80,-4.81,141.113,10.254,1029.297,-23.55,-10.95,-29.55,16.29
2363,-1.89,0.69,-7.26,80.078,61.035,1104.004,-20.70,-12.30,-28.20,16.38
2372,-1.76,-0.14,-6.12,295.410,103.027,682.129,-19.50,-11.85,-28.65,16.43
2382,-2.05,0.05,-5.11,250.977,65.430,974.121,-18.75,-9.90,-28.95,16.62
2392,-1.21,-2.27,-8.23,242.676,-38.574,1038.086,-18.75,-9.90,-28.95,16.38
2404,-0.44,-3.20,-5.08,265.137,-167.480,775.391,-24.90,-12.30,-33.45,16.24
2414,-4.48,-3.05,-7.38,255.859,37.109,1066.895,-24.90,-12.30,-33.45,16.38
2424,-4.28,-2.62,-6.39,193.359,79.102,666.504,-21.30,-11.70,-29.10,16.58
2434,-1.28,-3.32,-7.87,162.598,49.805,1093.750,-21.30,-11.70,-29.10,16.24
2444,-1.63,-2.23,-2.72,-21.973,69.336,1186.523,-21.30,-11.70,-29.10,16.24
2454,-1.47,-1.86,-5.92,150.879,83.008,976.562,-22.80,-11.70,-31.80,16.38
2464,0.42,-2.14,-7.14,199.219,-33.691,1096.680,-22.80,-11.70,-31.80,16.48
2476,2.77,0.98,-8.28,133.301,115.723,1074.219,-25.80,-12.45,-34.05,16.43
2486,1.46,-1.00,-8.47,324.707,-216.309,1145.020,-24.75,-12.45,-31.05,16.43
2496,2.02,1.73,-8.10,104.004,-6.836,1028.320,-20.10,-12.90,-28.05,16.58
2506,-1.96,-0.38,-6.76,86.426,-80.078,957.031,-20.10,-10.95,-29.85,16.29
2516,0.51,1.45,-7.05,220.215,-20.020,1217.285,-20.10,-10.95,-29.85,16.10
2526,-1.88,0.57,-4.63,182.129,70.313,927.734,-24.60,-8.70,-34.65,16.38
2536,-2.84,-1.26,-7.76,210.937,-16.113,928.223,-24.15,-11.55,-33.90,16.48
2548,0.84,-2.11,-9.98,307.617,-27.344,1218.750,-24.15,-11.55,-33.90,16.48
2558,2.37,-0.65,-5.56,170.898,25.391,1002.930,-19.95,-12.30,-28.95,16.48
2568,2.41,-2.02,-9.24,92.285,-32.715,1073.242,-18.90,-10.95,-28.80,16.58
2578,-1.89,0.31,-8.99,167.969,108.398,1176.758,-20.70,-9.45,-30.15,16.38
2588,-2.32,1.29,-9.95,190.918,100.098,1037.598,-23.40,-9.45,-34.95,16.48
2598,0.18,0.31,-6.48,133.789,69.824,985.840,-23.40,-9.45,-34.95,16.10
2607,0.36,4.42,-10.33,189.453,78.125,833.984,-22.20,-12.30,-31.95,16.38
2619,-0.81,3.85,-5.52,190.430,-17.578,1050.781,-19.20,-11.55,-28.95,16.38
2629,-1.63,2.58,-8.36,144.043,-112.305,1086.914,-19.20,-11.55,-28.95,16.38
2639,0.44,1.31,-7.74,327.148,-223.145,957.520,-21.90,-9.45,-33.90,16.38
2649,-1.21,-3.63,-6.74,277.832,-137.695,906.738,-24.60,-10.65,-34.95,16.38
2659,0.50,0.05,-8.89,173.828,-14.648,1091.309,-22.95,-12.30,-34.65,16.38
2669,-0.44,3.50,-3.68,153.320,119.629,766.602,-19.35,-12.15,-29.85,16.24
2679,0.69,-1.40,-10.80,66.895,1.465,815.918,-19.35,-12.15,-29.85,16.38
2691,-1.44,0.53,-12.04,249.512,-221.191,1017.578,-19.65,-9.30,-32.25,16.19
2701,-2.49,-0.08,-9.56,125.000,-64.941,1159.668,-22.65,-10.65,-34.20,16.48
2711,-0.85,-0.73,-11.12,262.207,2.930,1126.465,-22.65,-10.65,-34.20,16.58
2721,0.00,-0.28,-8.78,284.180,-254.395,1229.004,-20.25,-12.30,-29.70,16.72
2731,0.05,1.72,-9.83,46.387,109.375,1204.102,-16.65,-10.95,-28.05,16.77
2741,-1.18,1.83,-8.29,259.766,134.277,767.090,-19.50,-9.45,-31.95,16.38
2753,-2.98,4.04,-4.92,154.297,64.453,807.617,-23.25,-10.05,-34.50,16.62
2763,0.11,-0.12,-10.72,242.187,-33.691,1367.676,-23.25,-10.05,-34.50,16.43
2773,1.65,0.26,-14.42,274.414,-38.086,1101.074,-18.90,-12.90,-28.35,16.38
2783,1.38,0.98,-10.62,211.426,-84.473,980.469,-16.80,-9.90,-27.90,16.38
2793,-2.44,0.87,-6.18,316.406,-37.109,1160.645,-19.20,-9.45,-31.95,16.48
2803,-2.21,-3.56,-7.73,-41.016,14.160,931.152,-24.60,-9.90,-33.90,16.38
2813,-2.79,-4.14,-8.66,261.230,178.223,1231.445,-21.30,-12.45,-30.75,16.48
2825,3.14,-2.35,-9.07,151.367,-198.730,1318.359,-17.25,-9.90,-30.15,16.38
2835,-2.63,-2.78,-10.63,523.437,49.805,942.871,-17.25,-9.90,-30.15,16.58
2845,0.04,-2.07,-12.44,-4.395,-40.039,770.996,-24.15,-13.05,-32.70,16.38
2855,2.89,-1.74,-9.73,126.953,-117.676,1300.293,-19.20,-12.75,-27.90,16.24
2865,4.69,-2.44,-9.19,321.289,-431.641,721.680,-16.65,-12.75,-27.90,16.77
2880,1.55,-0.58,-9.47,126.465,-0.488,1535.645,-19.20,-9.45,-32.70,16.58
2889,2.69,-5.37,-12.40,78.125,-169.434,708.984,-22.20,-10.35,-32.70,16.38
2901,-8.32,-2.67,-13.15,252.930,-11.230,1078.613,-21.30,-9.75,-29.10,16.77
2911,-2.16,-7.64,-12.63,160.645,-99.121,704.102,-17.55,-9.90,-28.65,16.58
2921,-4.28,-7.45,-12.21,261.719,95.703,795.898,-17.55,-9.90,-28.65,16.24
2931,1.23,-8.39,-13.34,202.637,153.809,1445.313,-23.70,-10.65,-32.70,16.62
2941,5.95,-3.66,-6.94,209.473,-20.996,1257.324,-20.10,-11.25,-30.30,16.58
2951,10.61,-3.60,-10.25,213.867,-224.121,1087.891,-16.65,-9.75,-26.10,16.58
2961,9.18,3.14,-9.07,94.238,-244.141,1141.113,-18.75,-8.25,-30.45,16.48
2973,9.06,-0.76,-8.11,126.953,-74.707,737.793,-18.75,-8.25,-30.45,16.29
2983,4.79,0.61,-9.98,196.289,-300.293,1066.895,-21.30,-11.70,-28.80,16.48
2993,-0.81,1.14,-10.32,187.012,-151.367,1200.684,-17.10,-8.85,-26.55,16.62
3003,-6.08,4.41,-11.59,192.871,-192.383,705.078,-17.10,-8.85,-26.55,16.24
3013,-6.66,4.80,-7.15,50.293,-40.527,567.871,-22.65,-8.70,-30.45,16.62
3023,-11.56,5.37,-11.59,210.449,-31.738,807.617,-20.10,-11.25,-27.60,16.38
3033,-0.73,5.60,-10.28,213.379,27.832,994.141,-16.65,-10.05,-26.10,16.58
3044,1.54,0.15,-14.07,465.332,-291.504,1104.004,-21.90,-8.25,-29.40,16.77
3054,1.22,4.58,-13.27,-49.316,-63.477,1017.578,-21.90,-8.25,-29.40,16.38
3064,-0.37,-1.16,-14.19,374.023,-495.117,687.500,-19.50,-10.65,-26.40,16.43
3074,-3.87,3.50,-14.59,94.727,-387.695,238.281,-16.20,-6.90,-26.10,16.24
3084,-9.11,-1.24,-18.00,182.129,-253.906,739.746,-16.20,-6.90,-26.10,16.58
3094,3.86,2.63,-10.18,214.844,-93.750,791.504,-24.00,-10.05,-29.55,16.48
3104,-5.06,-2.56,-20.44,232.422,-114.258,898.437,-19.20,-11.10,-26.70,16.62
3116,2.22,-9.09,-19.05,274.414,-523.926,1232.422,-23.40,-9.45,-31.20,16.77
3126,1.11,-3.60,-14.21,-36.133,10.742,518.555,-23.40,-9.45,-31.20,16.48
3136,3.59,-4.40,-16.66,515.137,-90.332,765.137,-18.75,-9.15,-27.15,16.43
3146,4.19,0.66,-20.14,151.367,44.434,751.953,-22.65,-7.95,-31.95,16.58
3155,-2.79,-1.51,-18.91,344.238,-197.266,1366.699,-22.65,-7.95,-31.95,16.43
3165,2.14,1.79,-11.24,-92.773,95.215,1298.828,-22.65,-7.95,-31.95,16.43
3175,0.60,-3.21,-16.13,178.711,-173.340,1110.840,-19.20,-7.95,-29.70,16.62
3187,0.94,2.34,-9.76,328.613,-62.988,830.566,-23.25,-10.50,-33.00,16.43
3197,-1.51,2.07,-18.02,213.379,-26.855,882.812,-19.65,-11.70,-27.60,16.43
3207,-0.37,0.72,-18.82,135.254,-243.652,919.922,-19.65,-11.70,-27.60,16.43
3217,1.12,-1.41,-18.67,15.625,21.973,1999.939,-22.05,-8.55,-31.80,16.38
3227,1.69,-0.31,-14.18,25.391,-73.242,1291.016,-20.85,-11.70,-29.10,16.48
3237,2.87,0.97,-17.64,275.391,-62.012,486.328,-20.85,-11.70,-29.10,16.43
3249,3.99,4.92,-15.60,62.988,48.340,1480.957,-22.65,-8.25,-30.45,16.58
3259,0.11,0.14,-12.79,47.363,-169.922,1342.285,-23.40,-11.10,-30.90,16.48
3269,0.50,1.37,-19.31,457.520,45.898,586.914,-18.60,-8.85,-27.60,16.58
3278,0.58,-1.90,-16.51,89.844,-137.207,1084.473,-19.95,-8.25,-30.90,16.48
3288,-2.88,-4.73,-19.02,158.691,-126.953,1976.563,-19.95,-8.25,-30.90,16.62
3298,6.00,-2.63,-19.47,398.926,-144.531,1255.371,-18.45,-10.35,-27.15,16.29
3308,2.57,-2.35,-18.83,-258.789,-59.570,1555.176,-20.10,-8.10,-31.05,16.48
3320,1.63,-1.38,-12.65,125.977,-190.430,1090.820,-23.40,-9.90,-32.40,16.38
3330,1.47,-6.06,-17.31,489.258,-483.398,1999.939,-18.90,-10.95,-28.80,16.58
3340,-2.63,-1.26,-17.40,54.199,-441.406,702.637,-18.15,-5.70,-29.10,16.38
3350,-2.35,-2.45,-21.37,94.727,-345.703,1882.324,-22.35,-8.85,-32.25,16.58
3360,1.74,-1.15,-19.48,440.430,-479.004,869.629,-18.60,-10.50,-26.85,16.38
3370,2.01,0.19,-20.63,-62.012,-111.816,1928.223,-18.60,-10.50,-26.85,16.24
3380,6.79,1.15,-17.13,486.328,-616.699,596.191,-22.20,-8.70,-31.95,16.58
3397,-0.71,-6.92,-21.43,352.539,-485.840,742.187,-18.60,-7.65,-28.35,16.43
3406,-4.28,-8.27,-22.44,668.945,-83.984,667.480,-24.15,-9.90,-31.95,16.38
3416,-4.15,-12.56,-20.57,265.137,-97.168,894.043,-18.45,-9.90,-27.90,16.38
3426,-2.66,-9.34,-20.17,-23.437,192.871,995.117,-19.65,-7.65,-31.50,16.43
3436,1.83,-10.60,-18.84,196.289,-265.137,1105.469,-24.00,-10.05,-31.80,16.38
3446,-5.03,-5.61,-18.09,-92.285,167.480,1183.105,-24.00,-10.05,-31.80,16.38
3456,-0.76,-5.59,-21.66,140.137,151.367,683.594,-20.85,-5.70,-31.80,16.72
3468,-0.05,-0.40,-28.36,34.668,-80.566,681.152,-20.55,-11.25,-31.05,16.43
3478,6.64,-0.14,-18.93,408.203,-483.887,835.937,-16.65,-7.65,-29.85,16.43
3488,-1.00,1.76,-20.76,-230.957,-104.980,1446.777,-23.25,-7.35,-32.25,16.62
3498,1.66,7.07,-28.01,175.781,374.512,861.816,-23.25,-7.35,-32.25,16.62
3508,11.37,0.80,-23.67,390.625,-691.895,1114.746,-16.80,-7.05,-28.95,16.48
3518,-1.98,5.31,-25.45,-81.543,-357.422,1482.910,-21.60,-6.45,-33.75,16.38
3528,-6.15,8.39,-22.29,-92.773,112.793,727.539,-21.60,-6.45,-33.75,16.38
3540,-5.45,3.63,-26.43,260.254,-311.035,1350.098,-18.00,-5.55,-30.45,16.43
3550,-6.56,6.18,-26.79,104.004,-187.500,941.895,-21.30,-7.65,-33.30,16.38
3560,-3.91,2.22,-26.72,311.035,-97.656,889.648,-17.25,-8.25,-28.95,16.58
3570,3.11,-0.89,-29.95,339.355,-423.828,1102.539,-19.65,-6.45,-32.55,16.62
3580,3.32,-4.44,-23.77,430.176,-238.281,1922.852,-19.65,-6.45,-32.55,16.72
3590,-3.99,-1.57,-27.56,-67.871,-235.840,1256.836,-16.80,-6.30,-29.40,16.29
3600,-0.08,-4.24,-26.43,118.164,75.195,1757.324,-20.10,-6.45,-33.30,16.24
3612,3.20,-3.37,-25.82,354.980,-91.309,831.055,-20.10,-6.45,-33.30,16.38
3622,-2.20,-2.72,-23.67,201.660,-404.785,873.535,-17.55,-4.35,-31.20,16.38
3632,-6.94,-6.29,-27.83,234.863,-338.867,1629.883,-20.25,-7.95,-32.40,16.38
3642,-7.85,1.33,-26.68,54.688,96.680,1019.531,-15.45,-6.90,-27.60,16.38
3652,3.38,-3.24,-29.61,49.805,-157.227,1328.125,-19.65,-4.95,-31.50,16.72
3662,5.07,-3.17,-28.69,169.434,-192.871,646.973,-19.65,-4.95,-31.50,16.72
3672,3.66,-3.71,-27.34,136.230,70.801,1167.480,-16.05,-3.90,-29.40,16.38
3683,3.32,-4.53,-21.17,688.477,-470.215,862.305,-20.70,-5.85,-31.65,16.62
3693,-19.32,3.38,-21.50,122.559,-155.762,-226.074,-20.70,-5.85,-31.65,16.29
3703,-12.75,-1.49,-25.08,156.738,-131.836,752.930,-18.90,-5.25,-31.50,16.38
3713,-20.56,-3.06,-25.51,380.371,4.883,49.316,-17.10,-8.85,-28.35,16.62
3723,-17.08,-0.56,-23.41,-194.336,74.219,1142.578,-16.20,-6.15,-28.05,16.58
3733,-9.41,-0.13,-17.26,216.309,115.723,957.031,-20.10,-7.35,-31.50,16.48
3745,13.20,1.75,-21.40,338.379,0.977,714.844,-20.10,-7.35,-31.50,16.43
3755,6.00,5.53,-29.32,-46.387,-398.437,837.402,-20.55,-5.70,-30.75,16.24
3765,4.96,-0.50,-29.82,70.313,-329.590,1242.676,-16.65,-8.10,-27.30,16.82
3775,-10.63,3.30,-27.34,231.934,-261.230,902.832,-15.90,-4.05,-28.35,16.19
3785,-9.79,-2.08,9.59,-37.598,-418.457,1113.281,-19.95,-7.50,-30.15,16.43
3795,-8.75,-2.67,-36.98,243.164,-280.273,1203.125,-14.55,-4.35,-26.70,16.58
3805,-9.08,1.17,-32.33,451.660,-392.578,905.273,-18.60,-4.50,-29.10,16.72
3817,-0.63,-3.24,-29.80,589.355,-27.832,1303.223,-15.45,-7.35,-25.80,16.38
3827,6.22,-1.99,-35.53,-81.055,-392.578,1497.559,-17.85,-7.65,-29.55,16.62
3837,6.24,-4.32,-40.11,411.621,-317.871,730.957,-16.05,-2.70,-27.45,16.38
3847,-4.19,-3.74,-34.20,-523.437,27.344,1647.949,-20.25,-5.85,-30.45,16.58
3857,0.00,-2.46,-31.76,188.965,-145.020,912.598,-16.05,-5.10,-27.45,16.38
3867,0.73,-2.56,-37.69,81.543,-262.695,1671.875,-19.35,-2.85,-32.55,16.38
3877,3.85,3.45,-34.27,109.375,-174.316,862.793,-16.05,-6.30,-28.20,16.48
3889,-4.58,4.91,-31.89,-86.914,-549.805,763.672,-17.40,-0.90,-29.85,16.58
3899,3.77,10.21,-30.82,516.113,-466.797,443.359,-17.40,-0.90,-29.85,16.58
3914,-7.98,3.77,-34.45,-265.625,-430.176,1999.939,-14.40,-2.10,-29.85,16.43
3923,-0.87,0.05,-32.82,96.680,-53.223,506.348,-17.55,-5.10,-31.95,16.38
3933,3.44,2.86,-33.95,172.852,-133.789,1672.852,-12.75,-4.05,-28.05,16.62
3943,3.47,10.92,-35.85,137.207,-431.152,928.223,-17.25,-3.90,-31.20,16.72
3953,2.05,6.82,-31.18,36.621,-333.984,798.340,-17.25,-3.90,-31.20,16.72
3963,1.27,3.80,-31.13,9.766,-283.203,1791.992,-16.05,-2.70,-31.65,16.43
3975,-4.44,-0.19,-30.48,510.254,-567.871,1039.063,-14.40,-6.15,-28.80,16.58
3985,-17.50,-1.34,-34.89,45.898,-644.531,646.973,-14.40,-6.15,-28.80,16.48
3995,-8.43,-1.29,-50.80,11.230,-307.129,679.687,-15.30,-4.65,-30.15,16.43
4005,-7.98,-3.80,-39.76,18.066,264.160,1243.652,-14.10,-3.45,-28.65,16.48
4015,3.50,-2.44,-36.22,274.414,-660.645,1434.570,-16.50,-5.10,-31.65,16.48
4025,3.41,0.60,-36.39,-404.785,-257.324,1097.656,-13.80,-3.90,-27.90,16.48
4037,8.00,-5.30,-43.94,448.730,-823.242,1400.879,-12.00,-3.75,-28.05,16.48
4047,5.02,-2.35,-34.20,158.203,-749.512,1279.297,-15.90,-2.85,-31.05,16.58
4057,-2.63,-4.05,-37.00,78.125,-311.523,1159.180,-15.90,-2.85,-31.05,16.62
4067,-4.23,0.67,-38.08,-284.180,-244.629,878.906,-16.05,-1.95,-30.90,16.38
4077,-4.25,-2.15,-41.53,462.402,-464.355,263.184,-14.55,-4.35,-28.65,16.58
4087,-1.21,-3.79,-37.79,87.402,-216.309,806.152,-14.70,-4.35,-28.65,16.10
4097,-0.03,-2.79,-37.30,74.219,-46.387,1412.598,-13.95,-5.70,-28.80,16.58
4109,6.78,-3.31,-39.07,13.184,-266.602,1230.957,-13.95,-5.70,-28.80,16.38
4119,9.18,-2.92,-33.57,-24.414,-613.770,1233.398,-14.85,-3.90,-28.95,16.77
4129,-2.31,2.65,-38.27,-185.547,-323.730,935.059,-13.80,-1.05,-30.45,16.82
4139,1.73,1.35,-38.66,125.977,-272.461,139.648,-13.80,-1.05,-30.45,16.24
4149,-5.18,2.75,-41.82,-358.398,-1003.418,1195.313,-12.75,-0.90,-32.25,16.62
4159,1.89,-0.02,-44.53,-404.297,-281.738,1084.473,-13.20,0.45,-31.80,16.48
4169,-7.29,8.31,-43.37,-411.133,-232.910,1251.953,-12.75,-0.90,-31.50,16.38
4181,-1.61,0.98,-46.76,-229.980,-60.547,1452.637,-11.40,-0.75,-31.65,16.58
4191,6.33,-3.02,-49.01,12.207,-347.656,1926.758,-11.40,-0.75,-31.65,16.29
4201,8.31,-0.66,-44.11,-140.137,-34.180,1020.996,-12.45,-1.65,-33.00,16.58
4211,13.87,-7.02,-36.60,18.555,-505.371,873.047,-10.65,-1.50,-31.65,16.62
4221,5.18,-10.02,-51.81,-14.648,72.266,1366.211,-10.65,-0.30,-31.95,16.48
4231,8.64,-2.37,-31.49,95.215,-294.922,62.012,-12.30,-1.50,-32.70,16.72
4241,-8.33,-0.84,-39.55,-134.766,-347.656,1023.926,-10.50,-0.15,-33.30,16.72
4253,-6.57,-1.60,-33.95,-317.383,-578.613,619.141,-11.40,0.30,-31.95,16.58
4263,-6.39,-3.63,-24.84,98.145,-745.117,825.684,-11.10,-0.30,-32.70,16.77
4273,-11.09,-0.89,-35.95,-22.461,-363.770,987.793,-11.10,-0.30,-32.70,16.29
4283,-2.11,-0.60,-38.80,-393.066,-292.480,1439.453,-10.50,-2.10,-31.50,16.38
4293,0.40,2.05,-36.97,-432.129,62.012,1396.484,-11.10,-1.50,-31.20,16.58
4303,6.56,3.03,-40.02,-67.871,-532.715,517.090,-10.65,0.00,-32.40,16.72
4315,1.57,-1.76,-38.12,-238.281,-218.750,1203.125,-10.65,-0.75,-31.65,16.58
4325,0.14,0.13,-38.04,-106.934,-520.996,1162.109,-11.70,-0.15,-32.25,16.48
4335,-8.74,0.92,-40.39,-5.371,-69.824,597.656,-10.65,-2.25,-32.70,16.48
4345,-5.66,-1.64,-41.92,-370.117,-125.488,1784.668,-9.30,-0.15,-31.80,16.58
4355,-0.77,-2.07,-39.92,-266.113,-245.117,981.445,-9.30,-0.15,-31.80,16.19
4365,-0.72,5.04,-43.26,-243.652,-386.719,734.375,-9.15,0.30,-32.70,16.43
4375,-4.16,3.60,-46.30,3.906,-237.793,523.437,-9.60,-0.75,-33.15,16.58
4387,6.95,4.02,-37.45,48.340,-137.695,1021.484,-10.35,0.00,-32.40,16.58
4397,7.82,1.91,-39.80,135.254,-546.387,960.937,-10.35,-0.30,-33.90,16.58
4407,-3.47,-0.92,-36.11,-339.355,-501.953,1071.289,-10.35,-0.30,-33.90,16.58
4417,4.07,-6.88,-31.40,-105.469,-542.969,709.961,-8.70,0.00,-33.45,16.82
4431,2.01,1.57,-38.62,-48.340,139.648,902.832,-7.35,0.15,-32.55,16.43
4441,-5.17,0.21,-33.41,-368.164,-359.863,905.273,-8.25,1.35,-32.55,16.48
4453,-7.27,-1.13,-34.77,-700.195,-130.371,718.750,-7.20,0.30,-31.95,16.62
4463,4.50,0.15,-35.98,199.219,-364.258,479.492,-8.40,0.75,-33.45,16.48
4473,3.79,1.81,-31.82,-171.387,-78.613,1869.141,-8.25,0.90,-32.25,16.62
4483,0.52,6.27,-21.56,-66.406,-177.246,848.145,-8.25,0.90,-32.25,16.38
4493,4.63,1.50,-47.44,56.152,-607.422,701.172,-7.35,0.90,-33.75,16.58
4502,4.21,-3.10,-13.64,-12.207,224.121,1795.898,-7.65,1.95,-33.90,16.58
4512,-3.46,6.70,-22.86,-360.840,-206.543,557.129,-7.65,1.95,-33.90,16.62
4524,-1.38,2.94,-38.70,-430.176,100.098,670.898,-7.20,0.30,-32.40,16.62
4534,2.06,-3.31,-14.59,83.496,-287.109,1009.277,-6.15,0.75,-32.40,16.58
4544,5.95,-2.63,-34.77,-205.566,-149.902,748.047,-7.65,1.50,-31.65,16.58
4554,5.00,-5.28,-39.78,298.340,-438.965,1032.715,-7.20,0.00,-32.40,16.58
4564,-10.87,-2.22,-56.73,-633.301,-695.312,887.695,-7.20,0.00,-32.40,16.82
4574,-0.50,-2.37,-17.95,22.461,-261.719,955.078,-6.90,0.75,-31.95,16.19
4584,-8.18,-0.64,-52.82,-365.234,-400.391,1563.477,-6.60,1.35,-32.25,16.72
4596,-7.04,-0.83,-28.89,75.195,-328.125,1654.785,-6.60,1.35,-32.25,16.19
4606,-5.34,-1.30,-39.79,-182.129,-423.340,1622.070,-7.05,2.10,-32.25,16.72
4616,-5.23,1.05,-41.56,-166.016,-573.730,998.535,-6.15,2.25,-31.65,16.58
4626,-5.98,2.76,-34.11,-56.152,-431.152,607.910,-7.65,1.05,-32.70,16.62
4636,2.88,1.20,-36.80,-87.891,-104.004,1211.426,-6.15,-0.30,-31.20,16.48
4646,-0.12,0.28,-35.72,25.391,-12.207,762.695,-6.15,-0.30,-31.20,16.38
4656,4.96,-0.11,-30.74,70.801,-213.867,1029.785,-6.15,0.75,-33.15,16.48
4668,4.41,-4.22,-40.65,8.789,-150.879,1330.566,-6.30,0.30,-33.15,16.62
4678,5.74,-5.15,-30.73,-223.145,-335.937,906.250,-6.15,0.30,-34.20,16.43
4688,1.72,-2.85,-30.49,-237.305,-210.449,917.969,-6.90,0.30,-34.20,16.48
4698,-3.53,-1.34,-33.38,14.160,-486.328,1083.984,-4.50,0.30,-34.20,16.58
4708,-2.08,-6.76,-39.13,-295.898,96.191,675.293,-5.25,1.95,-34.20,16.62
4718,4.50,-1.60,-37.54,34.668,-256.348,514.648,-5.25,1.95,-34.20,16.38
4728,-4.12,0.04,-35.82,-36.133,-389.648,1123.047,-5.10,1.35,-35.25,16.43
4740,0.60,3.53,-39.23,216.309,-392.578,762.695,-6.60,0.90,-34.05,16.48
4750,11.24,3.07,-13.38,-20.508,-469.238,639.160,-3.45,1.05,-32.70,16.62
4760,0.32,0.89,-54.87,-144.043,-56.641,887.207,-3.75,1.05,-33.90,16.19
4770,6.91,1.82,-23.71,-37.598,-495.117,864.258,-3.75,1.05,-33.90,16.62
4780,2.87,1.37,-31.00,-15.625,-196.289,1104.004,-3.75,1.50,-33.45,16.58
4790,9.02,0.43,-33.98,-59.082,-334.473,778.320,-2.10,1.35,-33.30,16.62
4800,2.97,-1.39,-34.36,300.781,-656.250,1177.734,-2.10,1.35,-33.30,16.58
4811,3.05,0.22,-37.87,-192.871,-335.449,1604.004,-4.80,1.35,-32.25,16.58
4821,-4.56,3.75,-39.23,-227.051,269.043,1247.070,-2.55,2.70,-33.15,16.38
4831,1.65,-0.49,-32.01,-62.012,-358.398,1319.336,-1.80,1.05,-34.95,16.58
4841,2.31,2.69,-27.41,20.508,-305.664,1080.566,-2.10,2.55,-33.00,16.72
4851,4.11,-0.96,-31.45,-132.324,105.469,1401.367,-2.10,2.55,-33.00,16.82
4861,7.34,-1.26,-39.10,177.246,-211.914,742.676,-2.10,1.35,-33.75,16.48
4871,9.98,-2.75,-26.64,131.836,-569.336,1395.508,-2.55,1.05,-34.95,16.58
4883,5.02,-2.57,-25.46,-52.246,-339.844,1043.945,-2.55,1.05,-34.95,16.62
4893,0.05,-3.15,-33.46,291.504,-104.980,1066.406,-1.80,0.00,-34.65,16.72
4903,-17.84,-1.96,-23.33,-85.938,-280.762,766.602,-2.85,1.35,-33.30,16.38
4913,-11.23,-2.77,-27.15,59.082,-177.246,391.113,-2.10,1.35,-34.50,16.77
4923,0.27,-17.44,-19.64,-183.594,98.633,1700.195,-2.40,0.15,-35.25,16.58
4933,-6.18,2.48,-21.72,105.957,275.879,591.797,-2.40,0.15,-35.25,16.58
4948,-1.82,-0.73,-30.66,-133.789,39.063,1309.570,-0.75,0.75,-34.20,16.43
4957,1.80,4.03,-28.92,-77.637,-106.445,491.699,-0.30,0.75,-34.95,16.43
4969,1.16,1.10,-23.28,310.059,-231.934,568.359,0.00,1.05,-33.15,16.43
4978,-4.07,-0.75,-28.46,29.785,-455.078,527.344,-0.15,2.85,-33.15,16.62
4988,-3.95,-2.06,-33.08,-77.637,-199.219,748.047,-0.15,2.85,-33.00,16.62
4998,9.14,-5.18,8.00,-323.242,-121.094,1223.633,0.45,1.65,-32.55,16.62
5008,-1.60,-3.28,-28.03,-25.391,-430.176,945.312,0.75,1.50,-32.70,16.62
5018,-9.14,-3.86,-37.56,-304.199,128.418,1490.234,0.75,1.50,-32.70,16.43
5028,0.26,-3.85,-25.30,505.371,-286.133,408.691,0.30,3.45,-31.95,16.58
5040,13.18,-5.87,-33.21,208.008,-401.855,338.379,0.45,3.30,-33.00,16.38
5050,9.80,-1.08,-22.69,-204.590,-167.969,1159.668,0.75,1.05,-33.90,16.43
5060,6.76,-4.25,-27.08,-95.215,-6.836,1210.449,0.90,1.35,-33.00,16.48
5070,8.50,-0.71,-27.72,-200.684,-420.898,1235.840,0.75,2.25,-33.15,16.72
5080,1.56,1.02,-23.18,-157.715,-439.941,1006.348,-0.30,2.70,-32.40,16.72
5090,1.40,0.74,-31.13,145.508,-228.516,1333.008,-0.30,2.70,-32.40,16.72
5100,-1.88,0.08,-30.32,-219.238,55.176,990.723,-0.15,2.10,-31.80,16.38
5112,0.49,7.61,-33.15,-221.191,435.059,1258.789,0.45,2.10,-32.55,16.77
5121,2.52,1.05,-26.18,15.625,-195.312,875.488,-0.75,2.25,-32.40,16.48
5131,7.09,0.28,-22.15,-33.203,-272.949,1393.066,-0.15,2.55,-32.55,16.77
5141,5.01,7.66,-34.31,-48.828,-250.000,608.398,0.00,2.70,-33.15,16.43
5151,5.63,4.98,-24.14,-229.980,-282.715,862.793,0.75,3.45,-31.65,16.43
5160,8.34,-12.03,24.72,-182.617,29.297,1125.977,0.15,3.30,-33.30,16.29
5170,-1.47,9.94,-4.73,237.793,-212.891,655.762,0.15,3.30,-33.30,16.58
5182,1.91,5.80,-24.94,43.457,-420.410,586.426,1.05,3.15,-34.20,16.72
5191,-5.50,3.50,-20.83,51.758,-630.859,722.168,2.10,1.65,-33.75,16.77
5201,-20.11,0.86,-23.84,-94.727,-64.941,920.410,0.15,4.05,-33.75,16.58
5211,-19.44,0.73,-26.02,180.664,-176.270,473.145,1.50,2.25,-32.70,16.48
5221,-17.18,-3.81,-27.24,105.469,-93.750,1041.016,1.50,2.25,-32.70,16.72
5231,-13.63,-2.92,-36.74,-335.937,212.891,1786.621,1.20,2.10,-33.30,16.43
5241,-7.15,1.53,-26.06,234.375,-392.578,843.750,2.55,1.95,-31.95,16.62
5250,-17.66,-3.88,-27.04,-145.996,-284.180,864.258,2.55,1.95,-31.95,16.48
5262,-6.22,-1.69,-28.05,63.477,-316.406,854.004,2.55,1.95,-31.95,16.72
5272,-17.96,-2.17,-69.91,-54.688,-108.398,1161.621,3.00,1.05,-32.70,16.48
5282,-5.99,-6.60,-7.22,-170.898,103.027,1520.508,2.10,0.45,-32.25,16.62
5292,-2.89,-0.19,-24.66,388.184,-536.621,632.324,2.25,1.95,-33.45,16.62
5302,-12.03,-2.68,-23.53,-304.199,29.785,1293.457,2.25,1.95,-33.45,16.58
5312,-5.22,2.93,-19.53,-401.367,385.254,1055.176,2.25,2.70,-33.90,16.58
5323,0.69,-3.56,-26.53,-200.684,-341.309,1458.008,3.90,0.45,-30.30,16.43
5333,-4.31,1.01,-19.89,242.676,-352.051,1041.016,3.90,0.45,-30.30,16.62
5343,-0.58,-11.02,-27.01,59.082,-305.664,1605.469,3.00,-0.30,-31.95,16.62
5353,9.47,-14.95,-19.86,-118.164,-204.102,1727.539,3.45,2.70,-31.95,16.91
5363,10.76,-14.95,-25.60,-193.359,-812.988,1279.297,1.80,0.30,-31.95,16.48
5373,9.43,-10.90,-18.36,-232.910,-640.137,378.418,3.75,1.50,-31.95,16.43
5383,4.88,-12.62,-22.34,-161.133,-619.629,628.418,3.75,1.50,-31.95,16.58
5395,0.17,-11.91,-18.05,-127.930,-251.953,841.797,3.75,1.50,-31.20,16.48
5405,12.17,-17.10,-25.54,265.625,-76.660,731.934,3.45,1.50,-32.70,16.48
5415,8.07,-13.07,-23.70,-294.922,-191.895,1660.156,3.45,1.50,-32.70,16.72
5425,-0.84,-11.85,-25.60,-293.457,131.836,302.734,2.25,1.05,-33.90,16.72
5435,6.74,-14.73,-19.47,294.434,-761.719,253.906,2.85,0.15,-31.80,16.58
5444,0.14,-25.95,-22.00,314.453,-389.648,1360.352,1.20,0.90,-33.00,16.62
5460,17.93,-26.21,-28.47,103.516,-193.848,703.125,3.60,1.35,-33.00,16.72
5470,5.56,-27.32,-10.92,51.758,-171.875,650.879,4.50,1.50,-31.20,16.62
5480,-5.84,-29.08,-32.31,-125.977,-105.957,1403.809,1.05,0.75,-33.45,16.48
5490,-13.38,-18.35,-29.15,-317.383,-224.121,1166.504,3.45,0.30,-32.40,16.62
5500,-9.49,-16.76,-25.41,-253.418,252.930,1267.090,1.20,0.90,-34.05,16.48
5510,-13.63,-6.33,-35.39,144.531,-342.773,769.043,1.80,-1.05,-30.90,16.38
5520,-8.51,-5.51,-27.72,-441.895,-256.836,483.398,0.15,1.65,-34.05,16.62
5532,1.42,-0.31,-29.00,344.727,-376.953,1091.309,2.25,-1.05,-31.95,16.48
5542,-14.91,-0.82,-32.23,-355.469,-347.168,613.770,2.25,-1.05,-31.95,16.62
5552,-25.37,-1.71,-34.99,-87.891,-191.895,418.457,3.45,-0.30,-33.45,16.72
5562,-25.97,-1.73,-33.61,-74.707,-107.422,723.145,2.85,0.90,-33.30,16.38
5572,-20.33,-1.18,-29.56,112.305,250.488,526.367,2.40,-1.65,-33.30,16.72
5582,1.13,-7.05,-28.35,-14.648,47.363,1592.285,1.20,1.65,-34.05,16.19
5591,17.36,4.17,-8.74,-738.770,145.508,1999.939,2.40,-0.45,-32.55,16.58
5603,-7.15,2.36,-149.24,-256.836,-430.664,1773.926,3.45,0.75,-33.90,16.77
5613,-7.95,19.12,-29.01,-387.695,-566.406,385.254,2.40,-0.45,-31.80,16.96
5623,-8.12,13.35,-34.79,111.816,-406.738,77.148,2.40,-0.45,-31.80,16.62
5633,-7.09,14.09,-28.14,278.320,-204.590,583.984,3.15,-1.35,-33.00,16.77
5643,-11.18,5.06,-25.18,81.543,-52.246,898.437,3.90,0.90,-33.30,16.77
5653,0.05,5.31,-24.74,78.613,-149.902,1361.816,2.55,0.00,-34.20,16.43
5662,-2.72,9.12,-23.02,166.992,-618.652,1065.918,4.95,1.50,-32.40,16.62
5674,-7.94,13.31,-51.49,83.008,-159.180,628.906,4.95,1.50,-32.40,16.58
5684,11.59,7.91,-15.89,509.277,-609.863,1485.352,5.55,-0.15,-32.25,16.29
5694,13.71,4.54,-25.44,381.348,-542.480,1309.570,2.85,1.35,-34.80,16.77
5703,3.99,8.98,-69.27,-94.238,-424.316,1422.363,2.85,1.35,-34.80,16.72
5713,-1.86,3.13,-24.39,491.211,-754.883,207.031,4.20,1.05,-34.20,16.43
5722,-5.20,6.89,-47.32,-256.348,-319.336,1223.145,5.85,-2.55,-32.25,16.48
5732,-7.45,-2.77,-17.16,-302.246,-50.781,1180.176,4.50,-0.30,-34.65,16.77
5744,-7.08,-0.73,-29.39,108.887,558.594,323.730,4.80,-1.65,-33.30,16.48
5754,5.44,3.30,-25.91,-112.305,-12.695,844.727,4.80,-1.65,-33.30,16.62
5764,4.89,0.60,-19.23,83.008,-665.039,1228.027,5.70,-1.50,-33.15,16.62
5773,1.95,-2.54,-33.60,131.836,-742.187,1492.188,4.80,0.90,-35.55,16.43
5783,-9.28,2.34,-34.36,-531.250,-158.203,856.445,4.80,0.90,-35.55,16.77
5793,-9.27,0.93,-51.92,-146.973,168.945,881.836,5.70,0.30,-33.90,16.77
5803,-1.08,4.63,-9.25,-76.660,-130.371,579.102,5.10,-0.15,-33.30,16.82
5815,-4.75,0.60,-31.81,-215.820,-272.461,855.469,6.15,2.25,-33.90,16.82
5825,0.86,5.61,-30.84,213.867,-430.176,681.641,7.05,-1.35,-33.00,16.62
5835,-6.18,4.85,-31.41,15.137,-640.137,470.703,7.05,-1.35,-33.00,16.62
5845,3.10,1.60,-32.83,43.945,-539.551,1462.891,6.90,-1.05,-34.65,16.72
5855,-2.31,4.71,-44.23,-205.078,-28.809,1321.289,7.65,0.75,-33.90,16.77
5865,6.76,-2.93,-30.33,-88.379,-301.758,977.051,7.65,0.75,-33.90,16.72
5875,4.97,1.54,-35.66,458.008,-751.465,1247.070,8.55,0.45,-34.05,16.82
5889,-1.47,-0.62,-38.70,-70.801,-520.996,1360.840,6.30,-1.65,-34.80,16.43
5898,7.87,-2.27,-35.83,218.262,-89.355,1427.246,7.35,1.35,-34.50,16.62
5908,8.45,0.54,-38.76,-86.426,-718.262,888.672,6.45,-0.30,-34.65,16.82
5918,-3.78,4.77,-34.17,-115.234,-484.863,554.687,6.45,-0.30,-34.65,16.58
5928,-5.18,-1.34,-33.85,272.461,-456.543,480.469,6.15,0.75,-35.40,16.96
5938,-4.10,-1.21,-36.88,221.680,-746.582,527.832,8.70,-1.05,-32.70,16.72
5948,-3.06,0.94,-28.37,17.090,-560.547,1336.426,8.70,-1.05,-32.70,16.48
5959,13.19,-0.82,-31.96,370.117,-1264.160,1452.148,9.75,0.45,-33.75,16.38
5981,1.74,0.00,-38.15,-184.082,-376.953,1145.508,6.90,-1.05,-34.65,16.77
5990,5.28,2.56,-35.15,-68.359,-251.465,1148.926,6.90,-1.05,-34.65,16.58
6000,4.65,2.34,-40.10,-82.031,-370.605,1416.016,6.90,-1.05,-34.65,16.72
6010,1.49,3.02,-37.01,184.570,-388.672,1343.750,10.35,0.00,-33.90,16.72
6020,2.82,0.72,-43.85,186.523,-579.102,911.621,10.35,0.00,-33.90,16.58
6029,-9.82,-3.76,-38.85,73.730,-472.168,1339.844,10.35,0.00,-33.90,16.82
6039,-10.63,2.12,-46.56,-382.324,59.082,1295.898,10.05,-0.90,-33.00,16.62
6051,-3.26,-0.25,-41.45,-47.363,-458.496,1659.668,11.85,0.30,-33.15,16.72
6061,2.47,-0.04,-38.10,-133.301,-274.414,1194.824,9.75,-1.65,-36.00,16.72
6071,12.63,1.24,-41.97,-33.691,-245.117,1126.465,9.75,-1.65,-36.00,16.62
6081,4.55,2.03,-40.79,-183.594,-115.723,1148.926,10.05,-1.65,-36.00,16.62
6091,9.36,5.60,-46.51,-344.727,-206.543,854.980,11.40,-0.75,-33.90,16.48
6101,10.01,2.42,-46.44,-63.965,-442.383,721.191,9.75,-0.90,-35.55,16.82
6111,0.96,-4.27,-48.97,122.559,-367.187,1284.180,11.40,-1.95,-33.15,16.72
6123,-2.85,2.09,-55.92,39.551,-444.336,962.402,9.00,-0.90,-34.50,16.77
6133,2.12,2.31,-36.78,67.383,-759.766,564.453,12.60,-1.50,-32.70,16.77
6143,3.59,-4.08,-42.80,179.199,-754.883,773.926,10.95,-2.10,-34.50,16.48
6153,3.26,0.40,-35.47,137.207,-774.414,596.680,10.95,-2.10,-34.50,16.77
6163,10.35,-1.03,-43.93,310.059,-1093.750,598.145,11.40,-2.70,-34.95,16.77
6173,4.63,-2.81,-40.24,-67.871,-1085.938,1573.242,13.05,-1.95,-33.45,16.38
6183,4.11,1.05,-34.54,118.652,-848.145,871.582,11.85,-2.70,-34.65,16.77
6195,-12.82,0.98,-55.22,305.176,-643.066,1312.012,13.50,-1.35,-34.05,16.38
6205,6.07,3.82,-26.79,285.156,-436.035,296.875,12.45,-2.55,-36.00,16.48
6215,-2.73,0.76,-46.11,256.836,-119.629,1030.273,13.20,-1.35,-33.75,16.82
6225,8.48,-2.58,-44.69,314.453,-688.477,1504.883,12.60,-5.10,-34.65,16.72
6235,4.35,-10.47,-45.99,273.437,-432.617,1384.766,12.60,-5.10,-34.65,16.62
6245,-0.72,-6.77,-39.03,-167.969,282.715,1327.148,13.50,-4.50,-34.50,16.48
6255,8.78,0.96,-43.66,-127.930,-56.641,882.812,13.35,-1.05,-34.95,16.48
6267,8.74,-6.15,-42.69,6.348,-944.824,1040.527,13.35,-4.35,-35.70,16.62
6277,4.25,3.84,-41.18,-164.551,-264.160,852.051,13.20,-0.15,-33.30,16.58
6287,-4.60,0.27,-41.73,227.051,-661.621,1072.754,13.20,-0.15,-33.30,16.77
6297,-10.27,-0.68,-42.50,-62.988,144.043,1153.320,13.50,-0.90,-35.25,16.72
6307,-4.85,-5.63,-43.57,187.988,-466.797,1359.863,14.10,-4.35,-33.90,16.72
6317,-7.05,-1.09,-44.05,-121.094,259.277,1709.961,14.10,-4.35,-33.90,16.58
6327,6.88,-8.98,-37.57,434.082,-847.168,1046.387,14.10,-4.65,-33.45,16.72
6339,-3.63,0.94,43.27,217.285,-321.777,853.027,13.35,-4.65,-35.40,16.58
6349,-1.70,2.92,-64.04,-479.980,-468.750,1028.809,14.40,-4.50,-34.50,16.48
6359,11.78,2.11,-46.82,210.937,-629.395,1135.742,13.05,-2.25,-35.70,16.48
6369,0.61,4.12,-41.05,-168.945,-562.988,1153.320,13.05,-2.25,-35.70,16.48
6379,4.05,0.87,-38.73,-330.566,-451.660,425.781,14.40,-4.05,-35.55,16.72
6389,0.88,1.93,-48.58,156.250,-305.664,787.598,15.75,-3.45,-33.90,16.77
6398,6.79,5.22,-42.96,134.277,-235.352,1004.395,15.75,-3.45,-33.90,16.72
6410,0.56,-0.28,-44.75,-338.867,-268.555,1186.523,16.50,-2.25,-33.90,16.48
6420,-0.69,5.17,-38.09,-244.141,-186.523,1017.090,14.85,-6.30,-34.95,16.72
6430,-9.44,-1.50,-44.35,-120.117,-312.988,1261.719,16.05,-3.15,-33.90,16.48
6440,-7.50,2.51,-45.55,86.426,-176.270,879.883,15.30,-5.55,-34.95,16.77
6450,14.65,2.08,-50.37,-163.574,19.531,1307.129,15.30,-5.55,-34.95,16.72
6460,17.00,-0.17,-34.45,-194.824,111.328,1671.875,15.45,-6.45,-33.75,16.72
6470,-6.11,1.14,-50.85,10.254,-164.062,836.426,16.05,-3.90,-34.95,16.62
6481,-10.97,6.66,-53.45,-133.789,-795.898,920.410,16.50,-3.15,-35.40,16.77
6497,-4.73,2.18,-46.77,-47.363,-372.559,262.207,15.30,-6.30,-33.45,16.62
6506,-5.69,1.75,-38.36,566.895,-103.027,1125.000,14.40,-4.50,-37.50,16.82
6516,-4.76,-0.76,-52.85,21.973,272.461,1722.656,16.05,-5.10,-35.40,16.77
6526,8.96,-1.48,-40.51,-139.160,-281.738,493.652,16.05,-5.10,-35.40,16.62
6538,-7.81,-11.79,-45.55,-515.625,-755.371,1999.939,17.10,-4.50,-35.55,16.58
6548,-4.37,2.87,-59.03,274.414,-644.043,721.191,16.65,-6.45,-36.00,16.91
6558,-3.28,4.91,-46.76,816.895,-381.348,992.187,16.65,-4.05,-36.75,16.58
6568,8.28,-12.15,-31.37,241.211,-485.352,1405.762,18.60,-7.35,-35.25,16.48
6578,0.31,1.69,-42.98,44.434,5.371,603.516,18.15,-5.25,-36.75,16.38
6588,-6.25,-1.27,-42.61,41.016,-243.164,816.406,19.20,-4.65,-33.45,16.72
6598,-6.49,1.08,-44.26,-142.090,-686.523,1124.512,17.25,-7.05,-35.70,16.82
6610,-6.38,-0.79,-25.18,-25.879,-87.402,998.535,17.25,-7.05,-35.70,16.62
6620,0.62,0.07,-32.91,73.730,-859.375,1746.582,16.80,-8.25,-34.95,16.62
6630,-2.15,9.59,-42.36,-318.359,-21.973,738.770,19.35,-6.45,-36.75,16.72
6640,-4.18,6.52,-38.31,-270.996,-329.102,1309.570,18.75,-8.70,-35.70,16.58
6650,6.52,5.12,-41.92,369.141,-807.129,645.996,18.00,-6.30,-36.15,16.48
6660,1.82,7.69,-39.38,-303.711,-236.328,1312.500,18.00,-6.30,-36.15,16.72
6670,-3.31,7.49,-39.85,-109.863,-118.164,1145.020,17.10,-6.90,-36.75,16.77
6682,-4.96,4.19,-39.39,316.895,-715.820,1603.027,18.75,-7.05,-34.65,16.38
6692,-4.99,5.56,-45.74,218.262,-728.516,713.867,18.75,-6.30,-35.70,16.62
6702,6.82,6.60,-40.85,165.527,-311.523,900.391,18.75,-8.25,-36.90,16.77
6712,-8.21,3.37,-42.47,15.137,22.461,742.676,19.95,-5.55,-37.65,16.62
6721,3.59,-1.74,-43.65,-9.766,-667.969,1894.043,19.95,-5.55,-37.65,16.58
6731,5.40,4.62,-40.64,215.332,-659.180,252.930,19.50,-9.45,-34.95,16.38
6740,-0.27,-0.59,-44.23,-12.207,-454.102,940.430,19.50,-9.45,-34.95,16.82
6752,3.79,2.72,-39.18,261.719,-218.750,642.578,19.35,-8.55,-37.05,16.91
6762,-0.57,-3.10,-49.02,276.367,-373.535,875.000,19.35,-8.55,-37.05,16.91
6772,-4.63,-4.73,-44.96,-68.848,-678.711,1582.520,20.10,-11.25,-37.05,16.48
6782,-3.28,-5.23,-40.95,149.414,-559.082,623.535,18.90,-7.65,-36.00,16.58
6792,-2.31,-7.09,-40.01,-59.082,-370.117,1122.070,20.10,-10.95,-35.25,16.38
6802,5.74,-2.16,-37.41,265.137,-161.621,617.187,19.50,-9.45,-37.35,16.29
6814,-6.73,-1.32,-42.53,138.672,-209.473,959.473,19.50,-9.45,-37.35,16.58
6824,5.58,-3.24,-42.93,19.531,-468.750,1080.566,19.20,-11.10,-37.35,16.48
6834,-1.86,-4.47,-38.30,98.633,-404.785,1270.996,20.55,-8.55,-36.30,16.77
6844,0.01,-1.03,-36.76,21.973,-419.434,856.445,20.55,-8.55,-36.30,16.91
6854,-5.04,5.10,-37.66,196.289,-93.750,590.332,18.75,-7.95,-36.15,16.58
6864,-3.87,-4.68,-41.90,-50.293,-417.969,1488.281,20.55,-11.25,-34.50,16.58
6874,-2.18,-4.41,-42.15,-91.309,-474.121,1265.137,19.50,-10.65,-37.65,16.58
6886,8.49,-5.82,-33.20,241.699,-330.078,1012.207,22.20,-9.90,-35.70,16.43
6896,2.39,-0.48,-42.69,62.500,-373.047,987.793,22.20,-9.90,-35.70,16.38
6906,2.17,-0.35,-37.92,-180.664,-357.910,1529.785,20.70,-8.25,-37.35,16.77
6916,6.97,-3.38,-35.11,52.246,-510.254,973.145,20.85,-12.15,-36.75,16.77
6926,16.15,-5.24,-39.00,176.758,-1008.301,935.059,20.70,-9.90,-38.10,16.62
6936,9.53,2.14,-46.82,143.555,-322.754,747.559,21.30,-10.05,-35.55,16.82
6945,8.23,-0.91,-35.39,130.371,-225.098,907.227,19.50,-11.85,-36.60,16.48
6957,-1.78,-2.76,-50.05,233.887,-557.617,815.918,20.25,-9.15,-36.90,16.72
6967,-5.44,3.13,-41.44,392.090,-441.895,941.406,22.05,-11.70,-34.80,16.48
6977,-6.09,9.89,-36.25,41.016,-176.270,352.051,22.05,-11.70,-34.80,16.82
6987,-12.73,3.06,-37.98,-38.574,-436.035,1002.930,21.90,-11.10,-35.40,16.62
6997,-5.39,4.60,-39.56,125.488,-446.777,510.742,20.85,-12.90,-36.75,16.72
7012,-3.18,3.91,-35.85,231.445,-186.523,540.039,21.00,-10.35,-38.10,16.62
7021,-4.41,6.05,-44.71,112.305,-715.820,1087.402,22.35,-12.90,-35.55,16.72
7033,0.31,-4.20,-43.34,343.262,-421.875,1166.016,22.05,-11.70,-36.00,16.24
7043,-0.63,5.56,-39.85,-279.785,-433.105,837.891,22.05,-14.85,-36.75,16.38
7053,-1.43,1.42,-39.95,-31.738,-840.332,1633.789,22.05,-14.85,-36.75,16.91
7063,0.02,2.02,-35.03,-18.066,-662.598,1474.121,24.00,-13.65,-36.75,16.82
7073,-2.23,10.22,-40.24,344.238,-500.977,679.687,22.35,-12.45,-37.80,16.72
7083,-0.02,9.16,-40.07,156.250,-534.180,627.441,22.65,-12.75,-37.35,16.82
7093,-3.19,7.41,-39.96,-266.113,-875.488,1288.086,21.90,-15.00,-36.90,16.38
7104,-5.00,8.02,-44.98,-53.711,-737.793,543.457,21.90,-15.00,-36.90,16.38
7114,-8.14,10.23,-37.15,-470.215,-369.629,1944.824,24.90,-14.25,-36.60,16.72
7124,4.12,5.08,-47.38,169.922,-198.730,1050.781,23.40,-13.50,-38.40,16.77
7134,14.78,9.72,-41.80,323.242,-975.098,964.355,23.40,-13.50,-38.40,16.72
7143,-11.86,16.16,-45.40,-388.184,-317.871,825.195,24.00,-16.05,-36.75,16.77
7153,9.29,1.78,-42.57,1010.742,-1095.703,110.352,22.35,-15.30,-38.55,16.48
7162,2.41,1.40,-42.93,71.289,-279.297,776.367,22.35,-15.30,-38.55,16.58
7174,-1.49,3.98,-51.73,-151.367,18.066,531.738,23.40,-15.90,-36.15,16.77
7184,3.66,4.60,-35.05,368.164,-692.871,1764.160,23.40,-15.90,-36.15,16.72
7193,10.73,-3.73,-51.40,236.816,-679.687,476.562,24.90,-12.30,-39.15,16.62
7203,2.60,-10.61,-42.02,443.359,-437.988,897.461,23.55,-14.40,-36.75,16.91
7213,16.17,-17.94,-47.05,544.434,-1148.926,625.000,23.55,-14.40,-36.75,16.29
7223,-22.66,-6.25,-35.50,-743.652,-563.477,1225.098,22.05,-15.60,-39.30,16.72
7235,-14.31,6.44,-41.31,-725.098,72.754,1168.945,23.40,-13.80,-38.10,16.43
7245,16.25,-2.35,-45.07,745.605,-523.437,-11.230,24.75,-18.45,-36.75,16.43
7255,0.43,4.54,-38.79,-514.648,-624.512,853.027,23.40,-16.20,-38.40,16.77
7265,-12.50,7.37,-44.47,-110.352,-816.406,1999.939,23.40,-16.20,-38.40,16.72
7275,-11.35,6.35,-42.19,792.969,-497.559,733.887,25.35,-17.40,-38.10,16.62
7285,-22.01,7.40,-42.51,-691.895,153.320,1110.352,23.70,-15.00,-38.85,16.77
7295,-3.89,5.11,-44.11,551.270,-552.734,544.434,23.55,-15.60,-37.50,16.62
7307,2.58,8.10,-38.51,9.766,-606.445,1041.504,24.15,-18.60,-37.35,16.43
7317,2.79,11.39,-40.25,394.043,-310.059,892.090,24.00,-15.30,-38.55,16.43
7327,-7.33,0.79,-38.49,-43.945,-862.793,1506.348,25.35,-18.30,-37.65,16.82
7337,-4.02,1.76,-39.72,162.598,-797.363,846.191,23.40,-18.60,-38.85,16.91
7347,-26.15,-4.66,-39.63,-250.000,-470.215,1999.939,23.40,-18.60,-38.85,16.58
7357,6.73,-7.43,-36.98,395.508,-504.883,472.168,25.35,-17.85,-39.15,16.72
7367,-23.81,-4.11,-39.82,-897.461,175.293,936.035,23.55,-20.10,-39.30,16.48
7379,-16.38,-5.03,-45.86,-368.164,540.527,1207.031,23.40,-17.40,-39.60,16.77
7389,23.03,-5.51,-43.82,666.504,-817.383,-515.137,24.60,-19.50,-38.40,16.48
7399,-10.42,3.03,-41.08,-549.805,184.570,443.848,24.60,-19.50,-38.40,16.72
7409,22.70,-2.28,-32.84,660.156,-567.383,460.449,23.70,-16.20,-38.85,16.62
7419,-2.40,7.65,-46.43,-193.359,-454.590,556.641,25.05,-19.20,-38.25,16.77
7429,0.37,0.56,-33.58,425.293,-918.457,770.996,25.05,-19.20,-38.25,16.72
7438,4.27,-4.82,-40.85,254.395,-603.516,679.687,23.40,-18.60,-39.15,16.43
7450,4.12,-1.74,-49.93,625.977,-927.246,67.383,24.60,-20.70,-38.40,16.77
7460,-15.34,2.73,-40.04,-1095.703,7.812,995.117,24.75,-19.20,-40.05,16.38
7470,10.78,3.92,-45.93,1261.719,-946.777,1026.367,24.90,-18.30,-38.10,16.72
7480,-11.38,9.55,-40.37,-372.070,205.078,706.543,24.90,-18.30,-38.10,16.91
7490,13.81,-11.16,-37.73,951.172,-964.844,949.707,23.40,-19.80,-39.60,16.82
7500,-15.53,13.48,-42.52,-462.891,-75.195,359.863,24.60,-18.30,-39.15,16.72
7512,-9.35,1.18,-43.54,611.816,-759.766,209.473,24.60,-18.30,-39.15,16.77
7527,-6.76,-4.85,-46.99,-61.523,-724.609,694.824,24.75,-18.45,-41.25,16.43
7536,-13.21,-11.31,-49.47,66.406,-740.234,951.660,25.05,-20.10,-39.30,16.48
7546,-12.34,3.01,-47.93,-536.133,-451.660,524.902,22.80,-22.05,-40.05,16.82
7556,-5.40,2.84,-34.95,791.504,-749.023,861.816,22.80,-22.05,-40.05,16.82
7566,-18.28,19.87,-43.80,-147.949,257.812,657.227,25.65,-21.00,-39.60,16.82
7576,8.00,3.92,-38.95,397.949,-559.570,644.531,24.60,-23.40,-39.15,16.77
7586,-9.85,16.63,-41.12,-546.387,298.340,225.586,24.60,-23.40,-39.15,16.77
7598,-5.40,13.58,-39.68,-570.312,-156.738,87.402,26.40,-22.20,-39.90,16.82
7608,13.47,-3.46,-44.24,573.242,-1067.871,223.633,24.30,-22.50,-39.75,16.82
7618,-15.69,6.51,-42.78,88.379,261.719,853.516,25.05,-21.30,-40.80,16.48
7627,-3.37,2.32,-51.71,456.055,-769.531,1999.939,25.50,-21.60,-40.50,16.58
7637,2.08,-7.23,-45.60,651.367,-981.934,740.234,25.50,-21.60,-40.50,16.62
7647,-18.42,-0.98,-47.76,-572.754,-1043.945,1466.797,25.35,-23.10,-40.65,16.82
7657,-8.39,-0.89,-45.68,42.969,-436.523,931.641,24.15,-22.65,-42.60,16.58
7668,-2.85,-3.64,-54.15,-194.824,-224.121,59.082,24.75,-22.50,-40.05,16.48
7678,8.43,-6.40,-47.79,-70.313,-515.137,1332.031,25.05,-23.70,-40.80,16.62
7688,16.04,-9.88,-59.03,432.617,-1291.016,535.645,24.30,-23.25,-40.50,16.91
7698,-17.85,1.16,-50.88,-586.426,-283.203,699.707,24.75,-22.80,-41.25,16.72
7708,-0.01,2.21,-43.83,120.605,-328.613,548.828,25.35,-23.85,-40.65,16.77
7718,-15.64,5.31,-41.95,-69.336,-812.012,500.000,25.35,-23.85,-40.65,16.91
7728,-7.70,10.82,-41.41,-388.672,-294.434,528.320,24.60,-22.65,-41.85,16.48
7740,-6.18,5.89,-48.43,-573.730,-412.109,606.445,24.15,-25.05,-40.35,16.72
7750,-3.67,5.68,-40.92,496.582,-1256.348,1895.996,24.30,-24.45,-40.80,16.43
7760,-6.34,10.66,-38.42,-329.102,-423.828,1102.051,23.55,-24.90,-41.25,16.48
7770,-3.33,-9.56,-45.22,120.605,-818.359,1999.939,23.55,-24.90,-41.25,16.72
7780,-1.55,8.47,-40.13,-274.414,-415.039,833.984,25.35,-23.85,-41.10,16.91
7790,5.21,-4.34,-40.38,-13.672,-898.437,1480.469,24.75,-24.00,-42.00,16.72
7802,1.60,-6.85,-42.40,-283.203,-823.242,1389.160,24.75,-24.00,-42.00,16.72
7812,1.22,-5.72,-41.13,-18.066,-643.066,503.418,24.15,-25.05,-42.90,16.91
7822,-1.08,-7.30,-42.86,-432.617,-917.969,1383.789,24.15,-25.05,-41.85,16.72
7832,4.75,-4.10,-43.04,-38.086,-882.812,566.895,25.05,-25.20,-42.45,16.48
7842,-5.08,0.79,-46.28,182.617,-370.605,453.613,23.70,-25.50,-42.90,16.77
7852,-6.10,-0.90,-46.69,-177.734,-302.734,777.832,23.70,-25.50,-42.90,16.77
7862,-0.31,1.34,-41.15,-73.730,-555.664,352.051,24.15,-25.50,-42.60,16.77
7874,1.97,-6.04,-41.56,-78.125,-657.227,885.254,24.30,-26.85,-41.55,16.62
7884,-0.47,1.92,-41.73,-217.285,-590.332,736.816,23.70,-24.60,-42.90,16.62
7894,3.54,-7.26,-39.87,144.043,-203.125,1650.391,22.95,-25.80,-42.60,16.77
7904,5.51,2.10,-42.10,-437.500,-138.672,901.855,24.60,-25.80,-40.65,16.62
7914,5.27,2.31,-39.94,20.996,-918.457,1073.730,23.55,-26.40,-42.75,16.62
7924,-9.51,6.09,-38.02,-170.898,-432.617,1244.141,23.55,-26.40,-42.75,16.96
7934,-15.32,5.18,-41.29,-319.336,-95.703,776.855,22.05,-26.85,-42.45,16.72
7946,-2.08,2.94,-46.32,-290.527,-448.730,1102.051,22.80,-26.40,-42.45,16.77
7956,-0.52,0.82,-44.83,26.367,-973.145,1234.863,22.80,-26.40,-42.45,16.77
7966,-3.63,6.22,-47.14,-98.633,-255.859,789.062,23.25,-27.15,-43.20,16.82
7976,6.79,-2.69,-34.28,-27.344,-717.773,1164.551,24.30,-27.15,-41.55,16.91
7986,-5.07,-1.12,-43.11,-357.910,-812.988,1136.230,23.55,-27.60,-42.75,16.77
7996,-4.51,3.21,-39.92,-336.426,-389.160,754.395,22.95,-28.65,-42.15,16.43
8006,3.44,2.47,-42.73,40.039,-885.254,1035.156,22.95,-28.65,-42.15,16.58
8018,-3.98,4.18,-33.38,14.160,-719.727,855.469,23.70,-27.00,-42.90,16.48
8028,-0.07,0.25,-41.32,-201.660,-526.367,1331.055,23.25,-28.35,-42.75,16.72
8043,3.81,-2.24,-40.27,-266.113,-322.266,1179.199,23.25,-27.60,-42.00,16.91
8052,10.53,-6.82,-41.14,-142.090,-165.039,1604.004,22.20,-28.20,-43.65,16.72
8062,8.33,-2.93,-37.50,-166.504,-528.809,1087.891,23.25,-28.35,-42.75,16.58
8072,8.15,-7.88,-35.07,-32.227,-479.492,1451.172,21.60,-29.25,-42.00,16.77
8084,-8.03,-6.24,-37.27,-198.242,-640.137,786.133,22.20,-29.40,-44.40,16.43
8094,-2.95,-0.72,-41.56,-59.082,-129.883,349.121,22.65,-28.65,-41.85,16.58
8104,0.47,6.27,-39.96,3.418,-167.969,638.672,21.00,-29.85,-42.60,16.82
8114,4.05,-3.96,-37.48,-110.840,-634.277,1057.129,21.60,-29.25,-42.60,16.91
8124,3.25,3.41,-34.31,-367.187,-629.883,951.660,22.05,-29.55,-42.45,16.82
8134,2.08,-8.44,-36.82,-191.895,-760.742,1632.324,22.05,-29.55,-42.45,16.77
8144,1.53,1.37,-36.99,188.965,-649.902,677.246,21.60,-28.80,-43.20,16.58
8155,0.49,-6.15,-36.84,-158.203,-702.148,927.246,22.65,-29.85,-42.15,16.48
8165,-9.43,2.29,-33.35,-329.590,-130.859,1187.500,22.65,-29.85,-42.15,16.82
8175,0.30,-1.44,-34.18,-186.523,-294.434,1455.078,20.25,-29.85,-43.35,16.91
8185,6.06,3.36,-28.66,-45.898,-648.926,424.316,22.05,-30.00,-43.20,16.62
8195,7.18,0.94,-30.74,38.086,-354.004,1765.137,21.45,-29.85,-42.15,16.91
8205,5.95,1.64,-37.50,-198.242,-601.562,1011.230,21.60,-30.75,-42.75,16.58
8216,10.15,-0.73,-36.56,-451.660,-252.930,1387.695,21.60,-30.75,-42.75,16.77
8226,9.99,-2.13,-30.82,-192.871,-792.969,1004.395,21.60,-32.40,-41.55,16.48
8236,8.37,-0.86,-35.70,-183.594,-351.074,1613.281,21.00,-31.05,-41.85,16.72
8246,5.53,-4.63,-42.08,-245.117,-1001.465,661.621,21.00,-31.05,-41.85,16.91
8256,-6.31,0.41,-35.87,-113.770,-545.898,1011.230,20.25,-31.80,-43.35,16.77
8266,-10.10,2.19,-29.49,-205.078,-447.754,974.121,20.55,-31.95,-42.00,16.72
8276,-8.40,-0.34,-35.91,-65.430,-236.816,1037.109,20.25,-31.80,-44.10,16.77
8288,1.03,2.27,-27.98,-107.910,-120.117,916.504,20.25,-31.05,-43.65,16.72
8298,5.12,1.94,-28.08,-206.055,19.531,1384.766,20.25,-31.05,-43.65,16.77
8308,12.76,-0.42,-38.06,92.773,-558.105,1037.598,20.10,-31.65,-43.50,16.58
8318,0.74,-3.94,-36.27,-297.852,-353.516,554.199,19.95,-32.25,-42.15,16.58
8328,5.08,-0.98,-28.86,-101.074,-468.262,904.297,19.95,-32.25,-42.15,16.72
8338,0.29,-2.48,-39.33,-72.266,-818.359,968.262,19.65,-31.65,-42.45,16.82
8348,-9.05,-6.39,-31.69,-277.344,-362.305,1360.352,21.30,-32.85,-42.45,16.72
8360,0.79,1.90,-33.46,-95.215,-343.262,1655.762,20.85,-31.20,-42.00,16.77
8370,2.78,1.95,-31.66,-253.418,-437.012,794.922,19.50,-31.35,-42.90,16.77
8380,-0.34,2.72,-32.21,-24.414,-282.715,756.836,19.50,-31.35,-42.90,16.77
8390,6.17,-2.38,-37.95,-46.875,-382.812,1085.938,18.60,-32.85,-42.75,16.38
8400,-1.53,1.86,-33.60,-125.000,-454.102,1149.414,19.50,-31.05,-43.35,16.82
8410,-1.91,-1.76,-27.48,-74.707,-259.277,1387.207,19.95,-32.25,-42.60,16.77
8420,5.42,-0.49,-28.49,-220.703,-533.691,716.309,18.45,-33.45,-43.35,16.77
8432,6.47,1.79,-36.60,-231.445,-464.355,692.871,18.60,-31.95,-41.55,16.82
8442,-2.53,1.83,-33.30,219.727,-450.684,696.289,20.70,-34.65,-42.60,16.48
8452,-2.64,-1.64,-35.76,-171.387,-483.887,1226.074,17.85,-32.40,-42.75,16.77
8462,-0.50,-7.40,-37.26,-111.328,-623.535,902.832,17.85,-32.40,-42.75,16.77
8472,-8.19,-0.95,-33.05,-122.070,-83.008,936.035,18.75,-33.75,-42.60,16.62
8482,6.40,-9.21,-30.66,-492.676,-195.801,1219.238,18.60,-33.60,-42.45,16.77
8494,1.50,-3.50,-31.98,-58.594,-262.695,1492.188,18.75,-33.75,-41.85,16.48
8504,2.84,-1.18,-30.50,-133.789,-451.172,682.617,18.75,-33.00,-41.85,16.91
8514,-3.85,-2.84,-27.85,-121.094,-465.820,1184.082,18.75,-33.00,-41.85,16.82
8524,1.18,-2.95,-39.05,-197.754,-369.141,763.672,18.90,-33.60,-42.00,16.58
8534,2.42,-1.36,-27.82,-127.930,-602.539,1400.391,18.75,-32.55,-41.40,16.77
8544,5.32,0.98,-28.13,-3.906,-471.680,532.227,18.75,-32.55,-41.40,16.58
8561,-0.33,0.43,-33.69,-70.313,-328.613,894.531,18.75,-32.55,-42.15,16.38
8570,5.45,5.88,-31.05,-24.414,-391.602,930.664,17.40,-33.60,-41.25,16.77
8580,2.00,-3.08,-37.52,-119.629,-257.812,1624.512,17.85,-34.05,-41.55,16.72
8590,0.03,-1.75,-35.69,116.211,-602.539,509.766,17.85,-34.05,-41.55,16.91
8600,-7.09,-1.95,-32.18,-167.480,-235.840,637.695,17.85,-33.15,-41.25,16.62
8610,-4.90,-2.26,-32.64,-191.895,-450.195,720.215,17.10,-34.80,-42.00,16.72
8620,2.25,1.63,-35.77,-67.871,-594.727,740.723,17.10,-34.80,-42.00,16.48
8632,-17.07,5.79,-50.66,11.230,-450.684,502.930,16.80,-34.65,-41.85,16.62
8642,19.11,3.17,-2.13,-133.789,-433.594,1300.781,17.25,-34.20,-42.15,16.62
8652,7.62,-1.55,2.98,-0.977,-469.238,956.055,18.45,-34.20,-42.15,16.82
8662,1.47,3.40,-34.37,-369.629,-708.496,1024.902,16.80,-34.65,-41.10,16.58
8672,4.13,-3.66,-37.27,-212.891,-659.668,1182.617,16.80,-34.65,-41.10,16.96
8682,-0.31,-0.39,-29.85,94.727,-474.609,934.570,17.25,-33.45,-41.40,16.62
8692,4.13,0.63,-31.81,-77.148,-387.207,970.215,16.80,-35.40,-41.85,16.72
8704,0.79,0.99,-31.18,-83.496,-471.191,573.242,16.80,-35.40,-41.85,17.10
8714,-1.18,-2.98,-30.22,-114.258,-573.242,1472.168,16.80,-35.40,-41.10,16.72
8724,-2.89,-2.94,-41.33,18.555,-560.059,1186.035,17.25,-33.75,-41.10,16.77
8734,-1.95,-4.38,-33.10,-282.715,-262.695,935.547,16.65,-34.80,-40.50,16.62
8744,-2.79,-2.31,-29.38,30.273,-360.352,738.770,16.80,-34.65,-40.65,16.82
8754,-0.62,3.48,-30.47,-30.762,-345.215,632.812,16.80,-34.65,-40.65,16.82
8764,2.14,-3.66,-30.03,-443.848,-190.430,1532.227,16.20,-34.80,-41.55,16.62
8775,2.13,5.26,-30.36,-255.859,-510.742,787.598,17.10,-34.35,-40.80,16.72
8785,-9.27,1.02,-29.82,-293.945,-704.590,1502.930,16.50,-34.65,-40.35,16.72
8795,-8.50,0.24,-30.73,-97.656,-602.051,1062.012,16.05,-34.95,-40.65,16.38
8805,-3.04,5.15,-31.72,-117.676,-107.422,1063.477,16.05,-34.95,-40.65,16.91
8815,6.55,-4.16,-26.24,77.637,168.945,655.273,14.85,-35.85,-40.35,16.96
8825,5.05,-0.14,-27.50,-142.090,12.207,562.012,14.85,-35.85,-40.35,16.62
8835,5.69,-4.39,-34.50,84.961,-648.926,1317.383,15.45,-35.85,-40.35,16.58
8847,-3.63,2.16,-32.63,-384.277,-447.754,561.035,15.30,-35.85,-41.85,16.82
8857,-0.31,-0.84,-28.12,-12.207,-438.965,1014.648,15.30,-35.85,-41.40,16.72
8867,-0.37,0.27,-36.04,-31.250,-175.781,1166.016,15.75,-34.65,-39.90,16.91
8877,-0.82,4.97,-34.68,-100.586,-303.223,577.148,15.15,-35.25,-40.80,16.38
8887,7.47,3.42,-28.17,50.781,-487.793,1457.520,15.15,-36.00,-40.50,16.82
8897,2.14,-2.44,-33.43,-168.945,-783.203,1301.270,14.70,-35.55,-40.80,16.96
8909,-1.67,-1.47,-35.46,-149.414,-602.539,1424.805,14.70,-35.55,-40.80,16.82
8919,-0.47,9.44,-31.49,-84.961,-502.441,864.258,13.80,-34.95,-40.65,16.82
8929,4.58,2.28,-23.74,-160.645,-363.770,1032.715,14.10,-36.15,-40.65,16.82
8939,2.92,4.40,-34.08,-32.715,-862.793,1042.969,14.40,-36.00,-40.05,16.62
8949,-4.98,1.05,-37.31,-18.066,-423.340,1543.945,14.10,-36.15,-40.35,16.58
8959,-9.01,4.89,-32.95,-152.344,-201.172,754.395,14.10,-36.15,-40.35,16.77
8969,-5.24,2.67,-36.88,-166.016,-276.367,720.215,13.95,-34.80,-40.05,16.96
8981,-4.83,8.57,-24.19,-150.879,-208.984,505.859,15.15,-35.25,-40.05,17.10
8991,1.31,-4.86,-32.98,-285.645,-583.008,1041.992,15.15,-35.25,-40.05,16.96
9001,13.39,-3.19,-30.70,-30.762,-813.965,1299.316,12.45,-36.00,-40.05,16.96
9011,-0.38,1.09,-34.25,-267.578,-518.066,1090.332,13.95,-36.45,-40.50,16.58
9021,0.31,1.73,-32.91,-41.992,-365.234,598.145,13.80,-37.05,-39.15,16.82
9031,0.53,4.47,-36.65,-102.051,-487.305,1164.063,14.70,-36.45,-40.05,16.62
9041,-1.05,-4.05,-38.31,-54.199,-607.422,1457.520,14.70,-36.45,-40.05,16.77
9053,2.74,1.02,-29.57,-203.125,-583.008,1027.344,14.40,-35.25,-40.80,16.58
9063,-3.36,-0.29,-45.13,-105.957,-399.902,1318.359,11.85,-37.05,-41.10,16.77
9077,4.31,1.56,-37.07,128.418,-531.250,974.121,12.45,-36.75,-40.05,16.62
9087,1.53,-0.84,-44.05,-255.859,-383.301,1236.816,13.95,-35.55,-39.30,16.82
9097,7.85,-0.93,-39.21,-159.668,-778.320,1003.906,12.30,-36.60,-39.15,16.77
9107,1.92,3.10,-42.42,-275.879,-648.926,1288.086,12.30,-37.80,-39.90,16.29
9117,2.17,-3.11,-39.87,-214.844,-428.223,963.379,12.30,-37.80,-39.90,16.58
9127,-3.24,3.46,-40.34,65.430,-504.395,271.484,11.85,-37.05,-39.15,16.58
9139,8.48,1.06,-41.71,8.789,-400.391,1229.980,12.00,-35.25,-39.75,17.01
9149,0.86,2.44,-39.25,-212.402,-552.734,830.078,12.00,-35.25,-39.75,16.91
9159,6.05,-1.57,-46.92,101.074,-640.625,1119.629,11.10,-36.15,-39.90,16.91
9169,0.49,3.40,-44.98,-276.367,-734.863,1051.270,11.70,-37.65,-39.30,16.77
9179,-2.40,-6.34,-22.19,-150.879,-456.055,1088.867,12.30,-38.25,-38.85,16.82
9189,11.75,-4.13,-40.25,-34.180,-433.594,1200.195,11.85,-36.60,-39.60,16.38
9201,0.48,2.91,-41.86,-192.871,-790.039,884.277,11.85,-36.60,-39.60,16.48
9211,6.74,-5.24,-42.79,-86.914,-1181.641,931.641,10.95,-37.20,-40.05,16.38
9221,6.86,-3.01,-37.79,-173.828,-726.562,417.969,11.40,-37.05,-39.15,16.77
9231,8.48,-2.04,-32.65,19.531,-516.113,982.422,11.40,-37.05,-39.15,16.62
9241,6.93,-0.52,-44.20,-110.352,-255.859,1192.871,10.50,-37.20,-40.05,16.96
9251,1.14,-1.30,-50.78,-139.648,-467.773,535.645,10.95,-37.65,-39.00,16.72
9261,0.87,2.68,-39.08,-39.063,-249.023,1091.797,11.40,-37.80,-39.90,16.58
9272,3.17,1.08,-39.00,-183.105,-649.414,1178.223,10.95,-36.75,-37.80,16.48
9282,2.85,1.89,-41.12,-220.215,-668.457,1125.000,10.95,-36.75,-37.80,16.62
9292,3.26,1.31,-38.56,-232.422,-542.969,1439.453,11.10,-37.35,-39.15,16.72
9302,9.35,2.82,-46.09,40.527,-447.754,895.020,10.35,-37.35,-39.15,16.96
9311,6.68,-2.82,-42.70,-29.785,-304.199,1224.121,10.95,-38.70,-39.00,16.48
9321,9.93,0.13,-41.17,38.574,-378.418,1046.387,9.30,-38.40,-38.25,16.58
9330,1.05,-1.73,-43.46,-436.035,-470.703,1255.371,9.60,-38.55,-38.85,17.01
9341,12.44,6.32,-43.92,-218.262,-424.805,1048.340,11.10,-37.35,-38.85,16.82
9351,11.56,2.62,-41.84,16.113,-802.734,1359.375,11.25,-38.40,-38.25,16.82
9361,1.93,5.53,-42.71,59.082,-999.512,1065.918,11.25,-38.40,-38.25,16.91
9371,-2.35,5.93,-44.23,-28.809,-566.895,769.531,11.25,-38.70,-38.55,16.77
9381,-4.35,4.34,-39.84,-186.035,-507.812,647.949,9.60,-38.25,-38.85,16.72
9391,-0.39,2.02,-42.48,-164.551,-170.898,669.434,9.60,-36.15,-39.15,16.62
9401,4.39,5.05,-34.88,93.750,-437.988,748.535,10.50,-38.70,-37.80,16.77
9413,0.84,1.20,-43.12,62.012,-450.684,655.273,9.30,-39.15,-39.75,16.77
9423,1.29,-3.57,-43.66,117.188,-621.094,940.918,10.50,-37.95,-38.25,16.82
9433,-3.40,-6.47,-37.87,427.734,-891.602,1398.926,10.05,-39.15,-38.55,16.72
9443,-13.50,-2.95,-41.00,-304.199,-237.305,854.492,10.05,-39.15,-38.55,16.72
9453,-0.23,2.73,-38.69,-225.098,-337.891,1106.934,9.90,-39.00,-37.65,16.91
9463,1.21,-8.81,-40.71,-65.918,-453.613,976.074,9.75,-37.65,-39.30,16.72
9473,3.65,0.83,-41.04,-105.957,-465.332,1397.461,9.60,-39.30,-37.65,16.62
9485,5.27,1.83,-40.63,-18.555,-408.691,645.508,9.15,-39.30,-38.40,16.38
9495,6.36,1.30,-39.21,-202.148,-465.820,984.375,9.15,-39.30,-38.40,16.77
9505,11.15,3.10,-53.55,-115.723,-697.754,1048.828,9.15,-39.75,-38.10,16.91
9515,5.78,0.11,-46.22,-272.461,-332.031,1048.340,9.60,-37.35,-38.10,16.82
9525,6.25,0.18,-43.99,20.508,-899.902,822.266,9.60,-37.35,-38.10,16.91
9535,1.74,2.89,-39.22,-28.809,-717.773,763.184,9.00,-38.40,-38.25,16.72
9547,0.84,0.69,-42.25,-86.426,-310.547,974.121,9.00,-39.15,-38.25,16.77
9557,6.06,1.22,-38.62,-48.828,-705.078,546.387,9.30,-38.70,-37.80,16.77
9567,1.80,0.86,-41.21,84.473,-547.852,1130.859,9.30,-38.70,-37.80,16.48
9576,0.28,-1.74,-39.31,98.633,-378.906,787.109,9.30,-38.70,-37.80,16.82
9591,3.73,-3.20,-43.40,-63.965,-606.934,1039.551,8.70,-38.55,-37.35,16.58
9600,-2.27,-6.50,-46.54,35.645,-354.980,1266.602,8.70,-38.55,-37.35,16.38
9612,2.10,-3.05,-39.18,245.605,-449.707,1599.609,8.55,-38.70,-37.80,16.62
9622,2.71,-4.08,-41.73,27.344,-334.473,953.125,8.40,-40.20,-37.65,16.62
9632,0.08,-5.02,-37.76,-0.977,-351.562,844.238,7.35,-39.60,-38.55,16.77
9642,-4.91,-0.85,-36.21,-231.445,-481.445,852.051,7.20,-38.55,-36.90,16.77
9652,-1.69,-2.21,-48.44,-83.008,-325.684,464.844,7.20,-38.55,-36.90,16.72
9662,6.47,3.85,-38.31,88.867,-169.434,866.699,6.60,-39.15,-37.50,16.62
9671,7.32,2.81,-37.70,-141.113,-61.035,1028.320,7.20,-40.95,-36.90,16.38
9683,3.12,0.93,-43.96,-20.996,-1068.848,992.187,7.20,-40.95,-36.90,16.38
9693,-1.06,2.22,-39.87,115.234,-607.910,1009.277,7.20,-39.00,-38.10,16.58
9703,-5.09,5.46,-38.98,111.816,-359.863,894.043,6.30,-40.35,-37.05,16.72
9713,0.72,7.40,-41.56,-122.559,-149.902,863.770,7.05,-38.70,-37.80,16.72
9723,4.10,8.35,-34.36,-292.480,-55.176,784.668,6.45,-39.75,-37.65,16.77
9733,17.29,7.34,-41.94,247.070,-559.570,573.242,6.45,-39.75,-37.65,16.72
9742,6.66,7.11,-43.43,-223.633,-546.387,629.395,5.85,-39.90,-37.50,16.38
9754,-3.99,4.23,-44.52,-77.637,-336.426,1440.430,5.25,-40.50,-36.90,16.72
9764,-6.55,1.69,-48.21,-252.930,-498.535,979.980,6.15,-40.50,-37.35,16.38
9774,-1.36,-1.69,-38.55,179.687,-697.754,937.988,5.70,-41.70,-37.35,16.77
9784,-1.39,-1.68,-41.39,270.996,-545.898,628.418,5.10,-40.80,-37.50,16.91
9794,2.60,-3.37,-36.63,-34.180,-526.855,1106.934,6.90,-40.20,-36.60,16.62
9804,2.94,-0.29,-39.93,24.902,-309.570,830.566,6.15,-41.70,-37.65,16.77
9814,5.95,-1.04,-34.84,-218.262,-511.719,674.805,6.15,-41.70,-37.65,16.43
9826,7.44,-6.58,-38.35,-42.969,-141.602,1587.402,3.75,-41.40,-36.60,16.82
9836,4.05,-0.43,-25.43,91.309,-580.566,831.543,3.45,-39.00,-36.15,16.72
9846,7.18,6.77,-26.81,117.676,-581.055,1150.391,5.25,-39.75,-36.90,16.58
9856,7.34,-1.85,-38.44,304.687,-848.145,426.758,4.20,-40.95,-37.35,16.96
9866,-4.31,-0.29,-37.68,170.410,-819.336,1479.492,4.20,-40.95,-37.35,16.91
9876,-16.59,2.40,-42.42,-137.207,171.875,907.715,3.60,-41.10,-36.00,16.72
9886,-0.60,1.17,-45.94,-123.047,-375.488,700.684,5.25,-40.50,-37.65,16.77
9897,3.75,-3.39,-44.57,-60.059,-292.480,1302.734,4.35,-40.35,-38.55,16.77
9907,-4.24,1.65,-42.18,41.504,-688.965,1206.055,5.25,-41.40,-37.35,16.58
9917,-1.74,0.77,-38.37,-55.176,-7.812,821.777,5.25,-41.40,-37.35,16.43
9927,8.63,-1.60,-42.13,125.000,-251.953,1301.270,3.15,-40.35,-36.00,16.91
9937,9.74,-5.60,-45.47,56.641,-296.875,1388.672,3.15,-40.35,-36.00,16.77
9947,13.18,-0.53,-40.22,-82.031,-734.375,1017.578,3.45,-40.95,-36.00,16.96
9957,4.59,-4.03,-46.43,-315.918,-670.410,1786.133,3.75,-40.20,-36.60,16.77
9969,1.31,-6.76,-43.43,143.555,-736.816,919.922,3.75,-40.20,-36.60,16.77
9979,-7.93,1.30,-46.56,-309.082,-367.187,1222.656,2.55,-40.95,-36.60,16.62
9989,-3.21,-2.74,-37.82,-18.555,-584.961,1317.871,3.60,-43.20,-35.55,16.62
9999,-11.99,-8.21,-37.82,-324.707,-431.641,1515.137,2.40,-42.30,-35.25,16.62
10009,-8.93,-2.77,-41.19,-62.012,-610.352,843.750,2.55,-40.95,-34.95,16.62
10019,-0.07,0.68,-39.65,-54.199,-337.402,1243.164,2.55,-40.95,-34.95,16.82
10031,10.08,2.46,-44.46,215.332,-291.992,1075.684,3.00,-40.50,-36.15,16.77
10041,11.23,-3.31,-38.76,94.238,-693.848,1188.965,2.10,-43.20,-36.00,16.91
10051,-10.89,-2.81,-43.94,-124.023,-634.766,755.859,2.10,-43.20,-36.00,16.72
10061,-9.62,-15.14,-54.53,114.746,-430.664,1724.121,1.05,-40.50,-34.95,16.77
10071,-18.23,-10.98,-41.69,-5.859,-228.516,1915.527,0.90,-42.00,-36.00,16.58
10081,-9.40,-0.05,-39.95,193.359,-245.605,1239.746,2.10,-40.80,-36.00,16.77
10091,-6.19,-1.02,-40.53,-246.094,-145.996,1321.777,1.05,-43.35,-34.65,16.91
10107,9.23,7.90,-33.58,428.223,-718.262,874.512,1.05,-43.35,-34.65,16.77
10117,0.86,1.76,-38.92,173.828,-707.031,1116.211,0.30,-42.90,-36.90,16.82
10127,-2.15,1.48,-40.52,-498.047,-367.187,1314.453,0.30,-42.90,-36.90,16.82
10137,11.95,1.63,-45.48,-76.660,-577.148,944.336,-0.15,-40.80,-34.80,16.58
10147,8.64,1.28,-36.06,-165.527,-496.582,602.051,0.00,-41.40,-36.60,16.77
10157,8.14,2.24,-40.75,61.035,-904.297,887.207,0.00,-41.40,-36.60,16.77
10167,-1.01,-0.37,-45.61,125.000,-744.141,1084.961,-0.90,-43.95,-36.30,16.72
10179,3.12,0.54,-38.01,233.887,-103.027,696.777,-0.90,-42.30,-36.00,16.58
10189,-10.21,-1.92,-42.28,98.145,-515.137,1584.473,-0.90,-42.75,-36.75,16.77
10199,-7.71,0.10,-40.38,205.566,-42.969,1108.398,-1.50,-41.40,-36.15,16.77
10209,8.77,-10.77,-44.11,-396.973,-499.512,945.801,-0.90,-42.75,-35.55,16.82
10219,6.55,-3.02,-48.54,-55.664,-81.543,1354.980,-3.15,-42.00,-36.30,16.38
10229,11.73,-1.63,-36.01,-163.086,-535.645,1660.156,-3.15,-42.00,-36.30,16.72
10239,10.18,-3.18,-49.28,-111.816,-1092.773,1177.246,-1.05,-43.80,-36.15,16.82
10251,-9.85,3.89,-51.68,84.961,-649.902,966.797,-3.45,-40.50,-35.70,16.82
10261,-7.65,0.99,-41.02,-40.039,-821.289,810.547,-3.45,-40.50,-35.70,16.82
10271,-14.21,2.66,-37.52,-120.605,-685.547,628.418,-2.55,-43.35,-36.15,16.91
10281,-20.86,0.61,-45.12,-479.004,-358.398,1092.773,-1.50,-41.70,-35.40,16.77
10291,-14.21,-1.17,-58.75,-104.492,-417.480,692.871,-2.40,-43.50,-35.55,16.77
10301,8.02,7.82,-43.65,-1.465,-395.996,907.715,-2.10,-42.00,-36.00,16.72
10311,16.28,4.49,-46.78,-192.871,-362.793,1099.609,-2.10,-42.00,-36.00,16.82
10323,15.21,0.65,-45.23,240.723,-1068.359,1248.535,-3.15,-42.00,-37.05,16.58
10333,-3.04,6.84,-52.92,63.965,-977.539,973.633,-2.55,-40.50,-34.95,16.91
10343,-6.49,1.75,-56.31,-259.277,-534.180,1439.941,-2.55,-40.50,-34.95,17.01
10353,-5.54,2.53,-44.66,-270.508,-551.270,806.152,-3.90,-41.55,-37.05,16.72
10363,4.08,1.67,-45.59,77.148,-355.957,893.066,-3.75,-43.35,-34.95,16.91
10373,0.92,1.27,-45.30,-69.336,-840.332,759.277,-4.80,-40.35,-36.00,16.62
10387,-3.08,-0.95,-41.94,-5.859,-478.027,1089.844,-3.75,-40.95,-34.65,16.77
10396,3.87,0.92,-52.03,31.250,-510.254,1076.660,-3.75,-40.95,-34.65,16.77
10406,-4.14,0.60,-41.39,8.301,-428.711,801.270,-4.20,-40.50,-36.15,16.77
10416,4.17,-1.15,-40.15,-91.797,-572.266,834.961,-4.95,-42.60,-34.65,16.43
10426,-3.54,-2.31,-46.83,-20.996,-321.289,996.582,-4.95,-42.60,-34.65,16.77
10436,3.83,-2.11,-48.59,-33.691,-574.219,1115.234,-5.25,-39.75,-34.65,16.77
10446,-6.04,-9.44,-52.99,-395.508,-210.449,1300.293,-5.25,-41.70,-36.60,16.77
10458,-0.72,3.77,-43.98,277.832,-444.824,1117.676,-6.30,-41.10,-35.55,16.91
10468,-1.24,-1.05,-47.94,188.965,-450.684,1012.207,-6.30,-41.10,-35.55,16.77
10478,-2.66,2.99,-47.09,-116.699,-467.773,666.504,-5.10,-42.30,-34.05,16.91
10488,-5.36,2.57,-44.03,-200.684,-210.937,661.133,-6.30,-41.55,-36.75,16.72
10498,1.84,5.14,-47.76,244.141,-268.066,708.008,-6.30,-41.55,-36.75,16.72
10508,3.10,8.34,-42.82,102.539,-602.051,1253.906,-6.60,-40.80,-35.55,16.96
10518,3.26,10.71,-49.14,97.168,-388.672,634.277,-7.35,-41.10,-35.55,16.91
10530,5.64,8.27,-42.38,-96.680,-1007.812,1757.813,-5.55,-41.10,-33.75,16.77
10540,6.26,7.56,-37.38,-102.051,-584.961,1378.418,-7.35,-42.30,-36.00,16.91
10550,0.18,4.23,-50.40,-80.566,-866.699,632.324,-7.35,-42.30,-36.00,16.72
10560,-1.99,2.85,-45.29,-90.332,-749.512,791.504,-7.05,-42.30,-34.80,16.77
10570,2.35,8.50,-47.53,-49.316,-913.086,338.867,-6.60,-39.60,-34.80,16.72
10580,7.85,-0.40,-43.52,-153.809,-426.270,868.652,-7.20,-41.70,-34.65,16.38
10592,-1.05,-0.93,-47.11,50.781,-389.648,832.031,-7.95,-40.20,-34.65,16.38
10602,4.48,-0.48,-69.73,25.391,-459.961,1906.738,-7.95,-40.20,-34.65,16.38
10612,-1.69,0.26,-49.50,151.367,-671.387,799.805,-7.95,-41.40,-35.70,16.96
10634,1.32,6.28,-59.12,-18.555,-321.289,815.918,-8.40,-39.75,-34.65,16.77
10643,2.36,4.34,-51.40,256.348,-260.254,1184.570,-9.00,-39.60,-36.30,16.82
10653,-10.85,2.56,-50.55,-380.859,-538.086,1495.605,-8.55,-39.60,-34.50,16.96
10663,-6.36,7.66,-55.24,70.801,-704.102,902.832,-9.00,-40.35,-35.25,16.96
10675,-6.67,8.57,-53.41,-322.266,-790.039,1294.434,-9.00,-38.70,-34.50,16.72
10685,-4.29,-2.81,-47.98,319.824,-625.977,1023.437,-9.00,-38.70,-34.50,16.77
10695,7.68,2.22,-46.08,15.625,-391.602,600.586,-9.30,-37.95,-34.50,16.72
10705,2.56,-6.13,-42.79,-41.016,-705.078,625.000,-9.30,-37.95,-33.75,16.77
10715,2.82,-1.56,-41.19,-80.566,-166.992,1212.402,-9.30,-37.95,-33.75,16.58
10725,8.92,-2.08,-63.38,-128.906,-546.875,973.633,-9.30,-38.70,-34.50,16.62
10735,4.40,-10.53,-52.32,516.602,-768.066,1093.750,-9.15,-39.75,-33.90,16.72
10748,8.37,-13.21,-59.85,-301.270,-1228.027,-265.137,-11.40,-38.55,-33.90,16.72
10757,3.83,-11.37,-42.39,-165.039,-381.348,806.641,-9.90,-38.55,-33.90,16.82
10767,0.24,-4.69,-58.83,-198.242,-473.145,1333.008,-9.90,-38.55,-33.90,16.77
10777,-1.08,0.18,-55.51,-217.773,-199.707,1258.301,-10.65,-39.00,-34.20,16.72
10787,2.38,1.44,-56.06,159.180,-697.266,343.262,-11.10,-38.55,-33.90,16.96
10797,-2.50,5.94,-52.95,204.102,-276.367,979.980,-11.10,-38.55,-33.90,16.77
10809,-0.36,3.86,-41.69,29.785,-849.609,435.547,-11.85,-39.00,-33.90,16.48
10819,-4.95,8.32,-40.79,47.363,-589.844,537.598,-13.35,-37.80,-34.20,16.91
10829,-6.55,0.55,-45.05,-318.848,-537.598,1848.145,-11.40,-36.60,-33.15,16.77
10839,2.25,5.46,-45.58,-261.719,-637.695,1541.504,-11.40,-36.60,-33.15,16.43
10849,7.00,4.54,-50.38,274.414,-814.941,727.051,-12.00,-36.45,-34.05,16.82
10859,1.51,8.15,-45.76,90.820,-666.992,661.621,-11.40,-39.30,-34.95,16.58
10869,3.96,-3.66,-38.68,-54.688,-760.742,1407.227,-12.30,-37.05,-34.65,16.72
10881,2.22,2.64,-40.95,347.168,-543.457,1014.648,-12.30,-37.35,-32.70,16.58
10891,4.50,-6.68,-46.37,-159.668,-516.113,1682.617,-11.40,-36.60,-34.65,16.62
10901,7.53,-0.37,-53.38,149.902,-969.238,-106.445,-13.20,-35.55,-34.50,16.77
10911,-9.75,2.31,-50.38,-159.180,-706.055,787.109,-13.05,-37.35,-34.20,16.96
10921,-14.69,-5.35,-60.55,-33.203,-471.191,1357.910,-13.05,-37.35,-34.20,16.72
10931,-2.82,-2.06,-43.34,-33.691,-47.852,1287.598,-12.45,-35.55,-33.30,16.91
10943,5.28,-3.34,-54.12,-421.875,-580.566,1049.805,-13.20,-36.45,-34.50,16.82
10953,3.41,2.83,-43.38,90.332,-341.797,957.520,-11.85,-35.40,-35.40,16.58
10963,-5.45,-0.98,-46.32,-127.441,-748.535,1468.262,-13.20,-34.35,-34.05,16.77
10973,-8.99,2.11,-68.67,-158.691,-498.047,734.375,-14.10,-34.20,-34.65,16.77
10983,1.90,3.03,-58.60,43.457,-174.316,874.023,-13.20,-33.15,-33.30,16.58
10993,15.38,3.54,-38.20,126.465,-239.258,1256.836,-12.60,-35.85,-34.65,16.82
11003,12.56,2.18,-44.16,6.348,-548.340,1286.621,-12.60,-35.85,-34.65,16.72
11014,7.60,-1.76,-45.31,-183.105,-977.051,442.871,-13.20,-34.05,-34.80,16.77
11024,-12.53,1.39,-38.20,-109.375,-494.141,569.336,-12.75,-32.85,-35.25,16.77
11034,-14.06,5.74,-51.26,-138.672,-467.285,964.844,-13.20,-33.60,-33.75,16.62
11044,-12.45,2.74,-61.11,-102.539,-205.078,592.285,-12.60,-34.65,-34.65,16.82
11054,4.57,-2.72,-51.84,215.332,-870.605,381.836,-12.60,-34.65,-34.65,16.77
11064,7.72,-6.34,-38.61,-103.027,-862.793,1440.430,-13.20,-33.15,-34.50,16.58
11076,1.09,0.50,-54.69,-365.234,-312.012,1037.109,-14.10,-31.80,-33.90,16.77
11086,3.82,6.30,-39.39,-160.156,-600.098,1401.855,-14.10,-31.80,-33.90,16.62
11096,12.17,5.53,-45.95,-333.496,-303.711,1205.078,-13.80,-33.45,-34.20,16.77
11106,5.20,4.69,-40.75,-16.602,-354.004,1130.859,-13.35,-32.55,-34.95,16.29
11116,-3.92,3.94,-38.70,-261.230,-803.711,607.422,-13.35,-32.25,-34.65,16.82
11126,-2.10,9.63,-43.04,-232.910,19.043,1667.480,-13.20,-33.15,-34.50,16.62
11136,2.97,12.71,-42.57,63.965,1.953,1212.891,-13.20,-33.15,-34.50,16.82
11154,3.56,23.04,-28.17,210.937,-772.461,1326.660,-12.60,-31.80,-32.70,16.58
11163,-19.43,5.73,-26.22,-132.324,-276.855,689.453,-12.60,-31.80,-32.70,16.48
11173,-2.95,12.44,-37.03,-190.430,-287.598,1558.105,-13.20,-30.75,-33.00,16.82
11183,5.46,8.73,-39.49,-68.848,-430.176,725.098,-13.20,-31.20,-33.30,16.77
11193,0.24,13.13,-42.34,-213.379,-121.094,95.703,-14.70,-31.20,-34.05,16.77
11203,21.19,7.75,-40.68,-0.977,-253.418,679.687,-13.95,-30.75,-32.25,16.91
11213,9.30,11.71,-45.76,-383.789,-1197.754,599.609,-13.95,-30.75,-32.25,16.72
11226,-1.50,-1.53,-50.61,-275.391,-1439.453,1738.281,-13.50,-29.25,-31.50,16.58
11235,-7.54,6.08,-36.98,-344.238,-739.258,50.293,-14.10,-29.40,-31.65,16.91
11245,-0.89,-4.78,-40.40,-128.418,-361.816,818.848,-14.10,-29.40,-31.65,16.91
11255,22.45,-6.40,-40.93,-69.336,-23.437,1769.043,-14.70,-30.00,-31.80,16.77
11265,25.40,-5.60,-48.98,229.492,-440.430,933.594,-14.55,-28.95,-30.90,16.62
11275,15.93,-3.73,-42.69,48.340,-751.953,1235.840,-13.95,-29.55,-31.80,16.82
11285,17.69,-13.85,-41.78,-246.582,-503.418,1702.148,-13.50,-30.45,-30.75,16.77
11297,14.26,-9.56,-46.31,-508.789,-887.207,830.078,-13.50,-30.45,-30.75,16.43
11307,6.48,-19.99,-47.09,342.773,-666.504,1623.535,-14.85,-29.85,-30.15,16.77
11317,-8.57,-15.98,-48.98,-151.367,-708.008,1999.939,-15.15,-29.55,-29.10,16.96
11327,-13.21,-25.54,-36.20,21.484,-400.391,1646.484,-16.20,-28.35,-29.85,16.91
11337,-13.11,-27.03,-47.82,-61.035,-217.285,987.793,-17.10,-28.80,-28.05,16.96
11347,-6.78,-29.18,-45.83,146.973,-272.461,775.391,-17.10,-28.35,-29.10,16.77
11360,-1.19,-30.19,-51.53,-333.008,-227.539,1016.113,-17.85,-28.35,-29.55,16.58
11369,9.24,-22.78,-43.76,-512.695,-190.918,1741.699,-18.15,-29.25,-29.85,16.58
11379,12.51,-17.16,-43.56,234.863,-1245.605,1272.949,-18.15,-29.25,-29.85,16.38
11389,-11.90,-18.15,-47.64,-326.660,-597.656,905.273,-19.20,-28.20,-30.45,16.91
11399,-15.03,-11.08,-50.54,-359.375,-777.832,-257.324,-18.00,-28.20,-30.90,16.77
11409,-17.52,-27.79,-50.77,-133.789,-328.125,-250.488,-18.45,-28.95,-31.20,16.77
11421,-0.95,-18.26,-43.09,-329.102,0.000,560.547,-19.20,-28.95,-30.45,16.77
11431,7.18,-12.11,-39.94,221.191,-399.414,207.520,-19.50,-28.20,-30.45,16.72
11441,14.73,-8.56,-40.85,150.879,-627.441,49.316,-18.90,-27.60,-29.85,16.62
11451,21.85,-11.13,-42.22,-118.164,-444.824,1999.939,-18.90,-27.60,-29.85,16.96
11461,21.84,1.11,-250.14,-490.234,-393.066,428.223,-19.20,-25.80,-28.65,16.48
11471,11.97,8.27,4.37,-124.512,-467.773,895.508,-20.10,-26.85,-29.55,16.77
11481,20.00,8.34,-42.15,-247.559,-362.305,1035.645,-19.20,-27.00,-29.70,16.82
11493,5.63,18.78,-18.69,151.367,-360.352,1347.656,-20.55,-26.40,-30.30,16.72
11503,-2.24,9.90,-40.21,13.184,-475.098,934.570,-20.55,-26.40,-30.30,17.01
11513,10.84,3.27,-18.72,-102.051,-753.906,682.617,-21.60,-28.05,-31.80,16.77
11523,8.87,9.06,-34.27,-34.668,-333.008,1654.785,-19.65,-25.20,-30.30,16.82
11533,11.20,8.08,-43.99,12.207,-870.117,1336.914,-19.65,-25.20,-30.30,16.43
11543,-0.62,2.69,-43.40,63.965,-610.352,633.301,-19.65,-25.65,-30.75,16.77
11553,-14.82,6.44,-53.53,-668.457,-628.418,1999.939,-19.65,-25.95,-30.30,16.77
11565,-4.82,1.55,-44.40,-225.098,-285.645,1999.939,-21.45,-26.25,-31.95,16.77
11575,-0.37,0.09,-55.82,25.391,-287.598,1090.820,-20.10,-25.65,-29.85,16.91
11585,8.37,1.75,-41.71,-252.441,-141.113,510.742,-20.10,-25.65,-29.85,16.91
11595,8.37,0.65,-44.69,22.461,-586.914,1298.340,-20.70,-25.50,-31.65,16.82
11605,4.83,-4.87,-41.72,179.687,-910.645,1299.805,-19.50,-26.25,-30.45,16.77
11615,-6.13,-9.21,-40.94,-126.465,-696.289,1213.379,-19.50,-26.25,-30.45,16.48
11628,-9.03,-8.63,-45.24,-125.488,-424.316,1119.629,-21.45,-25.80,-30.90,16.82
11637,-4.21,-10.60,-35.91,-270.020,-389.160,1204.102,-21.45,-26.25,-31.20,16.43
11647,-9.80,-1.96,-44.68,17.090,-35.156,1279.785,-19.50,-24.60,-31.65,16.82
11657,-11.56,-4.76,-43.37,-189.941,-263.672,1135.742,-19.50,-26.55,-30.15,16.91
11672,-7.51,-1.40,-42.80,-204.590,-74.707,849.121,-20.25,-25.80,-29.70,16.82
11681,-7.61,-8.20,-43.91,-302.734,-41.992,814.941,-21.45,-25.50,-31.20,16.72
11694,-3.23,-2.52,-47.60,-214.844,-205.566,1066.406,-21.00,-24.60,-31.20,16.77
11703,3.15,-5.02,-38.25,-147.949,-604.004,870.117,-22.65,-26.25,-30.45,16.77
11713,2.06,-4.51,-61.23,-385.254,-99.609,-24.414,-21.60,-24.90,-31.80,16.58
11723,26.05,3.62,-35.86,-5.859,-903.809,457.520,-21.30,-25.65,-30.75,16.91
11733,20.48,6.19,-40.35,336.426,-1231.934,1936.523,-21.90,-24.30,-31.65,16.91
11743,16.18,6.66,-41.22,219.238,-928.223,1351.074,-21.90,-24.30,-31.65,16.43
11753,14.57,1.63,-40.38,58.594,-649.902,693.848,-22.80,-24.45,-30.75,16.91
11765,10.21,-0.28,-28.66,-54.199,-668.945,1211.426,-22.65,-24.60,-30.90,16.91
11775,8.29,2.82,-44.37,-312.012,-379.395,1132.324,-22.35,-24.45,-30.75,16.77
11785,3.87,-4.75,-36.27,-16.113,-335.937,1333.008,-22.20,-23.40,-30.90,16.58
11795,9.53,-5.10,-41.05,-93.262,-169.434,1375.000,-22.20,-23.40,-30.90,16.77
11805,16.32,-8.11,-36.95,-73.242,-549.805,1251.953,-22.65,-23.85,-30.90,16.72
11815,5.70,-5.89,-42.08,88.867,-84.473,1685.547,-21.60,-21.60,-30.75,16.72
11827,3.78,-10.63,-43.55,-22.949,-509.766,866.699,-21.60,-21.60,-30.75,16.96
11837,10.13,-9.33,-42.08,22.461,-803.711,739.258,-22.80,-22.05,-31.50,16.77
11847,3.73,-5.24,-38.40,136.230,-547.363,923.340,-22.35,-23.25,-29.10,16.77
11857,0.63,0.89,-34.08,-301.758,-87.402,1211.914,-24.30,-21.60,-31.80,16.77
11867,1.24,-6.02,-35.56,-113.770,-137.695,1096.191,-22.20,-22.20,-31.65,16.38
11877,-7.41,-4.12,-41.50,-146.973,-526.367,896.484,-22.20,-22.20,-31.65,16.72
11887,-9.19,-5.02,-39.31,-13.184,-231.934,1252.441,-23.55,-22.50,-31.05,16.91
11899,-19.45,1.31,-36.69,-197.754,-322.266,1341.797,-22.05,-22.80,-30.75,17.10
11909,-11.06,-1.46,-23.18,2.441,-2.930,863.770,-22.05,-22.80,-30.75,16.72
11919,-5.12,-0.72,-42.74,-18.555,-125.000,731.934,-22.95,-21.00,-31.20,16.58
11929,7.91,13.29,-34.11,58.105,-44.922,558.105,-23.40,-21.45,-31.95,16.77
11939,13.26,-0.89,-39.50,-38.086,-401.367,1423.340,-23.55,-21.30,-30.75,16.72
11949,10.63,-3.69,-37.99,-96.680,-680.176,1108.887,-22.05,-22.80,-29.85,16.48
11961,5.00,1.18,-35.89,40.039,-272.949,992.187,-22.05,-22.50,-30.30,16.77
11971,0.99,-11.70,-41.66,14.160,-530.762,1090.820,-22.65,-21.45,-31.20,16.38
11981,4.82,-7.09,-38.75,84.961,-840.332,150.391,-22.65,-21.45,-31.20,16.72
11991,10.54,-9.66,-39.96,226.074,-328.613,1091.309,-24.00,-21.30,-31.50,16.72
12001,-1.33,-8.49,-29.27,-365.723,-416.992,1887.695,-22.95,-19.80,-31.65,16.82
12011,8.29,-7.40,-31.69,-155.762,-431.152,1075.195,-22.95,-20.70,-29.70,16.82
12021,2.93,-2.22,-40.09,-94.727,-450.684,895.020,-22.65,-19.80,-31.65,16.77
12033,1.79,-1.65,-28.61,-215.332,-358.398,1724.121,-22.65,-19.80,-31.65,16.72
12043,3.82,6.58,-26.84,-162.109,-456.055,241.211,-24.60,-20.25,-30.90,16.91
12053,-7.75,6.51,-29.37,210.937,-670.410,471.191,-22.95,-19.05,-30.90,16.38
12063,-18.83,8.40,-42.89,71.289,-529.297,219.238,-22.65,-20.25,-30.15,16.91
12073,-16.21,9.27,-32.18,-38.086,-24.414,1493.652,-24.90,-20.70,-33.15,16.82
12083,-14.84,-3.04,-42.02,175.293,28.320,1513.672,-21.30,-19.65,-31.50,16.91
12093,-4.75,-1.82,-26.13,-125.488,-98.145,1355.469,-24.60,-22.65,-31.95,16.77
12105,-2.24,0.76,-40.75,-250.000,-232.910,1849.609,-22.80,-19.65,-32.25,16.96
12115,2.56,-3.51,-37.41,-50.293,-290.527,841.309,-22.80,-19.65,-32.25,16.82
12125,0.54,-7.73,-35.59,-16.602,-809.570,845.703,-24.15,-19.80,-30.90,16.62
12135,-8.10,0.95,-35.89,100.098,-339.844,1043.945,-22.65,-20.25,-31.65,16.43
12145,-6.96,-6.97,-33.54,-293.457,-180.176,1644.531,-23.70,-21.45,-31.65,16.91
12155,-9.59,-7.28,-33.92,-254.395,-503.906,1227.051,-22.95,-18.60,-31.65,16.48
12167,-3.41,2.11,-41.20,-99.121,-237.793,1223.633,-22.95,-18.60,-31.65,16.82
12177,-4.98,2.75,-35.21,-20.020,-448.242,1267.578,-24.90,-20.70,-31.95,16.91
12192,7.57,-1.48,-34.37,52.734,-583.496,1376.465,-21.90,-19.80,-31.20,16.72
12201,-4.56,4.59,-34.92,367.187,-944.336,877.441,-24.60,-17.85,-30.45,16.38
12211,-1.38,-0.76,-33.94,217.773,-319.336,997.559,-22.95,-19.80,-29.40,16.72
12221,-0.88,4.13,-30.27,-55.664,-335.937,1096.191,-22.95,-19.80,-29.40,16.77
12231,5.66,0.24,-25.18,156.738,-360.352,1035.156,-22.95,-18.30,-30.90,16.77
12243,10.18,-4.95,-37.72,-183.105,-34.668,921.875,-22.95,-18.30,-30.90,16.58
12253,14.75,-5.57,-31.08,51.270,-696.289,824.219,-23.40,-17.10,-31.65,16.82
12263,6.58,-2.24,-30.24,256.836,-438.477,1133.789,-22.20,-18.30,-29.70,16.58
12273,-9.95,-0.25,-160.55,259.766,-716.309,1399.414,-22.20,-18.30,-29.70,16.72
12283,0.52,-3.95,60.25,-128.906,-274.414,1191.895,-22.95,-17.40,-30.15,16.72
12293,3.41,-2.43,-51.11,179.687,-604.980,483.398,-23.25,-18.00,-31.05,16.72
12303,7.92,-0.73,-32.37,-71.777,-397.461,878.906,-22.20,-17.10,-30.15,16.72
12315,1.89,0.42,-34.68,222.168,-514.160,604.492,-22.05,-18.45,-29.85,16.96
12325,-0.79,1.27,-33.43,402.344,-631.348,1016.602,-22.05,-18.45,-29.85,16.77
12335,-10.76,-2.80,-56.96,16.113,-195.801,896.484,-22.65,-16.20,-30.15,16.72
12345,-8.86,2.82,-26.92,-101.563,-429.199,319.336,-23.70,-19.05,-30.45,16.77
12355,-9.47,-5.14,-28.71,138.184,-602.051,950.684,-23.70,-19.05,-30.45,16.77
12365,-13.04,-0.27,-53.00,-298.828,81.543,1293.945,-21.90,-16.65,-29.70,16.38
12375,-1.92,-0.68,-34.27,24.902,-234.375,1124.023,-24.00,-17.70,-31.80,16.96
12387,-5.37,2.98,-35.44,-32.227,38.086,1206.055,-22.95,-16.20,-30.15,16.38
12397,1.48,0.60,-39.37,-199.707,-208.008,1107.422,-22.65,-17.85,-30.90,16.82
12407,2.21,-1.23,-35.25,29.785,-820.312,865.723,-22.65,-17.85,-30.90,16.62
12417,-13.59,-1.14,-31.79,-444.336,-120.117,1421.387,-22.35,-16.80,-31.50,16.58
12427,2.63,-4.69,-40.46,-251.953,115.234,1999.939,-23.55,-18.00,-31.80,16.48
12437,15.51,0.53,-26.10,630.371,-285.645,544.922,-23.25,-15.30,-32.25,16.77
12449,18.09,-3.82,-34.27,771.484,-452.637,562.988,-23.40,-17.40,-31.20,16.91
12459,6.09,0.76,-29.56,-192.383,-264.160,745.117,-23.25,-15.60,-31.05,16.77
12469,4.63,-12.18,-24.62,-351.562,-613.770,1718.750,-22.35,-14.40,-30.75,16.62
12479,8.15,-3.63,-34.05,504.883,-772.461,454.590,-22.65,-15.90,-30.15,16.77
12489,-2.98,-3.52,-30.03,25.879,-267.578,1305.176,-22.65,-15.90,-30.15,16.82
12499,-7.40,-7.00,-30.98,172.852,-662.598,1930.176,-21.90,-13.80,-28.95,16.82
12509,-4.39,-1.59,-26.16,385.742,-395.020,14.160,-22.65,-15.45,-30.15,16.48
12521,-7.31,2.54,-24.99,-17.090,-185.059,692.383,-23.25,-12.90,-30.75,16.62
12531,-7.96,-1.53,-24.74,128.906,100.586,1056.152,-21.90,-16.65,-28.95,16.72
12541,-3.85,0.05,-32.42,-142.578,-16.113,1114.746,-21.90,-16.65,-28.95,16.82
12551,5.53,-4.51,-32.65,359.375,-413.574,345.703,-24.00,-13.65,-30.75,16.38
12561,7.76,1.57,-31.92,-130.859,-285.645,798.340,-22.95,-14.25,-29.70,16.72
12571,-9.29,-1.13,-29.53,-330.566,-267.090,1999.939,-22.95,-14.25,-29.70,16.72
12583,0.27,2.32,-35.76,96.191,-668.945,992.187,-23.25,-15.60,-31.05,16.72
12593,-3.18,-2.67,-29.95,-191.895,-437.500,846.191,-23.55,-12.90,-32.55,16.82
12603,-9.27,3.98,-37.96,110.840,-410.156,615.723,-23.25,-14.40,-32.55,16.91
12613,-3.98,5.11,-36.16,-643.066,-52.246,1645.020,-23.25,-14.40,-32.55,16.72
12623,2.11,-4.41,-35.51,458.496,-569.824,748.047,-23.25,-12.15,-33.00,16.77
12633,3.93,1.35,-32.37,315.430,-520.996,755.859,-22.35,-14.85,-32.25,16.58
12643,-4.95,-1.44,-34.37,-191.895,-618.652,1999.939,-22.35,-14.85,-32.25,16.96
12655,-2.12,3.12,-35.44,-206.543,-39.063,1071.777,-22.05,-11.25,-33.00,16.62
12665,3.31,-1.98,-39.97,17.578,-821.289,1578.613,-22.65,-13.80,-32.40,16.62
12675,7.02,2.37,-37.70,140.625,-685.547,781.738,-22.65,-11.10,-31.95,16.77
12685,-8.53,-3.53,-38.77,-750.977,211.426,1999.939,-21.90,-11.85,-31.20,16.62
12695,9.82,-9.94,-42.70,443.848,-906.250,405.762,-21.90,-11.85,-31.20,16.77
12712,-0.17,1.60,-31.46,266.113,-903.809,1162.598,-21.45,-10.65,-32.70,16.77
12721,-5.18,0.10,-40.87,288.574,-469.727,164.062,-20.85,-12.90,-29.55,16.72
12731,-22.36,7.17,-44.89,-244.629,-523.926,1590.332,-20.85,-12.90,-29.55,16.82
12741,-0.77,1.24,-23.41,394.043,-463.867,964.355,-21.30,-11.70,-31.80,16.77
12751,-15.77,-1.89,-58.36,-336.426,-340.820,577.637,-22.05,-13.20,-31.05,16.82
12761,-8.56,-3.98,-22.23,-128.418,-137.695,956.055,-22.65,-12.30,-31.65,16.96
12771,6.27,-0.15,-30.30,-8.789,-283.203,738.281,-22.20,-11.10,-32.40,16.72
12783,9.67,-0.95,-36.70,442.871,-685.547,700.684,-22.20,-10.65,-31.95,16.62
12793,-5.34,3.57,-40.50,-562.988,-297.852,1130.371,-20.25,-10.65,-31.65,16.62
12803,2.33,-8.92,-41.55,493.164,-1160.156,394.043,-21.60,-13.20,-31.50,16.48
12813,-8.73,3.49,-44.68,-102.539,-396.973,629.395,-21.60,-11.25,-31.05,16.77
12823,0.97,-2.07,-26.31,-79.102,-863.281,1999.939,-21.00,-10.35,-30.45,16.72
12833,5.69,4.75,-46.37,86.426,-731.934,262.695,-21.60,-13.20,-31.50,16.96
12843,-13.01,9.82,-42.31,-633.789,-53.223,1111.816,-21.00,-9.45,-30.45,16.72
12855,-5.56,15.64,-45.44,-606.445,193.359,791.992,-21.00,-9.45,-30.45,16.77
12865,18.13,5.56,-45.99,793.945,-299.316,960.449,-22.20,-11.10,-31.95,16.91
12875,15.80,18.15,-41.85,-353.027,270.996,1229.492,-22.80,-10.05,-31.50,16.77
12885,34.56,-8.02,-39.92,983.887,-1059.082,705.566,-20.70,-9.15,-29.40,16.38
12895,-6.31,-9.15,-40.86,-631.836,-480.957,250.977,-21.45,-10.65,-31.20,16.91
12905,9.15,-11.47,-53.93,457.031,-1158.203,-434.570,-21.45,-10.65,-31.20,16.82
12917,3.34,-8.08,-42.21,804.199,-750.000,-83.984,-20.70,-7.50,-30.45,16.62
12927,-27.44,0.09,-39.22,-285.156,-32.227,695.312,-21.45,-7.95,-31.20,16.77
12937,11.31,-13.73,-44.18,321.289,-585.449,631.348,-21.45,-7.95,-31.20,16.91
12947,-14.61,-5.82,-39.95,-553.711,-22.949,858.398,-20.10,-8.10,-31.50,16.82
12957,5.13,-4.09,-40.27,415.039,-802.734,-157.715,-20.10,-10.50,-31.80,16.72
12967,-7.05,0.16,-43.52,-774.902,-442.383,1911.133,-21.00,-8.70,-31.95,16.62
12977,18.27,-1.11,-32.60,544.434,-571.777,9.766,-19.20,-7.05,-32.40,16.77
12989,13.18,-1.47,-32.32,434.082,-1162.598,166.504,-19.20,-7.05,-32.40,16.24
12999,-17.62,12.11,-44.84,-411.133,-68.359,707.520,-20.25,-6.75,-33.15,16.77
13009,3.08,-1.08,-35.95,573.730,-351.562,1894.043,-18.00,-8.25,-31.95,16.72
13019,-3.65,10.93,-36.87,207.031,-103.516,1093.262,-18.00,-8.25,-31.95,16.48
13029,3.94,-9.60,-28.83,359.863,-316.406,1999.939,-18.00,-6.30,-31.65,16.62
13039,7.92,3.02,-43.31,-95.703,-316.895,850.098,-17.40,-8.55,-31.50,16.62
13051,-6.21,-0.63,-52.56,-210.449,286.133,403.320,-18.90,-9.30,-31.05,16.77
13061,24.63,-7.15,-32.15,536.621,-1706.543,1999.939,-18.00,-8.25,-30.45,16.77
13071,-2.63,-3.70,-38.50,-482.910,-94.727,1129.395,-18.00,-8.25,-30.45,16.62
13081,-2.74,-11.34,-35.37,614.258,-1145.508,1886.230,-19.65,-10.95,-29.85,16.91
13091,-19.15,-1.63,-41.55,-468.750,181.641,1728.516,-19.35,-8.55,-30.30,16.58
13101,3.67,-15.19,-28.53,893.555,-1465.332,512.695,-19.35,-8.55,-30.30,16.91
13111,-18.42,5.89,-31.46,-966.309,71.289,926.270,-20.10,-8.55,-29.10,16.72
13123,-19.76,16.74,-51.78,-495.117,47.363,452.148,-18.60,-7.65,-32.25,16.72
13133,24.44,-7.91,-34.31,579.102,-1059.082,-164.062,-18.15,-8.85,-31.50,16.62
13143,-4.60,3.21,-48.82,-366.699,-187.500,640.137,-18.15,-8.85,-31.50,16.72
13153,22.73,-13.12,-42.34,395.508,-1431.152,-124.512,-18.45,-7.05,-31.20,16.72
13163,-18.29,1.64,-35.63,-674.805,66.406,877.441,-18.00,-8.70,-31.20,16.62
13173,9.25,-4.22,-32.73,586.426,-1304.199,-583.496,-18.90,-4.95,-32.55,16.96
13183,-14.72,13.83,-51.80,17.090,-12.695,343.262,-18.45,-5.55,-30.90,16.96
13194,-6.20,6.64,-47.74,-511.230,-391.602,957.031,-17.55,-7.95,-31.65,16.77
13204,9.11,-4.44,-35.88,568.359,-683.105,1982.422,-17.10,-4.95,-32.25,16.77
13214,12.22,11.15,-43.97,-526.855,-79.102,879.395,-17.55,-4.65,-30.90,16.91
13229,13.05,-4.15,-34.08,1080.078,-1350.586,986.328,-17.55,-4.65,-30.90,16.77
13238,-21.31,8.76,-47.22,-353.516,-441.895,924.805,-18.60,-5.25,-31.80,16.62
13248,-0.71,-8.71,-46.09,793.457,-1425.781,1389.648,-17.10,-5.25,-31.80,16.72
13258,-30.56,-3.83,-42.92,-147.461,429.687,888.672,-17.25,-7.95,-30.15,16.48
13270,7.37,-6.10,-29.85,226.074,505.859,1695.313,-17.40,-4.50,-31.50,16.77
13280,32.07,-18.31,-42.16,674.805,-1442.383,453.125,-17.40,-4.50,-31.50,16.77
13290,-17.95,-5.50,-80.06,-1154.785,-728.516,1072.266,-16.65,-4.05,-30.75,16.48
13300,7.73,-4.31,-46.85,597.168,-709.961,1500.488,-17.25,-5.85,-29.40,16.48
13310,-11.55,5.69,-26.91,-418.457,-661.621,1777.344,-17.25,-5.85,-29.40,16.62
13320,3.39,9.16,-35.12,-97.168,-863.770,419.434,-16.80,-4.35,-30.45,16.82
13332,3.60,5.85,-26.53,-393.555,-70.801,713.867,-16.50,-7.05,-31.65,16.77
13342,-14.59,11.40,-45.01,-126.953,-778.809,1100.586,-17.85,-5.25,-31.50,16.62
13352,3.79,9.44,-17.05,-550.293,-321.777,804.687,-17.25,-3.15,-30.90,16.82
13362,-5.76,18.06,-42.88,-36.621,-666.992,1999.939,-17.25,-3.15,-30.90,16.72
13372,3.46,5.76,-47.09,-336.914,-241.211,887.207,-15.45,-4.95,-31.80,16.72
13382,20.91,3.09,-32.17,530.762,-949.219,1999.939,-15.15,-3.75,-33.30,16.77
13392,10.60,7.35,-51.79,-432.617,-264.648,810.059,-15.15,-3.75,-33.30,16.77
13404,-18.56,0.60,-50.73,-485.352,-257.324,1161.133,-14.85,-1.95,-33.15,16.82
13414,-0.03,-10.72,-37.95,-150.391,-1312.500,496.094,-15.30,-3.45,-31.65,16.91
13424,-10.08,2.75,-62.45,-186.035,110.352,958.496,-13.50,-4.05,-33.30,16.72
13434,19.17,-0.50,-40.08,82.520,-848.145,739.258,-13.50,-4.05,-33.30,16.62
13444,-6.19,0.13,-35.12,155.273,-464.355,413.086,-14.55,-2.70,-30.90,16.91
13454,16.11,0.73,-48.27,-249.512,-1137.207,-174.316,-13.20,-5.25,-30.75,16.43
13464,2.05,-5.02,-39.47,487.793,-1266.602,1999.939,-13.20,-5.25,-30.75,16.82
13476,7.00,1.95,-50.82,320.801,-1020.508,1999.939,-13.80,-1.95,-30.15,16.48
13486,-7.74,2.09,-49.47,-268.066,223.145,1805.176,-14.70,-4.05,-32.25,16.82
13496,13.27,-7.27,-34.57,344.727,-934.082,1596.680,-14.10,-3.45,-32.70,16.77
13506,-13.60,-9.06,-46.76,-367.187,190.430,1410.156,-14.10,-1.05,-31.95,16.58
13516,12.27,-5.10,-43.70,-161.621,-871.094,977.051,-14.10,-1.05,-31.95,16.77
13526,-0.91,-1.01,-50.89,-196.777,-287.598,1999.939,-13.80,-2.70,-31.20,16.62
13539,-0.11,-0.24,-47.78,-539.551,-361.328,1758.301,-12.60,-1.95,-31.20,16.48
13548,11.62,-0.57,-44.98,-288.086,-586.914,677.246,-14.55,-2.25,-31.95,16.58
13558,7.82,-3.08,-45.53,440.430,-800.293,1669.922,-12.60,-2.25,-32.40,16.72
13568,-8.12,0.79,-43.60,-440.430,-759.766,608.887,-12.75,-1.65,-32.55,16.72
13578,-6.53,-14.88,-39.90,492.187,-1384.277,456.055,-13.20,-2.85,-31.80,16.72
13588,-14.39,-3.36,-53.11,-179.687,-51.758,378.906,-13.05,-2.25,-32.70,16.91
13598,-4.12,-4.65,-48.21,183.105,-532.227,1203.613,-13.05,-2.25,-32.70,16.72
13611,-1.24,-10.01,-46.87,-188.965,-664.551,604.980,-11.85,-3.45,-30.45,16.82
13620,7.10,-0.86,-51.00,404.785,-344.238,1511.719,-13.50,-2.10,-31.50,16.77
13630,13.78,1.15,-35.95,-645.508,-90.820,755.859,-13.05,-0.75,-31.65,16.72
13640,23.48,-1.88,-39.18,349.609,-1433.105,1007.812,-12.00,-2.55,-31.05,16.58
13650,-0.21,4.49,-45.02,121.094,-390.137,178.711,-12.00,-2.55,-31.05,16.77
13660,2.06,4.58,-43.08,-152.832,-583.496,1425.781,-10.95,-0.90,-31.80,16.77
13672,-0.64,5.73,-40.31,-119.141,-557.617,789.062,-11.40,-1.05,-33.15,16.82
13682,-13.04,-4.89,-37.61,229.980,-803.711,1999.939,-11.40,-1.05,-33.15,16.62
13692,2.56,1.82,-52.67,-301.758,285.645,1262.207,-11.40,-2.70,-31.65,16.77
13702,17.92,3.55,-31.76,168.457,-1350.098,1999.939,-11.40,-1.05,-31.65,16.48
13712,-2.09,3.67,-27.95,-310.547,-181.641,1293.457,-12.45,-1.65,-31.80,16.77
13722,18.56,-2.79,-35.57,-250.000,-984.375,1999.939,-10.65,-1.95,-32.70,16.48
13732,3.40,3.50,-38.08,-40.039,-714.844,1508.789,-10.65,-1.95,-32.70,16.77
13749,-3.01,-4.05,-44.06,-36.621,-506.348,1533.203,-11.25,-0.15,-33.30,16.82
13758,9.92,7.13,-43.23,100.586,-559.570,153.320,-11.25,-0.15,-33.30,16.82
13768,-10.95,3.40,-37.20,538.574,-655.762,1640.625,-9.90,0.00,-31.65,16.77
13778,-11.31,8.54,-43.30,-66.895,-320.801,-51.270,-10.50,-1.65,-32.25,16.77
13788,-12.40,-3.66,-35.40,368.164,-375.000,845.703,-9.60,0.75,-33.15,16.48
13798,-2.63,-5.44,-46.08,-121.582,-111.328,1415.527,-9.15,-0.30,-31.20,16.62
13808,9.21,2.95,-41.27,-52.734,-708.496,1171.387,-9.15,-0.30,-31.20,16.82
13820,-1.18,1.07,-45.02,-420.410,-104.980,1038.086,-9.00,-0.45,-32.55,16.72
13830,6.17,-6.95,-35.89,267.578,-536.133,1236.816,-9.60,0.00,-31.65,16.82
13840,-5.41,-6.30,-41.80,-182.129,-217.285,800.781,-9.60,0.00,-31.65,16.77
13850,4.16,-0.60,-38.79,-41.992,-382.324,1192.871,-10.35,0.75,-30.90,16.62
13860,1.96,-7.92,-38.13,157.715,-437.012,1495.117,-8.40,0.75,-32.40,16.82
13870,3.63,-3.09,-47.55,-608.887,-13.672,1601.074,-9.60,-1.50,-31.20,16.58
13880,14.77,-12.34,-48.61,30.273,-1208.008,1999.939,-9.15,-0.75,-33.15,16.72
13892,2.39,4.65,-27.67,-154.785,-828.125,1450.195,-9.15,-0.75,-33.15,16.48
13902,10.63,1.49,-41.60,-278.809,-819.824,433.594,-8.25,-0.45,-30.75,16.58
13912,1.91,4.95,-40.08,-751.465,-415.039,1268.066,-8.25,-1.35,-32.55,16.77
13922,8.51,3.02,-68.26,772.461,-618.164,1604.980,-8.25,-1.35,-32.55,17.01
13932,-15.19,7.50,-39.32,-183.105,-393.555,399.902,-7.95,0.00,-31.65,16.72
13942,-5.72,1.21,-45.27,531.738,-554.199,334.961,-7.95,-0.75,-33.45,16.24
13952,-14.93,2.07,-36.67,157.227,-31.250,1029.297,-8.25,0.90,-31.80,16.48
13964,-6.91,-2.57,-46.27,147.949,-525.879,1835.938,-7.80,1.65,-31.05,16.48
13974,9.94,-3.19,-30.31,-546.387,-645.996,412.109,-7.80,0.90,-31.05,16.77
13984,15.66,-8.56,-47.01,514.160,-1212.402,1999.939,-7.65,1.95,-33.15,16.72
13994,-1.94,-1.89,-45.50,-519.531,-349.609,233.398,-7.65,1.95,-33.15,16.77
14004,3.88,-1.79,-24.57,-444.336,-816.406,1224.121,-5.70,1.05,-33.15,16.72
14014,2.04,-0.24,-50.46,476.074,-691.895,915.039,-6.90,2.25,-34.95,16.77
14026,0.93,5.89,-45.79,84.961,-541.016,1214.844,-6.90,0.75,-34.20,16.77
14036,-6.90,0.26,-54.91,-387.207,-367.187,1366.699,-6.15,0.30,-34.20,16.82
14046,1.52,5.11,-38.05,-121.582,15.137,1123.047,-6.15,0.30,-34.20,16.77
14055,0.33,2.07,-41.11,0.977,-530.762,463.379,-5.25,1.95,-34.20,16.77
14065,-3.05,2.60,-44.70,-17.090,-294.922,781.738,-4.95,0.75,-35.40,16.62
14075,7.44,-7.31,-33.32,313.965,-602.539,1374.512,-4.95,0.30,-34.65,16.77
14085,-3.66,-5.96,-47.92,-119.629,-81.055,1087.402,-3.75,0.30,-34.20,16.62
14097,1.52,-6.77,-48.66,-303.223,-209.473,1134.277,-3.45,1.95,-33.90,16.77
14107,-0.48,-10.40,-49.73,115.234,-514.648,1395.020,-4.20,1.95,-34.95,16.77
14117,-6.50,-6.60,-44.25,-208.008,-581.055,640.137,-4.20,2.70,-34.95,16.43
14127,-2.00,-11.31,-36.42,-84.961,-1070.801,1274.414,-4.20,2.70,-34.95,16.48
14137,-7.33,-10.02,-41.10,-218.750,-93.262,1309.082,-3.15,2.10,-37.05,16.58
14147,-5.41,-4.08,-41.24,-160.156,-470.215,516.113,-2.85,1.65,-37.50,16.77
14157,1.78,-8.94,-41.32,-40.039,-370.117,1533.691,-1.80,1.95,-35.70,16.82
14169,7.73,-1.26,-45.07,-62.500,-636.230,587.402,-1.50,1.95,-35.40,16.77
14179,12.05,-1.27,-40.09,316.406,-377.441,1239.258,-1.50,1.95,-35.40,16.91
14189,9.33,5.00,-43.39,-447.266,-563.477,321.777,-1.50,1.95,-34.20,16.62
14199,1.59,5.42,-34.50,-188.477,-212.402,1122.070,-1.65,1.65,-33.30,16.38
14209,13.37,3.66,-33.68,-119.141,-1343.750,1016.113,-1.65,1.65,-33.30,16.77
14219,-11.71,3.17,-45.04,-345.215,-703.125,1164.551,-1.65,2.10,-34.05,16.96
14229,-15.06,4.05,-39.40,-226.562,-532.715,852.051,-1.50,1.50,-33.45,16.72
14241,-5.63,1.76,-23.78,-29.297,-985.352,845.215,-2.25,1.95,-34.95,16.82
14251,3.38,4.02,-46.50,-198.730,-687.988,766.113,-0.75,1.95,-33.90,16.77
14266,15.11,7.10,-39.89,-250.000,-441.406,1017.090,-1.05,3.15,-33.45,16.38
14275,21.69,11.76,-47.11,14.160,-1078.613,961.426,-1.20,2.55,-34.05,16.38
14285,7.09,5.09,-41.53,-296.875,-559.082,1027.344,-1.20,2.55,-34.05,16.82
14295,-5.78,11.26,-46.28,39.063,-802.246,820.801,-0.90,2.10,-33.00,16.91
14306,-29.18,7.07,-46.29,-224.609,-139.648,1060.547,-1.50,2.25,-34.20,16.77
14316,-14.69,-3.41,-46.99,-54.688,-1033.203,1707.520,-0.75,2.70,-34.20,16.72
14326,-20.85,10.37,-42.63,-206.543,-389.648,323.242,-1.20,1.35,-33.75,16.62
14336,-11.72,-0.64,-45.07,-235.352,-1014.648,1058.594,-1.20,1.35,-33.75,16.48
14346,-11.04,5.90,-38.23,-162.598,-1.953,862.793,0.45,1.65,-33.30,16.43
14356,2.76,2.46,-40.02,-117.188,-814.941,945.312,0.30,-0.30,-34.20,16.62
14366,-19.50,0.81,-46.53,-409.668,125.977,511.719,0.30,-0.30,-34.20,16.58
14378,-24.28,5.07,-34.12,-470.215,-1639.648,1999.939,1.80,0.75,-34.20,16.72
14388,-30.77,-10.01,-48.34,-64.941,-444.336,494.141,1.20,1.35,-34.05,16.72
14398,-7.92,-7.56,-47.05,-484.375,161.621,704.590,1.65,0.90,-34.05,16.48
14408,19.41,-12.86,-35.78,-76.172,-421.875,1005.371,1.20,0.45,-33.75,16.58
14418,32.33,-16.74,-46.15,-194.336,-1163.086,1826.660,1.20,0.45,-33.75,16.38
14428,16.20,-20.92,-36.55,-496.094,-1359.863,671.387,1.05,1.05,-33.90,16.91
14440,20.76,-6.11,-49.15,295.410,-1637.695,1657.227,0.75,0.00,-34.95,16.48
14450,-9.61,-20.21,-72.93,-162.109,-1762.695,1999.939,0.45,1.65,-34.05,16.48
14460,-5.68,-19.60,-56.59,-20.996,-636.230,1245.605,1.80,1.05,-34.20,16.62
14470,5.29,-28.84,-79.38,-779.785,-1365.723,1999.939,1.05,0.30,-33.90,16.77
14480,7.21,-31.79,-50.83,117.676,-848.633,323.242,1.05,0.30,-33.90,16.82
14490,16.02,-29.66,-29.73,222.168,-670.410,807.129,0.90,0.45,-34.05,16.77
14499,-13.71,-47.16,-88.89,34.668,-1006.348,184.570,0.90,0.45,-34.05,16.62
14511,-23.05,-35.87,-47.45,-521.484,-1109.375,835.449,0.75,1.95,-34.20,16.62
14521,-25.08,-8.74,-41.69,134.766,-732.910,-23.437,1.65,1.35,-34.80,16.62
14531,-8.81,-25.79,-60.92,-11.719,-451.172,715.820,0.90,1.35,-33.75,16.77
14541,-33.00,-28.79,-56.08,-511.719,-1253.418,1999.939,2.25,1.50,-33.45,16.58
14551,-20.89,-14.98,-29.53,-477.539,-602.051,583.984,2.25,1.50,-33.45,16.72
14561,-15.81,-3.47,-49.51,-777.344,-330.566,1219.238,-0.15,0.90,-34.05,16.62
14571,5.56,2.03,-48.73,-392.578,95.703,1999.939,0.90,0.90,-35.25,16.62
14583,21.94,15.84,-39.24,60.059,-155.273,1029.785,0.90,0.90,-35.25,16.82
14592,15.55,24.02,-54.97,-326.660,-632.324,-46.387,1.80,0.75,-34.65,16.77
14602,5.18,19.18,-49.34,-301.758,-1068.359,1279.785,1.05,1.50,-35.70,16.82
14612,0.48,25.82,-52.27,-83.984,-1065.918,841.797,2.85,2.55,-34.50,16.72
14621,-12.27,23.45,-46.95,3.418,-934.570,1288.086,3.00,2.70,-36.60,16.72
14631,-7.65,19.76,-33.78,51.758,-343.262,301.758,3.00,2.70,-36.60,16.62
14640,-8.61,19.00,-41.26,-322.266,-166.504,1631.348,3.60,1.65,-35.25,16.77
14652,13.08,17.76,-44.91,159.668,-151.855,119.629,3.60,1.65,-36.30,16.82
14662,11.79,14.42,-43.31,142.578,-1485.840,249.023,3.60,1.65,-36.30,16.91
14671,0.55,8.61,-52.47,-325.195,-933.105,244.629,4.35,0.90,-36.00,16.62
14681,3.47,1.50,-54.46,-170.898,-752.930,948.242,4.80,0.45,-35.55,16.58
14690,6.69,0.41,-50.78,-400.391,-614.258,1550.781,4.20,1.05,-35.70,16.58
14700,-3.82,-4.11,-54.24,-88.379,-385.742,846.191,4.50,1.50,-35.40,16.96
14710,-1.53,-1.36,-55.37,-7.812,-1169.922,1129.883,4.50,1.50,-35.40,16.58
14722,1.51,-2.42,-50.34,-376.953,-787.598,1714.355,7.65,1.50,-35.70,16.77
14732,3.21,3.43,-50.73,-61.035,-254.883,200.195,5.85,2.10,-36.30,16.91
14741,-1.43,0.79,-53.07,2.930,-455.566,535.156,5.85,2.10,-36.30,16.43
14751,5.63,-4.63,-47.27,-216.797,-540.527,1132.813,6.30,1.35,-36.00,16.77
14761,-0.69,-5.66,-50.24,-194.824,-644.531,906.738,6.60,2.10,-35.25,16.77
14776,8.05,-0.22,-46.24,-106.934,-651.367,674.805,6.30,-0.15,-37.05,16.82
14785,-6.48,-4.37,-51.08,-316.895,-923.340,1415.039,7.35,1.65,-35.25,16.77
14798,-5.65,0.56,-43.15,-288.086,-314.941,1041.992,8.55,1.65,-35.55,16.77
14808,3.01,2.96,-49.38,-89.355,-724.121,183.105,7.65,0.75,-35.70,16.82
14818,4.28,-3.21,-52.48,-83.496,-1084.961,969.727,7.35,2.10,-36.00,16.96
14828,-1.18,-0.47,-48.13,-355.957,-635.254,885.742,9.30,2.55,-36.30,16.29
14838,3.30,1.08,-47.85,-119.629,-819.336,497.559,7.80,1.35,-36.30,16.91
14848,6.58,3.28,-53.24,-162.598,-904.785,854.492,9.00,1.35,-36.00,16.77
14857,-2.72,2.76,-57.86,-350.098,-663.086,1160.645,9.15,1.50,-36.15,16.77
14868,-2.08,4.66,-48.55,-254.395,-965.820,749.512,9.15,1.50,-36.15,16.77
14878,5.47,1.24,-47.07,-118.164,-1206.055,1411.133,9.30,0.45,-36.75,16.43
14888,-6.25,4.18,-49.95,-85.449,-357.910,1144.043,9.60,1.05,-35.70,16.58
14898,-2.50,1.70,-46.02,-217.285,-761.719,1568.359,9.15,-0.30,-36.90,16.77
14908,-4.23,2.21,-53.18,-443.359,-465.820,1003.418,10.65,1.95,-35.40,16.96
14918,-0.46,4.79,-53.68,-119.141,-583.008,867.187,10.65,1.95,-35.40,16.77
14928,-1.61,0.62,-46.00,-63.965,-562.500,803.711,9.00,-0.45,-36.30,16.58
14940,8.13,3.21,-52.11,164.062,-1032.227,718.750,10.50,-0.15,-35.55,16.82
14950,0.81,3.47,-50.73,-213.867,-737.305,1018.555,10.50,-0.15,-35.55,16.72
14960,6.63,2.15,-44.58,-186.523,-355.957,1102.051,9.60,0.30,-35.70,16.43
14970,-0.98,-1.44,-56.15,67.871,-330.078,604.004,10.95,0.90,-36.00,16.62
14980,0.02,2.21,-45.15,-245.117,-531.250,1510.254,11.40,-0.30,-37.65,16.72
14990,-1.47,0.40,-54.28,-68.359,-657.715,1827.637,11.10,-0.30,-36.15,16.77
15000,4.32,-3.57,-50.67,-250.977,-746.582,1146.973,11.10,-0.30,-36.15,16.62
15012,1.85,-3.48,-46.73,-71.289,-486.328,1279.785,11.85,0.75,-36.60,16.82
15022,-7.33,-1.55,-51.29,-126.953,-312.988,918.457,13.05,-0.75,-36.90,16.62
15032,-3.89,-9.46,-50.26,-191.406,-656.250,1709.473,13.05,-0.75,-36.90,16.72
15042,6.64,1.27,-49.87,-460.937,-321.777,699.707,12.60,-0.30,-36.60,16.77
15052,-8.46,-11.38,-48.04,-423.340,-97.656,1999.939,13.35,-0.30,-37.35,16.72
15062,-1.42,-3.56,-45.34,236.328,-523.437,584.473,13.05,-1.50,-37.35,16.77
15074,8.30,-11.95,-55.55,27.344,-557.617,715.332,12.60,0.00,-36.90,16.96
15084,-1.31,-6.04,-47.41,-318.848,-620.117,533.691,12.60,0.00,-36.90,16.62
15094,7.78,-5.29,-54.53,-366.699,-652.832,1485.840,12.60,-2.25,-36.60,16.77
15104,-6.01,-2.74,-40.73,62.500,-378.418,1493.652,13.80,-0.30,-36.60,16.77
15114,-9.34,-2.54,-47.72,-245.605,-421.875,1452.637,13.80,-0.30,-36.60,16.77
15124,0.24,-1.20,-42.53,73.730,-878.418,1670.898,13.80,-1.05,-37.35,16.48
15134,-11.76,-6.14,-55.97,-112.305,-523.926,755.371,13.35,-1.50,-36.60,16.77
15146,3.58,1.61,-42.08,103.027,-346.191,928.223,13.35,-0.30,-36.60,16.62
15156,-1.88,7.12,-48.18,-333.984,-135.742,683.594,13.35,-0.30,-36.60,16.77
15166,1.53,0.50,-40.20,-353.516,-586.426,778.809,14.70,-0.30,-36.60,16.91
15176,6.21,1.20,-39.65,198.730,-962.891,1127.930,15.45,-2.55,-36.75,16.82
15186,1.56,7.47,-43.48,190.430,-576.172,717.773,15.45,-2.55,-36.75,16.77
15196,2.22,4.82,-49.98,-294.922,-523.437,828.125,16.50,-1.50,-36.75,16.77
15206,10.18,6.72,-49.59,-71.777,-738.281,550.293,15.45,-2.55,-36.00,16.43
15218,0.53,4.12,-46.76,-17.090,-542.969,412.598,14.70,-2.10,-37.50,16.91
15228,-2.16,0.21,-50.53,41.504,-841.797,968.750,16.20,-1.65,-36.75,16.58
15238,0.37,3.60,-56.68,-258.789,-594.727,1999.939,16.20,-1.65,-36.75,16.72
15248,6.88,-4.02,-52.56,162.598,-688.477,1318.359,17.40,-1.65,-36.75,16.82
15258,14.25,2.33,-47.60,-341.309,-622.070,379.395,17.10,-4.05,-36.30,16.62
15268,6.87,1.66,-54.41,-155.762,-1091.797,1602.539,15.75,-2.70,-36.90,16.58
15278,-18.99,-0.24,-59.02,-121.582,-708.496,863.770,18.15,-2.55,-36.75,16.77
15301,5.49,6.07,-52.08,331.543,-353.516,1630.859,15.30,-2.70,-37.35,16.72
15311,2.55,1.90,-51.56,14.160,-420.898,542.480,15.90,-3.30,-36.00,16.62
15321,5.92,-3.30,-50.43,178.711,-664.551,1329.102,15.90,-3.30,-36.00,16.77
15331,0.18,4.86,-49.53,-293.945,-582.031,1701.172,16.50,-2.25,-36.15,16.62
15341,-7.72,-0.92,-54.83,111.816,-284.668,1285.645,17.25,-3.90,-36.90,16.77
15351,1.40,-0.64,-45.31,205.566,-613.281,506.348,16.65,-3.30,-37.80,16.91
15363,3.13,-1.57,-48.34,-217.773,-712.402,693.848,16.65,-5.70,-36.75,16.82
15373,-0.78,4.53,-49.24,-77.637,-510.742,8.789,16.65,-5.70,-36.75,16.82
15383,0.99,-4.66,-55.82,-127.930,-691.406,683.105,18.90,-2.85,-37.50,16.91
15393,-4.35,-0.47,-44.85,-177.246,-528.320,958.496,18.00,-5.85,-36.90,16.77
15403,2.34,3.94,-46.68,-362.305,-1033.691,537.598,18.00,-5.85,-36.90,16.72
15413,0.02,5.69,-47.34,29.785,-490.234,156.738,17.55,-4.65,-36.15,16.77
15424,6.22,6.86,-49.55,-38.574,-465.820,597.656,17.25,-5.10,-36.90,16.77
15434,8.64,4.29,-44.92,29.785,-485.840,343.750,17.55,-4.65,-37.35,16.91
15444,-7.13,4.76,-46.78,-668.457,-354.980,1633.789,18.60,-5.70,-37.05,16.91
15454,2.53,1.92,-53.08,-340.820,-989.258,1411.133,18.60,-5.70,-37.05,16.77
15464,-9.57,9.21,-47.85,-291.016,-174.316,1103.516,19.20,-4.65,-37.65,16.38
15474,-4.31,7.16,-44.50,-85.449,-504.395,768.066,18.75,-5.85,-37.65,16.62
15484,4.20,3.16,-45.26,-125.000,-533.691,1566.895,18.75,-5.85,-37.65,16.96
15496,3.44,1.53,-51.30,3.418,-476.074,737.793,18.60,-6.90,-37.80,16.82
15506,3.46,1.89,-49.27,-139.160,-425.781,1058.594,18.90,-5.70,-38.25,16.77
15516,3.65,-7.25,-49.21,-95.703,-425.293,1183.594,18.60,-6.15,-37.05,16.77
15526,-0.47,-4.11,-51.94,-133.301,-659.180,1188.965,19.65,-7.35,-37.05,16.82
15536,1.33,-7.08,-54.25,9.766,-629.883,574.707,19.65,-7.35,-37.05,16.58
15546,-0.99,-3.50,-49.02,82.520,-428.223,432.617,19.95,-5.85,-38.10,16.43
15556,-2.29,-5.97,-43.13,-27.832,-322.266,1276.855,19.20,-6.75,-37.65,16.58
15568,-7.69,-1.63,-44.44,-41.992,-363.281,486.816,20.25,-7.05,-37.65,16.62
15578,-5.24,-3.01,-44.04,-51.758,-628.906,1397.461,19.95,-7.05,-38.85,16.72
15588,-6.92,-3.35,-41.18,-154.785,-44.922,1136.719,20.85,-7.35,-37.80,16.77
15598,-3.87,0.44,-48.84,-111.816,-222.656,948.730,19.35,-6.90,-39.30,16.96
15608,1.24,-3.31,-43.85,-9.277,-712.891,1099.609,19.35,-6.90,-39.30,16.62
15618,-4.73,-4.80,-43.55,189.941,-164.551,740.234,20.55,-7.65,-37.80,16.82
15628,1.62,5.93,-48.22,18.555,-48.340,776.855,21.00,-7.50,-38.40,16.62
15640,11.85,0.88,-47.23,-9.277,-744.141,763.184,21.00,-7.50,-38.40,16.91
15650,9.46,-1.51,-44.24,-320.312,-360.840,1757.324,20.25,-7.50,-39.60,16.58
15660,8.48,-0.52,-46.60,-280.273,-561.035,969.727,20.70,-7.95,-39.15,16.58
15670,8.31,2.15,-48.44,45.410,-659.668,596.680,20.70,-9.15,-37.65,16.77
15679,2.66,-2.55,-46.31,-169.434,-883.789,783.203,20.85,-8.10,-38.55,16.72
15689,6.06,-3.95,-43.92,111.328,-567.871,937.500,20.85,-8.10,-38.55,16.77
15699,7.38,1.53,-41.12,245.117,-730.957,786.621,21.00,-9.45,-38.85,16.43
15711,2.69,-0.44,-51.27,-389.648,-503.906,797.852,21.30,-9.75,-37.80,16.77
15721,-2.47,-3.63,-41.95,108.398,-448.242,1369.629,21.30,-9.75,-37.80,16.24
15731,0.34,1.59,-44.11,-45.898,-462.402,1114.258,21.60,-8.55,-38.55,16.96
15741,-1.23,1.18,-43.15,85.938,-427.734,1425.781,20.85,-9.75,-38.25,16.72
15751,-4.28,2.99,-41.55,3.906,-258.789,412.109,21.60,-9.75,-38.55,16.77
15761,-6.87,4.43,-48.82,47.852,-216.797,1214.355,21.60,-10.95,-37.80,16.72
15773,-4.73,5.02,-45.19,-191.895,-159.668,471.680,21.60,-10.95,-37.80,16.82
15783,-3.39,2.42,-41.84,-145.020,-370.605,605.957,23.25,-10.05,-38.55,16.62
15793,-3.98,7.11,-41.69,-169.922,-219.238,960.449,21.60,-11.70,-38.55,16.72
15803,-7.14,4.06,-44.05,-152.344,-102.051,1249.512,20.85,-10.05,-39.00,16.58
15819,0.31,5.18,-41.85,-299.316,-609.375,1345.215,23.25,-10.95,-38.55,16.58
15828,-1.19,0.86,-48.52,-171.387,-629.395,1345.703,22.35,-9.75,-38.25,16.82
15838,0.22,9.27,-45.95,-173.340,-384.277,1001.953,23.40,-11.85,-39.15,16.72
15848,-0.69,11.51,-45.39,32.227,-20.020,976.074,23.40,-11.85,-39.15,16.77
15860,1.49,7.15,-43.59,226.074,-850.098,305.176,22.95,-11.55,-38.85,16.91
15870,-6.79,2.73,-64.68,-290.039,-524.902,811.523,23.40,-11.85,-39.60,16.91
15880,7.85,10.39,-42.51,28.320,-547.363,1092.285,23.55,-12.15,-38.55,16.77
15890,9.84,4.94,-43.05,-131.836,71.777,858.398,24.00,-12.90,-39.00,16.62
15899,12.80,6.30,-48.15,286.621,-821.289,798.828,24.00,-12.90,-39.00,16.77
15909,0.23,1.08,-43.72,-171.387,-666.992,1379.883,24.90,-10.65,-38.40,16.77
15919,-11.02,1.73,-51.17,-174.805,-649.902,729.492,23.70,-13.80,-40.35,16.82
15931,-5.77,-0.59,-43.11,197.754,-662.598,912.598,23.70,-13.80,-40.35,16.82
15941,-8.59,-2.69,-45.73,-214.844,-508.301,1223.633,23.55,-12.90,-39.00,16.96
15951,-1.19,-5.76,-40.66,61.523,-787.109,506.348,24.30,-13.20,-40.05,16.43
15961,-1.51,3.45,-44.84,-272.461,-375.000,556.152,24.60,-13.50,-38.40,16.77
15971,-2.22,-7.26,-53.11,-57.129,124.023,1453.613,22.05,-14.40,-40.50,16.82
15981,1.63,-3.84,-42.11,54.688,-545.410,999.023,22.05,-14.40,-40.50,16.77
15992,3.40,-6.76,-53.12,287.598,-753.906,1080.078,24.15,-14.25,-39.15,16.82
16002,-7.18,-5.01,-40.72,-513.672,-313.965,1607.422,24.15,-14.70,-40.35,16.77
16012,1.94,-1.28,-43.30,-111.328,-819.336,1503.906,24.15,-14.70,-40.35,16.91
16022,1.71,5.52,-43.35,-57.129,-480.469,788.574,23.40,-16.20,-39.60,16.72
16032,5.02,-1.57,-42.07,20.508,-652.832,1414.063,25.65,-14.70,-39.60,16.82
16042,-12.65,1.83,-47.08,-355.469,-289.062,1747.559,24.15,-15.45,-39.60,16.72
16052,-10.69,2.59,-49.23,85.938,-325.684,929.687,22.65,-15.45,-39.15,16.82
16064,-6.90,3.73,-45.46,10.742,-431.152,1075.684,22.65,-15.45,-39.15,16.96
16074,-0.76,-0.98,-47.11,-272.949,-312.012,1530.762,24.00,-18.00,-40.80,16.96
16084,5.05,-1.22,-38.73,294.922,-723.145,479.492,24.00,-15.30,-39.30,16.77
16094,1.37,0.32,-45.12,-192.871,-207.520,710.937,24.00,-15.30,-39.30,16.62
16104,-1.40,-4.19,-45.70,78.613,1.953,1421.387,24.60,-16.65,-40.35,16.48
16114,3.99,-8.78,-39.18,164.062,-821.289,690.430,25.35,-16.20,-39.60,16.77
16124,1.33,1.05,-40.60,215.820,-540.527,905.762,24.75,-18.00,-40.05,16.72
16136,5.67,-1.56,-36.42,74.707,-691.406,92.773,24.30,-16.05,-40.80,16.96
16146,-5.08,-1.76,-36.62,11.230,-164.062,575.684,24.30,-16.05,-40.80,16.62
16156,-10.19,-1.41,-33.69,-472.656,-109.863,1783.691,24.15,-18.30,-39.60,16.91
16166,0.12,-7.98,-43.60,7.812,-579.590,1034.668,24.15,-17.40,-39.90,16.77
16176,-4.97,3.07,-35.89,287.109,-72.266,837.891,24.15,-17.40,-39.90,16.77
16186,0.42,-0.22,-47.15,-221.191,1.465,1750.488,24.00,-17.70,-40.50,16.77
16198,1.44,7.31,-36.85,-34.668,-436.523,450.684,24.60,-19.80,-40.65,16.72
16208,-9.50,0.51,-42.43,-333.984,174.805,1427.246,24.60,-18.30,-40.35,16.48
16218,4.04,1.47,-33.66,296.387,-701.660,491.211,24.60,-18.30,-40.35,16.72
16227,4.04,-1.44,-35.19,1.953,-555.176,774.414,24.60,-18.30,-40.35,16.72
16237,5.75,4.58,-36.63,385.742,-551.758,796.875,23.55,-18.45,-40.80,16.82
16247,-0.19,0.16,-42.44,-19.531,-414.062,1321.777,25.50,-18.90,-39.00,16.62
16257,-1.67,1.63,-38.01,-165.039,-412.109,840.820,24.00,-19.65,-40.80,16.72
16269,-5.00,6.67,-43.54,-181.641,-303.711,943.848,24.60,-19.80,-38.85,16.38
16279,-1.60,-0.58,-42.51,-128.418,-598.633,1230.469,25.35,-19.50,-41.10,16.58
16289,2.20,4.49,-37.16,392.090,-292.480,629.395,25.05,-20.10,-40.50,16.77
16299,-2.67,5.70,-38.27,59.082,-558.594,1043.945,25.05,-20.10,-40.50,16.91
16309,-0.53,8.95,-42.26,-50.293,-213.379,886.230,25.35,-19.80,-41.10,16.82
16319,3.76,2.11,-39.24,-15.625,-512.207,717.285,24.90,-21.00,-39.60,16.91
16336,-0.34,1.65,-29.66,-407.715,-471.680,1840.332,24.15,-21.45,-41.40,16.48
16345,-2.44,0.03,-37.40,291.504,-378.906,291.992,24.60,-19.05,-40.65,16.48
16355,-11.15,-0.29,-38.69,-316.406,-651.367,1822.266,24.60,-19.05,-40.65,16.72
16365,-6.51,-1.23,-38.02,-138.184,-424.805,1844.238,25.65,-21.90,-40.65,16.96
16375,-2.18,-2.33,-40.43,187.988,-298.340,1123.535,25.05,-20.85,-39.00,16.91
16385,-4.30,6.85,-39.31,-87.891,-587.891,1626.953,25.05,-20.85,-39.00,16.91
16395,0.10,-1.36,-37.44,-221.680,-427.734,1052.246,24.90,-21.00,-40.65,16.72
16407,-2.37,7.05,-45.90,-266.602,-509.277,1795.898,25.05,-21.60,-40.50,16.96
16417,5.71,7.82,-31.21,243.164,-501.953,1301.758,24.75,-23.70,-40.50,16.77
16427,-1.77,9.40,-39.23,221.191,-819.336,995.117,23.40,-20.70,-40.65,16.62
16437,-13.23,7.33,-39.78,-216.797,358.887,803.711,23.40,-20.70,-40.65,16.62
16447,1.07,-2.63,-42.78,84.473,-1054.688,1004.395,24.75,-20.85,-42.00,16.77
16457,4.65,5.05,-42.17,139.648,-724.121,790.039,24.75,-21.60,-40.05,16.77
16466,-21.95,3.65,-39.70,-638.184,210.937,827.637,24.75,-21.60,-40.05,16.72
16477,6.70,-1.34,-45.82,268.555,-40.527,644.531,24.00,-22.80,-40.50,16.43
16487,8.55,-9.65,-41.91,81.055,-1225.586,1999.939,24.15,-23.10,-41.10,16.38
16497,1.12,8.42,-35.25,-25.879,-529.785,472.656,24.30,-24.90,-40.80,16.82
16507,-5.20,-3.95,-42.25,-128.906,-1141.602,1999.939,23.25,-22.05,-41.25,16.77
16517,-6.18,-4.14,-69.32,347.168,-697.754,248.535,23.25,-22.05,-41.25,16.77
16527,-11.92,-1.86,-38.81,-542.969,-592.773,1860.352,24.00,-24.45,-40.05,16.82
16539,-7.66,2.39,-33.04,-508.789,-187.012,403.320,23.40,-23.10,-41.10,16.77
16549,-2.60,-6.79,-33.14,-286.133,-335.449,1999.939,23.40,-23.85,-41.40,16.96
16559,-6.95,1.64,-39.75,25.879,-356.445,819.824,23.55,-23.25,-40.50,16.48
16569,-3.88,9.85,-39.37,-114.746,52.734,982.422,24.30,-25.20,-40.80,16.77
16579,5.20,-1.69,-30.57,370.605,-527.832,1014.160,23.55,-24.90,-41.25,16.77
16589,1.32,3.52,-42.83,78.125,-311.035,829.590,23.55,-24.90,-41.25,16.91
16598,-24.79,1.05,-44.66,-740.723,585.449,660.645,23.55,-24.90,-41.25,16.77
16610,-4.66,7.90,-39.60,-18.555,-427.734,765.137,23.55,-24.45,-41.25,16.72
16620,-5.28,-6.63,-39.97,249.023,-1080.566,1635.254,23.55,-24.45,-41.25,16.72
16630,2.97,-4.50,-49.34,-16.113,-464.844,541.504,23.70,-26.25,-39.90,16.72
16640,-12.54,-5.39,-31.82,-851.074,-201.172,1858.887,24.15,-24.60,-41.85,16.48
16650,15.40,-3.67,-41.94,807.617,-891.602,91.797,24.60,-25.50,-40.65,16.77
16660,-11.92,12.45,-30.53,-5.371,-187.500,732.422,22.95,-26.55,-41.10,16.91
16670,-0.44,-11.72,-38.20,231.445,-746.094,831.055,22.95,-26.55,-41.10,16.77
16682,-1.09,-5.47,-42.88,-147.461,-346.680,1999.939,22.65,-25.80,-40.65,16.62
16692,8.53,-3.26,-41.92,170.898,-509.277,815.918,22.65,-26.25,-40.65,16.72
16702,-1.99,-2.94,-51.79,-492.676,-545.410,1745.117,24.00,-25.20,-42.75,16.72
16712,12.20,-4.41,-46.15,109.375,-822.266,-69.824,23.70,-27.45,-40.35,16.62
16722,-15.63,4.67,-37.32,-218.262,209.473,701.660,23.70,-27.45,-41.40,16.91
16732,1.56,-4.45,-36.30,157.227,-797.852,951.172,22.20,-27.00,-41.10,16.58
16758,28.45,23.04,220.60,267.578,-396.484,767.090,23.70,-27.75,-39.15,16.82
16767,2.20,2.82,31.27,-146.484,-198.730,418.457,23.40,-27.45,-41.10,16.62
16777,-3.21,-2.64,-58.19,695.801,-1309.570,1478.516,22.35,-27.60,-39.75,16.77
16787,0.75,8.00,-74.74,-44.922,-427.246,881.836,22.20,-27.75,-41.40,16.77
16797,-7.13,0.37,-25.44,-101.563,-414.062,1999.939,23.55,-27.60,-42.45,16.91
16807,8.50,-2.37,-31.97,-205.566,-504.395,1083.496,23.55,-27.60,-42.45,16.58
16817,-5.24,-0.76,-31.05,40.039,-642.090,1999.939,22.05,-27.15,-42.00,16.82
16830,12.56,-4.83,-29.54,669.434,-877.930,937.500,21.90,-28.20,-40.35,16.91
16840,3.12,6.84,-38.66,-216.309,-400.391,1338.379,22.20,-28.20,-42.15,16.82
16850,10.60,-8.92,-44.58,199.707,-1315.918,1999.939,22.20,-27.45,-39.90,16.82
16865,-8.53,7.11,-18.03,-416.016,-496.094,1323.730,22.20,-30.60,-41.10,16.62
16874,-16.50,-0.81,-38.77,-533.691,-771.484,1999.939,22.05,-28.80,-41.55,16.91
16884,4.73,-1.47,-56.67,313.477,-671.875,754.883,22.05,-28.80,-41.55,16.82
16894,-17.40,2.37,-53.78,-1041.504,665.039,513.184,21.45,-31.80,-41.10,16.91
16906,-7.18,5.18,-14.82,-666.504,354.004,-387.695,21.60,-29.25,-41.25,16.77
16916,17.73,-4.27,-59.29,657.227,-870.117,-577.148,21.60,-29.25,-41.25,16.58
16926,-15.64,12.41,-40.05,-58.594,120.117,-193.848,22.05,-31.20,-40.80,16.72
16936,11.87,-4.09,-31.40,877.930,-1173.340,-395.020,20.25,-28.95,-41.85,16.58
16946,-16.20,4.79,-47.22,-802.734,857.422,1242.188,20.25,-29.85,-40.65,16.77
16956,3.43,-11.53,-38.14,736.816,-972.656,642.090,21.45,-31.05,-41.85,16.96
16968,24.13,-9.07,-35.03,1003.906,-1112.305,-436.035,21.45,-31.05,-41.85,16.82
16978,-8.92,8.21,-45.73,-181.641,223.633,85.449,21.30,-30.45,-40.05,16.72
16988,11.43,-13.03,-40.99,695.801,-1620.605,-329.590,21.30,-31.20,-40.05,16.96
16998,-6.21,8.48,-43.07,-692.383,-67.383,602.539,21.30,-31.20,-40.05,16.91
17008,15.24,-8.43,-43.10,1113.770,-903.320,1620.605,20.25,-29.85,-39.15,16.62
17018,-4.44,10.48,-42.49,-594.727,42.969,1013.184,21.30,-31.95,-41.25,16.77
17028,13.84,-11.05,-40.89,198.242,-836.426,1999.939,20.10,-30.00,-41.25,16.82
17039,-22.58,-3.60,-49.34,-526.855,606.934,290.527,21.60,-31.65,-40.05,16.77
17049,13.66,-3.33,-31.92,218.750,-684.082,143.555,21.60,-31.65,-40.05,16.96
17059,-25.12,-2.63,-28.71,-945.312,697.266,1660.645,19.65,-29.55,-41.25,16.91
17069,14.82,-9.56,-36.38,298.340,-364.258,141.602,19.65,-29.55,-41.25,16.77
17079,-14.75,0.49,-34.47,-406.738,608.398,-62.500,19.65,-29.55,-41.25,16.72
17089,23.15,-4.36,-42.62,936.523,-1177.246,-1423.340,19.65,-31.95,-40.50,16.62
17101,15.89,-7.18,-25.91,172.852,-1092.773,-405.273,19.50,-33.45,-39.90,16.62
17111,-13.37,3.15,-46.49,64.941,-642.090,1663.086,19.50,-29.85,-41.40,16.48
17121,13.37,-8.40,-35.64,-116.699,-200.684,333.984,19.50,-29.85,-41.40,16.77
17131,-15.36,-19.51,-24.00,-92.773,-1263.672,1999.939,19.65,-34.05,-40.80,16.82
17141,7.60,10.03,-51.33,-125.000,-178.711,534.668,19.95,-31.80,-40.65,16.91
17151,-4.44,-2.53,-31.63,382.324,-1211.914,1999.939,18.45,-31.80,-40.65,16.62
17161,5.53,3.15,-43.22,-433.105,115.234,979.492,19.20,-34.20,-41.85,16.48
17173,1.11,4.12,-40.79,-216.309,32.227,1248.535,18.45,-31.80,-41.40,16.82
17183,11.55,-13.79,-25.69,388.184,-1428.223,1999.939,19.20,-33.00,-41.40,16.77
17193,-1.30,5.37,-27.47,-457.520,-374.512,766.602,18.45,-34.20,-40.35,16.72
17203,10.45,-6.70,-41.16,806.152,-1118.164,1999.939,18.45,-34.20,-40.35,16.62
17213,-15.01,3.25,-37.00,-571.289,350.586,497.559,18.45,-33.00,-40.35,16.91
17223,15.82,-13.21,-31.95,908.691,-947.266,1703.125,18.00,-34.95,-39.90,16.91
17233,-9.89,7.60,-36.43,-606.445,152.832,307.617,17.85,-33.60,-41.55,16.58
17245,-13.76,5.86,-31.50,-587.402,236.816,582.520,18.00,-33.45,-39.90,16.91
17255,23.51,-2.50,-41.29,845.703,-1067.871,323.242,18.00,-33.45,-39.90,16.82
17265,-14.27,6.21,-32.34,-155.762,-5.371,-47.852,17.85,-33.15,-40.05,16.48
17275,16.05,-5.51,-39.68,219.238,-937.012,-672.852,18.90,-32.85,-40.05,16.77
17285,-33.66,-0.56,-30.93,171.387,771.484,527.344,18.90,-32.85,-40.05,16.77
17295,-8.95,-9.48,-26.40,-154.785,636.719,957.031,17.40,-34.05,-41.25,17.01
17307,-4.09,-2.91,-54.17,-640.137,262.207,896.484,17.10,-32.85,-40.80,16.72
17317,20.21,-4.77,-30.64,495.605,-1029.785,1699.707,18.60,-35.55,-40.05,16.77
17327,-5.37,2.31,-36.60,-380.859,-422.363,39.551,18.75,-36.15,-41.40,16.91
17337,18.62,-6.77,-35.95,236.328,-750.977,-372.070,18.75,-36.15,-41.40,16.91
17347,-10.89,-4.02,-36.62,466.797,-398.437,1275.391,17.10,-33.60,-39.75,16.62
17357,6.15,-4.73,-41.28,-262.695,25.879,1023.437,16.80,-36.15,-40.35,16.91
17367,3.08,-6.15,-27.93,270.020,-1399.414,1999.939,16.80,-36.15,-40.35,16.72
17384,8.37,-4.58,-42.77,147.949,-899.414,1999.939,16.65,-36.75,-39.30,16.58
17393,-2.17,4.37,-36.76,-294.922,-91.797,847.168,15.45,-33.60,-40.05,16.96
17403,16.91,2.11,-34.64,588.379,-1020.996,1179.199,16.80,-33.45,-40.35,16.72
17412,1.31,-1.40,-38.41,-498.047,127.930,304.687,16.80,-33.45,-40.35,16.48
17422,14.21,-2.91,-26.08,548.340,-1141.113,723.145,17.10,-35.25,-39.00,16.72
17434,15.60,-9.54,-32.18,371.582,-1124.023,171.875,17.25,-32.55,-39.90,16.72
17444,-17.78,2.72,-33.23,-171.387,136.230,685.547,17.25,-32.55,-39.90,16.77
17454,11.71,-1.54,-27.02,-306.152,-349.121,621.094,15.30,-34.20,-39.60,16.77
17464,2.66,-1.76,-29.96,719.727,-1009.766,1844.727,16.20,-34.05,-40.50,16.91
17474,-11.96,2.81,-27.93,-245.605,-81.055,313.965,16.05,-35.40,-39.90,16.77
17484,4.92,-6.96,-37.61,604.980,-843.750,1187.500,14.55,-36.15,-39.90,16.38
17494,-22.23,-2.70,-36.89,-104.004,700.684,818.359,14.55,-36.15,-39.90,16.29
17506,5.44,-1.07,-35.61,-174.316,-940.430,1865.234,16.05,-35.85,-39.90,16.77
17516,2.09,-3.69,-46.60,-541.016,-479.980,1192.871,15.75,-36.15,-39.15,16.58
17526,5.76,-0.56,-32.21,619.629,-836.426,1547.363,15.75,-36.15,-39.15,16.77
17536,-15.02,-2.15,-38.00,-326.660,8.301,320.312,16.65,-36.00,-39.75,16.82
17546,5.00,-5.98,-28.42,111.816,-682.617,302.734,14.85,-36.15,-39.15,17.01
17556,-13.26,0.64,-37.54,233.887,-356.934,1103.027,14.70,-34.80,-40.50,16.77
17566,-1.13,1.34,-36.73,-210.449,-272.949,1017.578,14.10,-34.65,-39.15,16.82
17578,6.81,-0.72,-33.35,-281.738,-340.332,628.418,14.10,-34.65,-39.15,16.77
17588,12.05,5.79,-26.73,280.762,-202.148,560.059,13.80,-36.60,-39.90,16.43
17597,-11.81,0.07,-34.48,-621.094,12.695,1552.246,14.10,-35.40,-38.85,16.72
17607,4.16,4.07,-27.89,461.914,-948.730,1136.230,15.90,-37.20,-39.00,16.77
17616,-8.24,3.15,-39.17,-1023.926,-33.691,1544.922,14.40,-36.75,-37.80,16.58
17626,7.02,10.44,-29.55,913.574,-163.086,262.207,13.50,-35.25,-39.30,16.58
17637,8.98,-2.98,-33.00,106.445,-199.707,1441.406,14.70,-34.80,-40.50,16.62
17647,6.11,3.30,-43.12,248.047,-171.875,809.570,14.55,-37.80,-37.65,16.77
17657,-1.73,4.56,-34.19,-344.727,-263.672,929.199,14.55,-37.80,-37.65,16.77
17667,5.67,0.33,-23.94,438.965,-768.555,1987.793,13.50,-34.35,-39.75,16.91
17677,-0.56,8.80,-32.98,-29.297,-302.246,951.172,13.50,-36.45,-39.30,16.77
17687,-2.37,2.60,-29.55,68.359,-491.211,1249.023,13.20,-35.55,-38.55,16.91
17697,0.76,6.75,-33.15,497.559,-582.520,368.164,14.10,-34.65,-38.10,16.72
17709,0.69,0.92,-26.24,463.867,-736.816,1570.801,14.10,-34.65,-38.10,16.91
17719,-3.84,8.89,-34.48,-40.527,-623.535,-35.156,13.50,-36.75,-39.00,16.62
