Time_ms,GyroX_degps,GyroY_degps,GyroZ_degps,AccelX_g,AccelY_g,AccelZ_g,MagX_uT,MagY_uT,MagZ_uT,Temp_C
1359,-0.89,0.06,-0.94,62.012,22.949,990.234,-23.55,-12.15,-33.30,16.24
1396,-1.26,-0.85,1.70,82.520,0.977,1035.156,-23.40,-10.35,-31.95,16.62
1406,0.01,-2.82,-1.35,95.215,6.836,1004.395,-23.40,-10.35,-31.95,16.29
1416,-2.08,-0.02,0.27,63.965,39.551,1015.625,-23.55,-10.95,-33.00,16.38
1426,-0.28,-0.37,-2.62,-4.395,32.227,1019.043,-23.55,-11.25,-31.50,16.05
1436,-1.27,-1.27,-1.24,89.844,8.301,1033.203,-23.55,-10.50,-33.30,16.24
1446,-1.18,-2.47,1.19,115.723,49.316,999.023,-23.70,-11.55,-33.45,16.43
1456,1.63,-1.33,1.81,107.422,39.551,1086.426,-23.70,-11.55,-33.45,16.24
1469,-1.47,0.15,-1.00,74.219,27.832,991.699,-24.15,-11.55,-31.65,16.29
1479,-0.73,0.37,-0.14,38.086,27.832,1017.090,-23.55,-12.15,-31.05,16.38
1489,0.22,-0.46,0.31,90.820,8.301,1048.828,-23.55,-12.15,-31.05,16.38
1499,-1.26,0.54,0.83,155.762,4.883,1023.437,-21.60,-11.25,-30.30,16.19
1508,-0.93,0.97,-0.31,108.398,38.086,994.141,-20.25,-9.90,-30.15,16.24
1518,0.29,-0.37,2.98,6.836,22.949,1073.730,-22.35,-10.50,-29.85,16.24
1527,-1.14,0.47,-1.46,83.496,20.508,1016.602,-21.90,-11.85,-28.65,16.48
1539,-2.54,-3.22,-2.11,131.836,27.344,1056.152,-21.90,-11.85,-28.65,16.38
1549,-1.28,-0.47,0.69,115.723,56.641,999.512,-20.25,-11.55,-29.70,16.38
1559,1.05,-1.73,0.37,52.734,18.555,1128.418,-19.65,-12.45,-28.80,16.48
1569,-0.40,0.43,-1.31,121.582,13.184,1035.645,-19.20,-11.55,-29.40,16.38
1579,-0.15,-1.92,1.08,171.387,31.738,991.699,-20.25,-10.35,-29.70,16.19
1589,-0.63,0.11,-3.45,51.270,38.574,914.062,-20.10,-10.05,-30.75,16.10
1599,-0.18,-0.09,1.48,82.031,49.316,1083.496,-20.25,-11.10,-31.65,16.43
1611,-1.78,-0.15,-3.50,178.223,57.617,970.703,-22.20,-11.85,-31.65,16.24
1621,0.66,-1.02,-0.95,109.375,9.766,1009.277,-22.20,-11.85,-31.65,16.48
1631,0.92,1.79,-2.34,-4.395,52.734,1109.863,-22.35,-10.50,-32.55,16.58
1641,-0.22,-1.72,-2.25,166.504,20.020,981.934,-23.70,-11.85,-34.20,16.48
1651,0.36,-0.28,-4.07,173.340,18.555,1006.836,-22.80,-9.30,-33.75,16.38
1661,-2.80,-1.17,-4.20,-1.465,27.344,1045.898,-25.80,-12.15,-33.30,16.24
1671,1.25,-1.66,-1.38,149.414,28.320,1124.023,-25.05,-12.45,-33.00,16.48
1683,0.22,-0.75,-1.41,144.043,52.734,991.211,-24.00,-10.95,-32.25,16.38
1693,0.98,0.04,-3.57,-39.551,48.340,1100.586,-24.00,-10.95,-32.25,16.38
1703,-1.09,-2.54,-0.65,241.211,-22.949,1000.488,-21.30,-11.25,-29.85,16.24
1713,-0.98,-1.08,-0.76,111.816,29.297,952.637,-20.55,-11.70,-29.10,16.43
1723,-0.69,0.60,-3.94,1.953,-8.789,1114.258,-20.55,-11.70,-29.10,16.24
1733,-0.18,-0.30,-0.12,299.316,53.223,937.500,-18.75,-11.85,-28.95,16.38
1743,1.97,-0.24,-1.10,-22.949,34.668,1034.180,-18.75,-11.85,-28.95,16.48
1755,3.01,-3.69,-0.70,279.785,-47.363,1072.754,-19.50,-12.30,-29.40,16.29
1765,-1.26,0.60,-1.83,108.887,36.133,867.187,-20.70,-11.55,-30.15,16.38
1775,-1.16,1.31,-0.88,39.063,98.145,1095.215,-20.70,-11.55,-30.15,16.48
1785,-0.56,-0.98,-1.78,263.672,3.906,877.441,-22.80,-12.45,-33.30,16.38
1795,3.27,-1.08,3.40,14.160,-19.531,1213.379,-23.40,-10.65,-33.45,16.38
1805,-0.22,-0.76,1.63,270.020,-16.602,913.574,-23.55,-11.25,-33.75,16.58
1815,2.82,1.23,-5.21,56.641,-116.211,951.660,-25.05,-11.70,-33.30,16.29
1827,-1.54,-4.12,-1.29,331.055,109.863,1002.441,-25.05,-11.70,-33.30,16.38
1837,0.18,-1.07,-2.19,-94.238,-0.488,1100.586,-24.30,-13.20,-31.50,16.29
1847,0.33,0.08,2.09,224.121,59.570,1284.668,-22.35,-11.25,-29.55,16.19
1857,1.82,-1.67,-4.07,19.043,-51.270,780.273,-22.35,-11.25,-29.55,16.38
1867,-0.34,1.40,-2.72,112.305,-156.250,1403.809,-21.00,-13.50,-28.95,16.48
1877,-0.95,0.23,1.39,21.973,161.133,710.937,-18.60,-11.70,-27.60,16.58
1886,-0.14,-1.39,1.54,129.395,14.648,1523.438,-18.60,-11.70,-29.85,16.19
1910,-1.82,1.06,-4.76,223.145,-112.793,1216.309,-20.25,-11.55,-30.90,16.10
1919,-2.10,0.75,0.44,159.668,98.145,687.012,-24.30,-11.25,-33.75,16.29
1929,-0.02,-0.28,0.69,208.984,-30.273,1162.598,-24.00,-12.45,-32.55,16.38
1939,2.55,0.27,-3.60,110.352,56.641,797.852,-24.00,-12.45,-32.55,16.48
1949,1.40,-0.41,2.05,190.430,-68.848,1290.527,-25.05,-12.45,-31.50,16.43
1959,-1.12,0.47,-3.27,120.605,76.660,890.137,-22.05,-13.65,-30.30,16.48
1970,-1.32,-1.48,-2.98,76.660,-20.020,1017.578,-21.00,-13.50,-28.20,16.72
1980,0.48,1.08,0.76,240.234,6.348,1153.809,-19.65,-12.45,-27.60,16.62
1989,-2.11,-1.14,-2.03,72.266,41.992,962.402,-19.65,-12.45,-27.60,16.48
1999,0.54,-1.16,0.39,234.863,-10.254,1149.414,-19.65,-11.70,-29.10,16.58
2009,0.15,-0.21,-1.86,10.254,150.391,874.023,-20.70,-12.75,-31.20,16.48
2019,0.12,-1.10,1.25,176.270,-96.191,1004.395,-20.70,-12.75,-31.20,16.29
2029,1.18,4.13,-4.50,189.453,61.035,1110.840,-23.40,-11.55,-31.65,16.38
2041,-2.39,1.29,-0.98,116.699,105.957,894.531,-25.80,-12.90,-31.80,16.62
2051,-3.58,2.08,-1.93,68.359,-28.320,1221.680,-25.05,-11.70,-29.55,16.62
2061,1.77,2.24,-0.81,194.336,109.375,1013.184,-22.35,-13.20,-28.35,16.10
2071,-0.23,3.75,-1.27,113.770,-3.418,989.746,-22.35,-13.20,-28.35,16.38
2081,-2.13,-0.76,-0.49,96.191,47.852,1069.336,-18.90,-12.90,-26.85,16.58
2091,-2.04,3.53,-3.79,208.984,-45.898,982.422,-18.90,-12.90,-27.60,16.43
2101,-3.67,1.20,-3.26,178.223,23.926,1179.688,-21.60,-12.15,-29.10,16.58
2113,-0.75,-0.22,-5.05,153.320,155.762,906.250,-24.00,-12.45,-31.50,16.24
2123,-0.62,0.03,-2.05,120.117,-119.141,1041.504,-23.40,-12.75,-33.15,16.43
2133,-2.40,-1.31,-2.60,272.461,23.926,1002.441,-26.70,-13.20,-30.30,16.48
2143,-1.29,-1.07,-4.05,199.219,91.309,1052.246,-23.40,-12.75,-29.70,16.38
2153,-0.53,-0.32,1.78,220.215,15.625,1071.777,-23.40,-12.75,-29.70,16.48
2163,-0.53,-1.69,-1.31,4.883,121.582,1095.703,-19.50,-13.05,-25.95,16.62
2175,-1.08,0.27,-0.16,193.848,-55.176,1003.418,-20.70,-11.85,-29.40,16.62
2185,-0.74,1.26,-5.58,234.375,50.781,1084.961,-23.40,-10.65,-32.40,16.62
2195,2.97,0.11,-0.92,232.422,118.164,859.375,-23.40,-10.65,-32.40,16.38
2204,3.71,-1.82,-0.18,223.633,-104.980,1256.348,-24.75,-12.45,-31.50,16.43
2214,1.46,-0.62,-0.79,68.848,185.547,999.023,-20.85,-11.70,-27.30,16.24
2224,3.73,-4.52,-1.73,266.113,-80.078,1102.051,-20.85,-11.70,-27.30,16.58
2234,0.95,-2.53,2.21,152.832,-45.898,855.469,-18.60,-12.15,-26.85,16.58
2246,-1.20,-3.68,-2.08,168.945,-83.008,1320.801,-21.90,-11.85,-28.95,16.48
2256,-0.63,-2.80,-2.42,67.383,1.953,1078.613,-24.30,-11.25,-32.25,16.58
2266,1.79,-0.76,-1.60,311.035,-15.137,915.527,-25.35,-12.75,-31.65,16.58
2276,1.94,2.47,-1.88,251.953,-73.242,1103.027,-25.35,-12.75,-31.65,16.72
2286,-2.35,1.18,0.59,237.793,34.668,907.715,-21.30,-13.65,-27.60,16.24
2295,1.06,0.90,-3.76,266.113,-17.578,1121.094,-18.90,-12.45,-25.80,16.62
2305,-2.18,2.88,-2.53,188.965,132.324,1100.586,-18.90,-12.45,-25.80,16.77
2317,-1.92,-1.67,-1.93,150.391,46.875,955.566,-22.65,-11.55,-31.20,16.62
2327,1.98,-0.37,-3.44,291.992,-0.488,1123.535,-26.40,-9.90,-32.40,16.58
2337,0.42,-2.85,-2.86,173.828,36.621,1090.332,-26.85,-12.30,-31.65,16.29
2347,-0.27,-2.74,-3.25,314.941,-29.785,845.703,-22.65,-12.30,-28.20,16.48
2357,-1.61,-4.95,-3.70,290.039,-6.348,1097.168,-22.65,-12.30,-28.20,16.38
2367,-4.27,-1.10,-3.78,82.031,169.434,968.262,-19.50,-10.35,-28.20,16.58
2377,0.60,-4.37,-3.73,270.508,51.270,1116.211,-22.95,-10.65,-31.20,16.58
2389,2.66,-0.45,-3.08,161.133,20.020,823.242,-22.95,-10.65,-31.20,16.58
2399,2.78,0.62,-2.02,211.426,-31.738,1226.563,-25.65,-11.10,-31.65,16.58
2409,0.98,0.63,-4.15,161.621,18.555,773.926,-20.85,-13.65,-28.80,16.29
2424,-4.39,2.24,-6.54,75.195,59.082,877.441,-19.65,-10.05,-29.10,16.62
2434,0.57,3.53,-4.31,283.691,47.852,814.453,-19.65,-10.05,-29.10,16.29
2444,-2.58,1.44,-5.40,179.687,-153.809,1000.000,-19.65,-10.05,-29.10,16.29
2454,-1.76,0.45,-3.42,171.875,84.473,900.391,-23.25,-10.95,-29.85,16.43
2466,1.26,-2.01,-3.80,283.691,-97.168,1319.824,-23.25,-10.95,-29.85,16.38
2476,1.14,-2.85,-7.09,48.828,-77.637,1253.418,-18.60,-10.50,-28.05,16.43
2486,-1.50,-2.13,-6.99,344.727,-25.391,875.977,-24.00,-10.50,-32.25,16.43
2496,1.60,0.31,-12.44,169.434,130.371,969.727,-25.65,-9.45,-34.20,16.38
2505,0.16,1.15,-11.83,207.520,11.230,790.039,-24.15,-11.10,-31.20,16.43
2515,-1.44,-0.14,-4.89,194.336,38.086,857.910,-24.15,-11.10,-31.20,16.58
2525,-2.66,1.37,-6.83,64.941,-21.973,1470.215,-18.15,-9.30,-29.10,16.62
2537,-0.78,1.79,-7.64,216.797,-3.906,1127.930,-23.25,-8.55,-33.00,16.62
2547,-1.02,4.50,-8.48,107.910,47.852,545.410,-25.50,-10.95,-33.00,16.38
2557,1.92,0.69,-7.84,311.035,-13.184,1253.906,-24.75,-11.25,-30.30,16.58
2567,-1.40,0.08,-6.47,340.820,-62.500,752.441,-19.50,-11.10,-27.15,16.58
2577,-2.43,2.55,-9.92,116.699,-127.930,1233.887,-19.20,-10.35,-28.95,16.58
2587,0.56,0.27,-8.56,333.008,109.375,1120.605,-24.00,-9.75,-33.30,16.38
2596,1.88,1.05,-13.89,216.797,-12.207,752.930,-24.00,-9.75,-33.30,16.62
2607,1.27,1.90,-9.83,349.121,-180.664,1122.559,-21.30,-12.90,-28.80,16.58
2617,-4.31,0.19,-8.28,104.980,54.688,726.074,-18.00,-10.35,-27.15,16.62
2627,1.39,0.39,-10.73,142.578,-52.246,1391.602,-21.90,-9.90,-31.65,16.62
2637,4.02,3.88,-11.11,273.437,9.766,839.355,-25.05,-10.95,-33.75,16.48
2646,-0.37,-0.37,-7.89,254.883,-256.348,824.707,-22.65,-10.65,-30.15,16.43
2656,-3.27,1.13,-11.73,270.508,5.859,1007.324,-18.15,-12.15,-27.60,16.77
2666,0.83,0.21,-13.98,172.852,-25.879,1007.324,-19.20,-9.15,-30.15,16.58
2678,-0.19,-2.07,-9.84,429.687,-79.590,1181.641,-19.20,-9.15,-30.15,16.38
2688,-1.75,2.20,-12.32,68.359,215.820,1127.930,-23.55,-11.70,-31.80,16.72
2698,-1.50,0.28,-12.80,213.867,141.602,1211.426,-20.10,-11.25,-28.35,16.77
2708,-1.47,1.11,-14.07,111.816,100.586,1119.141,-19.20,-7.95,-28.95,16.62
2718,0.35,-0.14,-11.92,99.121,-44.434,1113.770,-22.35,-8.10,-32.25,16.29
2728,-1.68,-0.69,-12.75,364.258,58.105,1069.824,-22.35,-8.10,-32.25,16.38
2738,-1.88,-0.39,-17.19,107.910,-23.437,1093.262,-18.75,-11.55,-27.45,16.43
2750,1.22,0.51,-18.36,208.496,-18.066,950.684,-16.65,-8.55,-28.35,16.29
2760,0.72,-3.02,-15.85,110.352,-190.918,957.520,-16.65,-8.55,-28.35,16.58
2770,-2.16,0.15,-13.82,202.637,-103.516,1255.859,-22.65,-10.65,-31.95,16.43
2780,-7.49,-2.48,-16.13,195.312,-285.156,1878.418,-18.15,-11.70,-27.60,16.38
2790,-1.71,-6.19,-15.72,-11.230,56.152,1221.191,-17.85,-8.10,-27.60,16.43
2800,-4.84,-4.06,-17.03,359.375,-163.574,916.016,-21.60,-8.55,-32.25,16.29
2812,-1.81,-1.89,-13.02,176.270,209.961,825.195,-21.60,-8.55,-32.25,16.38
2822,4.47,-5.73,-14.67,98.145,-63.477,1247.070,-18.75,-12.30,-27.90,16.43
2832,10.96,-1.54,-17.65,327.637,-53.711,587.402,-18.60,-10.05,-27.60,16.77
2842,5.98,-4.03,-14.97,80.566,-192.871,982.422,-18.60,-10.05,-27.60,16.58
2852,7.73,1.13,-14.60,306.641,-72.754,940.430,-22.20,-11.85,-28.65,16.58
2862,7.50,-0.98,-15.98,171.387,-287.598,1138.184,-18.60,-11.70,-25.80,16.48
2872,-0.89,1.27,-21.58,206.055,-191.895,1418.945,-20.25,-9.45,-28.95,16.58
2884,-8.08,3.15,-15.51,208.984,-67.383,468.750,-25.35,-8.70,-31.95,16.58
2894,-11.87,6.46,-17.47,463.379,-99.121,833.984,-25.35,-8.70,-31.95,16.43
2904,-6.88,1.16,-12.48,-4.395,344.727,1059.570,-18.60,-10.95,-26.55,16.58
2914,-3.23,-1.19,-17.27,131.836,163.574,1416.016,-22.80,-9.30,-31.05,16.58
2924,4.79,1.66,-16.15,364.746,-80.078,932.617,-22.80,-9.30,-31.05,16.62
2939,4.48,-5.34,-16.28,48.828,-247.070,1833.496,-19.65,-10.05,-28.05,16.38
2948,-9.04,-1.60,-14.21,278.320,-311.035,1065.918,-23.70,-9.90,-31.95,16.29
2960,-8.60,0.13,-14.12,141.602,-162.109,1106.934,-20.70,-13.50,-27.90,16.77
2970,-9.81,-2.02,-19.54,-39.551,-190.918,1232.422,-20.70,-13.50,-27.90,16.19
2980,-9.37,-3.47,-18.05,266.113,-233.887,1120.117,-22.95,-9.15,-30.90,16.43
2990,-0.58,-6.96,-20.93,301.270,81.055,783.691,-24.00,-11.70,-30.75,16.48
3000,2.48,-3.84,-19.40,74.219,55.664,1464.844,-24.00,-11.70,-30.75,16.58
3010,8.21,2.93,-22.86,147.461,191.406,1015.625,-22.05,-9.75,-29.85,16.29
3019,0.34,-7.04,-18.89,113.770,-418.457,1170.410,-24.60,-11.85,-31.20,16.58
3031,-0.77,-2.90,-20.57,511.230,-135.742,916.504,-20.10,-12.45,-27.60,16.38
3041,-4.34,-3.82,-22.69,73.242,-108.887,535.156,-19.20,-8.25,-28.95,16.29
3051,-3.58,-8.72,-21.37,111.328,-199.707,1201.172,-19.20,-8.25,-28.95,16.91
3061,1.76,-4.98,-22.50,140.137,-112.793,1735.352,-20.70,-12.30,-28.65,16.58
3071,0.27,-2.21,-16.80,19.531,-96.191,1474.121,-16.80,-9.15,-28.20,16.72
3081,-1.00,0.22,-23.25,168.457,39.551,902.344,-16.80,-9.15,-28.20,16.77
3091,-0.13,6.40,-21.08,-116.211,361.816,854.980,-20.10,-10.95,-29.85,16.62
3103,3.18,-1.01,-22.80,-78.125,-243.164,1664.551,-17.55,-7.50,-27.45,16.72
3113,7.30,1.95,-18.24,385.742,-764.160,1774.414,-24.15,-8.25,-31.95,16.48
3123,-1.26,3.98,-21.28,-7.324,48.828,932.617,-21.60,-11.25,-29.85,16.29
3133,1.08,-0.90,-26.33,139.648,-121.582,881.348,-21.60,-11.25,-29.85,16.48
3143,2.05,3.72,-19.12,120.605,-117.188,895.020,-23.25,-8.55,-32.55,16.72
3153,-26.82,-2.34,-39.69,37.598,-20.996,1505.371,-21.90,-10.35,-30.15,16.43
3165,5.23,-6.02,-19.48,20.020,-271.973,1238.281,-18.45,-8.70,-28.20,16.62
3175,3.32,-5.86,-21.01,271.973,-353.027,1037.109,-21.60,-10.50,-30.30,16.72
3185,0.92,-6.85,-23.66,390.137,-246.094,1850.098,-21.60,-10.50,-30.30,16.58
3195,-1.22,-0.43,-20.27,185.547,-252.441,723.633,-16.80,-7.05,-26.70,16.29
3205,-0.66,-2.92,-23.91,138.184,-203.613,1394.531,-21.60,-7.35,-32.25,16.48
3215,-6.77,2.08,-22.13,195.801,-74.219,585.449,-21.60,-7.35,-32.25,16.58
3225,-3.73,1.23,-19.04,360.840,-155.762,832.520,-17.40,-7.65,-28.80,16.58
3237,2.11,2.96,-23.44,440.430,-8.789,1084.961,-19.50,-9.45,-28.95,16.58
3247,-0.26,0.47,-21.79,112.305,-476.074,1273.438,-17.40,-5.70,-28.80,16.96
3257,-7.84,-2.53,-23.72,353.516,-327.148,1290.039,-17.40,-5.70,-28.80,16.48
3267,-8.50,-3.69,-21.22,263.672,99.121,529.297,-19.50,-9.90,-28.20,16.82
3277,6.36,-13.34,-22.12,242.187,-493.652,974.121,-19.50,-5.10,-31.20,16.38
3287,-4.24,-11.82,-26.59,-152.832,-49.316,1436.035,-19.50,-5.10,-31.20,16.48
3297,0.11,-13.90,-25.42,361.816,-243.164,1349.121,-17.25,-7.95,-26.70,16.48
3309,5.11,-10.27,-23.00,326.172,-448.242,733.887,-21.00,-6.30,-31.65,16.48
3319,-1.56,-6.40,-28.24,-129.395,-133.301,1206.543,-20.55,-8.10,-30.30,16.82
3329,-3.44,-1.32,-21.81,-66.406,20.996,802.246,-18.00,-4.65,-27.45,16.62
3339,1.31,0.92,-23.40,315.918,46.387,844.238,-18.00,-4.65,-27.45,16.43
3348,-7.31,5.16,-25.97,-117.676,290.527,958.984,-19.35,-9.30,-26.85,16.38
3358,5.22,6.55,-27.24,117.676,-64.453,876.953,-17.40,-4.05,-29.10,16.48
3368,9.66,2.50,-26.37,164.062,-143.555,1233.887,-17.40,-4.05,-29.10,16.62
3380,1.11,12.21,-23.73,252.441,-83.984,794.434,-17.40,-8.10,-28.35,16.58
3390,1.31,6.89,-17.77,-239.746,-257.324,764.648,-20.25,-4.35,-30.15,16.62
3400,-2.89,4.31,-28.29,634.277,-486.328,1004.883,-20.85,-7.35,-30.75,16.72
3410,-9.72,5.24,-30.27,116.699,-146.973,1027.344,-16.65,-5.25,-27.60,16.58
3420,-3.22,1.58,-20.55,414.551,-424.316,1697.266,-16.65,-5.25,-27.60,16.62
3430,-3.86,-0.02,-27.97,252.441,-506.348,1268.555,-17.40,-7.65,-26.85,16.43
3440,3.42,-3.04,-28.80,175.293,-358.398,1606.934,-18.75,-4.65,-28.65,16.82
3457,4.54,-4.98,-25.29,294.922,-594.238,914.062,-16.65,-6.90,-27.60,16.48
3466,1.21,-5.40,-29.17,27.832,-275.391,1245.605,-20.55,-5.70,-31.05,16.58
3476,-1.65,-1.97,-32.40,9.277,-23.926,1220.215,-18.75,-5.70,-31.05,16.58
3486,-0.97,-2.15,-31.96,313.965,-273.437,841.797,-16.80,-5.10,-29.70,16.77
3496,2.26,-5.88,-28.42,21.484,304.687,1366.699,-16.80,-5.10,-29.70,16.38
3506,10.41,-6.34,-25.94,429.199,-230.957,1251.953,-16.05,-6.30,-29.70,16.48
3516,2.62,-2.51,-29.68,-157.715,-78.125,809.082,-20.25,-5.55,-31.65,16.82
3528,1.73,-3.89,-30.82,584.473,-571.777,963.867,-18.00,-8.25,-28.20,16.58
3538,-16.43,1.57,-30.71,-72.754,354.980,722.168,-17.55,-3.90,-29.70,16.82
3548,-2.24,-4.08,-29.34,427.734,-364.746,972.168,-19.95,-7.95,-31.20,16.72
3558,-11.41,3.76,-33.28,93.262,-103.516,436.523,-15.90,-5.70,-27.30,16.77
3568,-1.64,0.61,-21.54,74.707,-291.504,794.922,-19.35,-5.70,-31.50,16.48
3578,-1.64,7.73,-28.79,-63.477,140.137,495.605,-19.35,-5.70,-31.50,16.38
3588,11.27,-3.40,-36.24,83.496,-520.996,1136.230,-16.80,-4.65,-31.20,16.91
3600,15.63,-1.82,-27.95,384.766,-872.070,1435.547,-18.45,-8.25,-30.45,16.43
3610,-0.83,7.96,-27.53,163.086,-408.691,756.348,-15.75,-5.85,-27.15,16.48
3620,-7.07,2.04,-28.72,190.430,-479.004,872.070,-19.20,-5.85,-31.65,16.62
3630,-12.63,0.33,-27.87,300.781,-399.902,1636.719,-19.20,-5.85,-31.65,16.72
3640,-5.89,-3.56,-34.60,431.641,-847.656,330.566,-17.55,-3.90,-30.90,16.38
3650,-3.89,-4.54,-28.62,249.023,-3.906,1567.383,-16.05,-7.05,-28.95,16.48
3660,0.11,-0.95,-32.64,-3.906,-130.859,282.227,-16.05,-7.05,-28.95,16.48
3672,4.46,-0.91,-39.06,38.574,-40.527,614.258,-18.15,-7.65,-28.80,16.91
3682,5.12,-6.09,-35.13,375.488,-62.988,1509.766,-16.20,-4.50,-29.55,16.43
3692,1.30,-0.34,-35.29,111.328,-381.836,636.230,-18.75,-5.10,-31.20,16.77
3702,-1.49,-0.48,-36.46,60.059,-387.207,562.500,-16.05,-5.55,-27.15,16.72
3712,1.70,-7.53,-32.02,291.504,-108.887,1850.098,-16.05,-5.55,-27.15,16.72
3722,-10.03,9.27,-34.22,74.219,41.504,465.820,-16.05,-7.05,-27.90,16.58
3732,1.48,1.31,-34.60,429.687,-390.137,527.344,-17.10,-2.85,-29.55,16.77
3743,2.43,-0.39,-30.92,339.844,15.625,1999.939,-17.10,-2.85,-29.55,16.72
3753,6.64,3.13,-34.27,55.664,-469.727,1106.445,-15.30,-2.25,-28.95,16.58
3763,-0.48,9.73,-34.18,-57.129,154.785,1180.176,-18.75,-5.85,-30.45,16.82
3773,7.11,2.77,-33.42,291.504,-93.262,861.816,-14.40,-2.10,-28.80,16.62
3783,4.90,3.92,-36.31,90.332,-137.207,1565.430,-18.45,-2.70,-32.70,16.91
3793,-0.31,8.69,-36.97,186.523,-423.340,458.008,-18.45,-2.70,-32.70,16.72
3803,1.05,-2.24,-31.68,314.941,-485.352,1134.766,-16.05,-3.45,-31.65,16.62
3815,-11.99,-1.02,-35.50,375.488,-149.902,476.562,-14.55,-4.35,-28.20,16.62
3825,-4.76,-6.50,-35.48,-46.875,85.938,864.746,-14.55,-4.35,-28.20,16.58
3835,-13.52,-11.73,-29.40,285.156,-429.199,1159.668,-13.50,-6.15,-28.35,16.48
3845,1.30,-4.72,-33.26,140.137,-528.809,789.062,-14.55,-2.25,-30.45,16.62
3855,-0.69,-9.63,-27.74,-15.625,-320.801,1999.939,-14.85,-6.30,-28.65,16.62
3865,2.11,-2.37,-42.59,-128.418,-238.281,742.187,-13.95,-2.85,-28.35,16.62
3877,8.76,-5.63,-37.13,441.406,-460.937,1426.270,-13.95,-2.10,-28.35,16.91
3887,-8.65,-1.75,-31.56,-239.258,303.711,874.512,-15.90,-4.50,-28.80,16.38
3897,-0.71,-1.05,-31.54,68.848,-515.625,539.551,-15.90,-4.50,-28.80,16.72
3907,-8.77,-2.38,-42.29,300.781,-397.461,579.102,-15.30,-3.90,-30.15,16.62
3917,-5.02,-0.05,-33.46,-28.320,178.711,754.395,-14.70,-2.55,-27.60,16.43
3927,5.51,-8.94,-40.89,231.934,44.434,1999.939,-16.80,-3.15,-30.45,16.72
3937,1.55,-1.82,-37.40,-38.574,-126.953,948.242,-11.85,-3.15,-27.90,16.58
3949,-1.87,2.79,-34.98,-106.934,316.406,1772.461,-11.85,-3.15,-27.90,16.82
3959,-6.89,2.63,-40.03,-190.918,-400.879,893.066,-13.80,-3.15,-27.90,16.72
3974,-4.44,1.26,-34.83,351.562,-1077.148,698.730,-16.05,-2.25,-32.70,16.58
3983,-14.40,-4.17,-33.69,83.496,-376.465,1273.926,-11.85,-3.15,-28.20,16.43
3993,-11.60,0.61,-34.25,-354.004,-24.902,1932.617,-16.20,-3.30,-31.50,16.77
4003,-11.44,-2.76,-27.70,278.320,216.797,845.703,-12.60,-3.15,-27.90,16.77
4015,14.27,-3.34,-37.45,327.637,-407.227,1508.789,-15.15,-0.90,-30.75,16.72
4025,16.89,1.71,-36.27,99.609,-444.336,1212.891,-13.05,-3.45,-28.20,16.72
4035,24.23,-0.82,-57.66,-221.680,-662.109,1412.109,-13.05,-3.45,-28.20,16.72
4045,15.84,-0.59,-33.25,7.812,-435.547,576.660,-12.60,-3.15,-28.65,16.72
4055,14.17,-3.17,-35.63,-458.008,-601.562,790.527,-14.40,-1.65,-31.05,16.82
4065,-3.82,-2.40,-34.59,-159.180,-211.426,260.742,-11.40,-0.75,-28.65,16.38
4075,-4.10,-4.30,-40.98,119.141,-462.402,944.824,-15.90,-4.05,-31.05,16.38
4087,-16.29,1.49,-37.93,-111.328,-36.133,252.930,-14.40,-2.10,-31.05,16.29
4097,-23.02,2.91,-32.02,-96.680,22.949,620.605,-12.00,-1.65,-28.80,16.62
4107,-14.34,0.95,-38.82,448.242,-437.500,884.277,-12.00,-1.65,-28.80,16.77
4117,-2.96,0.09,-35.48,522.949,-587.891,1207.520,-13.35,-1.50,-31.95,16.62
4127,-1.73,3.96,-34.50,370.605,71.289,1593.750,-11.40,-4.65,-29.40,16.48
4137,-9.07,-2.05,-49.95,337.891,-651.855,883.789,-11.40,-4.65,-29.40,16.48
4149,-3.46,-2.61,-34.97,134.766,-257.324,1117.676,-12.45,-4.50,-29.85,16.72
4159,-6.77,3.08,-39.74,17.090,-338.379,1169.434,-12.45,-4.50,-29.85,16.82
4169,-8.21,3.33,-37.23,168.457,-152.344,1014.160,-10.65,-3.90,-30.15,16.38
4179,9.76,-2.91,-38.39,139.160,-622.070,1277.344,-12.75,-1.35,-32.25,16.77
4189,5.78,-2.26,-42.36,-29.785,-631.348,853.516,-12.75,-1.35,-32.25,16.62
4199,1.60,6.47,-40.27,316.895,-125.977,463.867,-11.70,-0.15,-30.75,16.77
4209,9.87,-4.03,-43.19,456.543,-791.504,-1.953,-9.30,-0.15,-30.75,16.82
4221,0.82,-0.06,-37.70,4.883,-437.988,1381.348,-10.95,-2.85,-31.05,16.82
4231,5.57,-7.11,-31.86,31.738,-432.617,1835.938,-9.60,0.30,-30.45,16.77
4241,1.37,1.18,-30.40,-35.645,-311.035,930.664,-9.60,0.30,-30.45,16.82
4251,-4.21,-5.68,-35.30,62.988,48.340,1369.629,-10.65,0.75,-30.90,16.58
4261,-2.01,-1.12,-33.90,-141.113,-189.453,1304.199,-8.70,-3.45,-30.15,16.77
4271,14.49,-6.46,-36.15,439.941,-729.004,545.898,-8.70,-3.45,-30.15,16.62
4281,13.59,10.61,-32.16,269.531,-504.395,432.129,-8.55,-2.85,-29.55,16.77
4292,-5.63,-4.02,-43.64,258.301,-820.801,1333.496,-9.00,-0.15,-31.80,16.77
4302,-13.08,-5.15,-37.22,227.051,-1164.063,837.891,-8.70,-2.70,-30.15,16.48
4312,-10.02,-3.08,-35.08,503.906,-976.074,941.406,-10.05,-0.45,-32.55,16.77
4322,-9.86,0.37,-42.58,147.461,-316.406,930.664,-10.05,-0.45,-32.55,16.24
4332,-9.02,-3.47,-35.15,-112.305,11.230,1079.102,-10.35,-1.50,-31.65,16.48
4342,8.13,-7.29,-34.59,177.246,-541.016,981.445,-8.55,1.35,-29.85,16.72
4352,22.94,-7.86,-34.35,-62.500,-699.707,658.203,-8.55,1.35,-29.85,16.77
4364,10.63,4.16,-40.15,126.953,-548.828,660.156,-9.00,1.65,-29.85,16.77
4374,-4.93,0.22,-37.61,118.164,-371.094,1428.711,-9.90,-1.50,-30.45,16.58
4384,-17.57,-2.84,-44.91,223.145,-725.586,1770.996,-9.75,2.55,-31.80,16.48
4394,-9.50,1.78,-40.44,-103.027,-213.867,918.945,-8.40,-1.05,-30.90,16.38
4404,-8.34,-1.35,-40.31,-67.383,323.242,1531.738,-8.40,-1.05,-30.90,16.58
4414,-7.02,2.05,-33.90,167.969,-290.039,1382.813,-7.80,0.45,-29.85,16.58
4424,16.81,1.53,-27.18,-133.789,-448.730,521.484,-7.05,0.90,-33.30,16.58
4436,0.43,3.38,-52.47,-347.656,80.566,360.840,-7.35,0.90,-34.05,16.38
4446,27.31,7.82,-15.22,-347.168,-816.895,-70.313,-7.65,0.00,-34.20,16.58
4456,10.56,4.69,-43.56,124.023,-345.703,640.137,-7.65,0.30,-33.45,16.62
4466,6.31,4.16,-29.73,181.152,-794.922,1473.633,-6.30,1.65,-33.75,16.77
4475,4.55,6.53,-38.85,-122.559,-818.848,894.531,-6.60,0.15,-34.50,16.77
4490,-2.23,2.95,-32.70,-142.090,-219.727,1627.441,-5.85,0.45,-33.00,16.72
4499,-1.05,-2.34,-37.58,-10.254,203.613,1154.297,-5.70,1.05,-33.45,16.77
4511,9.04,-0.09,-23.63,-122.559,-340.820,1075.684,-5.25,1.50,-33.15,16.72
4521,12.67,2.30,-31.11,-162.109,-645.996,585.937,-6.15,0.75,-33.90,16.48
4531,8.08,-5.83,-27.40,-130.859,-202.637,1428.711,-4.95,1.05,-33.90,16.62
4541,3.27,-1.72,-24.47,-425.293,64.453,1630.371,-5.85,1.65,-34.05,16.38
4551,7.98,-3.47,-28.56,-172.852,-447.754,925.781,-4.80,2.10,-33.75,16.72
4561,-0.18,0.98,-30.82,20.996,-440.430,1135.742,-4.80,2.10,-33.75,16.72
4571,-3.25,-1.84,-25.34,-43.457,-37.109,844.238,-4.50,1.05,-35.40,16.77
4583,-0.94,-2.65,-27.47,-151.855,-268.066,718.262,-4.95,0.00,-34.20,16.62
4593,-0.66,-8.71,-26.75,66.895,-488.770,1339.355,-4.50,1.50,-33.90,16.82
4603,-9.80,-3.56,-25.72,-365.723,189.453,510.254,-4.50,0.30,-34.20,16.77
4613,2.15,-4.69,-30.73,-293.457,138.672,778.320,-3.75,0.75,-34.95,16.72
4623,-1.50,-1.37,-34.91,-217.285,-367.676,1125.977,-3.15,1.35,-34.80,16.43
4633,-13.08,2.67,-27.98,-327.637,-47.363,1203.125,-3.45,1.05,-35.40,16.62
4643,-9.39,0.95,-32.49,-34.180,-392.578,814.941,-3.45,1.05,-35.40,16.82
4655,-6.95,-2.67,-32.36,-180.176,-226.562,718.262,-3.45,1.95,-34.65,16.43
4665,-1.95,-0.62,-23.45,-145.996,-154.297,725.586,-1.65,2.55,-33.30,16.72
4675,-1.58,1.90,-35.10,-24.902,-181.641,614.258,-1.80,3.15,-33.45,16.91
4685,-1.94,0.49,-34.13,97.168,-279.297,818.848,-3.75,2.25,-33.15,16.77
4695,2.63,1.48,-30.95,80.566,-137.207,831.543,-3.75,2.25,-33.15,16.43
4705,6.28,-0.75,-33.02,-126.953,-384.766,822.754,-2.85,2.85,-31.80,16.72
4715,8.77,-1.66,-37.61,35.156,-618.652,643.066,-2.40,1.65,-31.80,16.77
4727,1.05,1.11,-42.40,-152.832,-227.051,1158.691,-2.40,1.65,-31.80,16.77
4737,3.60,-3.76,-38.56,-39.063,-86.914,1195.313,-1.65,3.30,-32.25,16.91
4747,0.42,-0.14,-39.08,-185.547,-252.441,1210.938,-2.10,1.65,-33.00,16.48
4757,4.60,0.01,-35.92,-147.949,-535.156,1389.648,-2.55,1.50,-32.70,16.72
4767,2.63,-3.21,-37.17,-157.227,-839.844,1215.332,-3.15,1.65,-32.55,16.72
4777,-8.68,0.72,-40.42,-229.980,-193.359,1656.250,-3.15,1.65,-32.55,16.38
4787,-10.92,4.73,-39.02,-335.937,240.234,1230.957,-1.50,3.15,-33.90,16.72
4798,3.37,2.51,-29.87,-196.289,-333.496,900.879,-1.50,2.25,-32.70,16.77
4808,8.97,3.99,-30.62,-147.461,-473.145,1293.457,-1.50,2.25,-32.70,16.62
4818,7.96,7.48,-36.08,-282.715,-704.102,1592.773,-1.05,3.45,-33.90,16.58
4828,3.09,16.22,-35.31,-233.398,-180.664,536.133,-1.05,3.45,-33.90,16.72
4838,-5.98,8.47,-33.47,25.391,-382.812,1999.939,-0.75,1.50,-34.20,16.77
4848,-19.10,3.19,-41.54,-226.562,-591.797,1078.125,-0.75,2.70,-34.95,16.43
4858,-17.40,-3.53,-39.38,80.566,-969.238,1428.223,-0.75,2.70,-34.95,16.62
4869,-24.00,-7.52,-34.50,122.070,-244.629,1131.348,-0.15,4.50,-33.75,16.82
4879,-14.56,-9.82,-35.69,-198.242,-426.758,828.613,-0.15,4.50,-33.75,16.62
4889,-14.71,-4.02,-39.42,34.668,-366.699,404.785,0.90,2.55,-33.30,16.62
4899,-5.39,-5.91,-55.76,-243.652,-823.242,395.020,0.15,3.30,-33.00,16.77
4909,-14.76,-2.95,-38.05,-110.352,-619.141,1575.195,1.20,1.65,-34.05,16.77
4919,-6.62,-6.85,-39.94,-389.160,-333.984,1248.047,1.80,2.70,-32.70,16.38
4929,-0.87,-3.10,-33.76,-104.004,-441.895,1157.715,1.80,2.70,-32.70,16.72
4941,25.69,5.40,17.11,-295.410,-194.824,1205.566,1.80,1.95,-33.15,16.62
4951,-18.21,-2.54,-91.21,-494.629,427.734,1003.906,2.10,2.10,-32.55,16.77
4961,9.66,-10.30,-23.90,-204.590,-720.215,1011.719,2.10,2.10,-32.55,16.82
4971,-5.28,-12.05,-51.78,-35.645,-451.660,1465.332,1.50,2.70,-33.15,16.77
4981,-3.34,-7.12,-37.04,-97.656,-705.078,964.844,0.30,1.50,-32.40,16.82
4991,19.18,-17.36,-66.50,24.414,-1022.949,215.820,2.40,1.35,-33.30,16.77
5007,10.28,-21.12,-38.21,97.168,-1183.105,1201.172,0.90,0.90,-32.25,16.72
5017,5.98,-15.51,-41.77,101.563,-504.395,1171.387,0.90,0.90,-32.25,16.91
5027,2.47,-12.20,-32.63,386.719,-455.566,776.855,0.45,1.35,-33.30,16.77
5036,-0.66,-14.81,-41.02,-322.266,-273.926,1618.652,2.55,1.50,-33.45,16.62
5046,4.07,-24.16,-44.86,-62.988,-490.723,879.395,2.25,1.95,-33.15,16.82
5056,7.98,-22.01,-40.30,88.867,-414.551,1191.895,1.50,0.75,-33.45,16.48
5066,3.26,-39.52,-37.59,-196.289,-373.535,1712.891,0.30,3.45,-34.20,16.62
5078,1.44,-32.03,-32.92,268.066,-599.609,1166.016,0.75,1.05,-30.90,16.48
5088,-1.63,-22.98,-32.02,503.418,-316.406,400.391,1.20,0.90,-32.25,16.72
5098,3.09,-29.90,-29.48,-252.441,-442.871,685.547,1.20,0.90,-32.25,16.72
5108,-5.05,-25.63,-35.03,-312.012,-1047.852,1723.145,0.75,0.30,-33.45,16.91
5118,-15.56,-21.28,-35.63,-384.766,-658.691,749.023,0.15,1.65,-33.30,16.77
5128,-12.61,-15.73,-49.44,-341.309,-354.004,474.609,1.50,1.50,-33.15,16.82
5138,-6.57,-6.54,-23.60,-253.906,-885.742,1296.387,0.00,2.25,-33.15,16.58
5150,-4.77,-0.05,-36.70,-106.445,-854.004,912.109,0.45,1.35,-33.00,16.62
5160,-8.23,-2.98,-38.18,266.602,-896.973,274.902,1.20,2.10,-33.30,16.48
5170,-15.67,-2.37,-27.83,193.848,-215.820,1213.379,1.20,2.10,-33.30,16.62
5180,-6.43,-1.23,-44.82,-282.227,-445.312,1475.098,0.90,2.85,-33.00,16.77
5190,-4.06,-1.34,-40.97,-630.859,-225.586,1804.688,2.25,1.50,-34.20,16.82
5200,-4.44,5.21,-44.08,-401.855,-21.973,1488.770,2.10,1.65,-34.05,16.77
5210,11.69,16.98,-40.54,-224.609,-470.215,1762.695,2.10,1.65,-34.05,16.96
5222,1.27,15.76,-43.19,-410.156,-531.250,1024.414,2.10,1.65,-34.05,16.62
5232,-2.80,17.95,-49.90,-170.898,-303.223,466.309,2.25,1.95,-34.95,16.62
5242,-1.54,12.22,-46.93,-132.324,-543.457,834.473,1.80,0.00,-33.90,16.48
5252,-4.73,13.73,-47.68,165.527,-404.785,1133.301,1.80,0.00,-33.90,16.62
5262,-8.67,12.30,-32.89,67.871,-367.187,417.969,3.15,1.35,-35.25,16.77
5272,-4.68,-3.12,-41.19,-157.227,-633.789,703.613,4.50,0.30,-35.40,16.58
5282,-0.49,-2.40,-45.69,-557.129,-4.395,1999.939,4.50,1.05,-34.20,16.72
5294,19.29,0.85,-38.74,-249.023,-20.020,858.398,2.85,0.90,-35.25,16.72
5304,24.47,0.50,-49.73,165.039,-979.492,1412.109,2.85,0.90,-35.25,16.62
5314,19.11,3.88,12.80,76.660,-1197.266,1030.762,4.20,2.25,-34.65,16.82
5323,-14.17,2.76,-42.53,-226.562,-836.914,924.316,3.60,0.90,-34.80,16.62
5333,-9.52,1.11,-51.39,14.160,-172.363,477.051,3.60,0.90,-34.80,16.82
5343,-12.50,6.00,-49.23,72.266,-385.742,195.801,3.90,0.15,-35.25,16.72
5352,2.56,-2.72,-35.64,-267.090,255.859,1464.844,4.95,1.05,-33.45,16.48
5363,3.54,3.11,-37.03,-151.855,-249.023,895.996,5.10,0.90,-34.05,16.43
5373,10.65,5.52,-33.92,-127.930,-653.320,1116.699,6.60,0.15,-35.55,16.72
5383,4.72,6.69,-38.69,-53.711,-271.973,920.410,6.60,0.15,-35.55,16.77
5392,0.61,11.50,-29.69,-65.918,-305.176,556.641,5.85,0.90,-34.50,16.72
5402,0.29,4.77,-42.41,-2.930,-793.457,1349.609,7.65,0.30,-34.95,16.77
5412,2.15,-2.63,-35.36,-92.773,-714.844,1131.836,7.65,0.30,-34.95,16.48
5422,2.87,0.37,-32.32,-277.832,-6.836,1136.719,7.35,0.90,-35.55,16.91
5433,2.11,3.47,-40.44,-400.879,-24.902,1078.125,6.60,0.90,-36.00,16.77
5443,2.92,-0.77,-40.82,132.812,-343.750,713.379,7.80,0.45,-35.55,16.91
5453,-3.09,-0.10,-39.66,-95.703,-513.184,266.602,6.30,-0.15,-34.50,16.96
5463,-1.24,-6.80,-38.31,-335.937,-649.902,1136.719,6.30,-0.15,-34.50,16.96
5473,-0.05,-7.82,-38.62,-207.031,-404.785,1202.637,6.45,0.00,-35.70,16.77
5483,0.11,-1.10,-41.93,-216.797,-245.605,1110.352,7.05,0.45,-34.80,16.29
5493,4.45,2.26,-38.65,-305.664,-34.180,1142.090,7.95,0.00,-33.90,16.77
5505,5.95,1.98,-38.95,-26.855,-567.871,1499.023,6.60,0.90,-34.80,16.48
5519,0.17,3.66,-52.82,-292.969,-423.340,928.711,6.15,1.05,-34.20,16.77
5529,-6.53,0.85,-46.50,137.207,-160.156,749.023,8.40,1.50,-34.20,16.77
5539,-5.39,2.08,-34.81,8.301,124.023,763.184,8.55,0.15,-34.50,16.77
5548,4.75,4.05,-38.19,136.230,-508.789,393.066,8.55,0.15,-34.50,16.72
5558,3.33,-2.54,-37.51,-85.938,-371.582,1558.594,9.00,-1.35,-34.50,16.82
5568,-3.52,-1.76,-38.24,-256.836,-78.613,1999.939,9.60,0.00,-34.95,16.77
5580,-0.79,-3.54,-42.98,-219.727,-281.738,1104.980,9.75,0.45,-36.00,16.77
5590,-1.54,-1.76,-40.16,-233.398,-439.941,1723.145,10.50,0.45,-34.05,16.77
5600,-2.63,3.08,-33.61,-272.949,-180.664,1067.383,9.75,0.90,-35.25,16.82
5610,-12.15,4.74,-34.96,-89.844,-140.625,848.145,9.30,-0.15,-34.80,16.58
5620,-0.12,3.07,-37.48,250.000,-481.934,672.363,9.30,-0.15,-34.80,16.72
5630,-0.07,-1.97,-39.02,-170.410,-200.684,1678.711,11.70,-0.45,-34.05,16.62
5640,-2.68,4.13,-40.73,-436.035,-522.949,1876.465,10.95,0.45,-36.30,17.10
5652,3.51,0.16,-34.73,126.465,-270.508,1465.332,10.35,0.00,-34.95,16.72
5662,-2.80,-0.59,-41.08,-274.414,-292.480,1970.703,9.90,0.30,-35.40,16.62
5672,-1.34,4.18,-42.28,-133.301,-74.707,608.887,9.90,0.30,-35.40,16.91
5682,0.24,0.89,-35.71,257.812,-502.441,499.512,12.00,0.15,-35.25,16.72
5691,3.50,-1.07,-43.37,-52.246,-129.395,1578.125,10.65,0.00,-35.70,16.72
5701,4.82,-2.90,-39.97,-92.773,-334.961,1420.410,10.65,0.00,-35.70,16.91
5711,1.11,1.56,-39.38,-42.480,-736.328,956.055,10.95,-0.90,-35.55,16.82
5723,3.31,-7.15,-34.13,-398.926,-157.715,1887.207,12.45,-0.15,-34.80,16.48
5733,5.15,-0.84,-43.68,-194.824,-268.066,529.297,11.40,-0.75,-34.20,16.62
5743,1.43,-3.08,-46.02,-186.035,-455.078,397.461,12.60,-0.75,-36.15,16.82
5753,11.66,-6.98,-38.43,146.484,-662.109,1138.184,12.60,-0.75,-36.15,16.72
5763,0.51,-3.31,-40.40,-284.668,-483.887,1530.273,11.70,-1.35,-34.80,16.77
5773,-9.56,4.93,-38.48,-156.250,49.805,668.457,12.30,-1.95,-34.65,16.72
5785,-5.11,-0.74,-23.78,-448.242,-134.766,1348.633,12.30,-1.95,-34.65,16.72
5795,-1.52,-0.02,-42.60,-114.258,62.500,731.934,13.35,-1.95,-35.70,16.62
5805,2.07,-0.90,-43.34,229.492,-454.590,577.637,13.95,-2.85,-34.50,16.72
5815,4.15,-2.77,-41.76,-204.590,-656.738,387.695,12.60,-2.25,-36.60,16.72
5825,6.98,4.33,-30.95,-108.398,-244.141,1184.082,12.75,-2.55,-34.50,16.82
5835,5.46,-5.34,-31.57,-10.742,-123.047,1412.598,12.75,-2.55,-34.50,16.77
5845,2.34,-3.33,-39.50,-340.332,-252.441,842.773,13.35,-2.70,-34.95,16.82
5857,0.63,-6.48,-38.05,-62.988,-463.379,1609.375,13.50,-3.30,-35.55,16.62
5867,-10.05,3.06,-37.73,72.266,-389.160,408.691,13.50,-3.30,-35.55,16.72
5877,-11.50,-2.18,-35.40,67.871,146.973,590.332,13.80,-1.95,-36.15,16.77
5887,1.29,-4.46,-34.39,31.738,-147.461,1365.234,13.20,-2.55,-35.25,16.72
5897,-6.65,-4.86,-36.28,-61.523,-120.117,1321.777,14.40,-1.65,-35.55,16.77
5907,-7.82,-5.85,-41.21,-115.723,-186.035,351.074,14.10,-2.70,-35.40,16.77
5917,2.64,0.75,-38.20,354.004,-336.914,193.848,14.10,-2.70,-35.40,16.72
5930,-2.23,-1.50,-36.50,-526.367,202.637,1567.383,13.95,-1.65,-36.00,16.77
5940,6.76,0.46,-39.29,-66.406,-340.332,715.332,13.95,-1.65,-36.00,16.91
5950,-3.66,-1.07,-25.76,279.785,-335.937,571.777,14.70,-1.65,-34.50,16.72
5960,-2.00,-4.99,-32.64,-84.961,-515.137,1303.223,14.10,-3.90,-35.40,16.91
5970,3.29,-3.05,-30.83,-271.973,7.812,1612.305,14.10,-3.90,-35.40,16.58
5980,0.11,2.56,-40.34,-206.543,99.121,912.109,15.15,-3.75,-36.00,16.82
5989,2.98,2.98,-30.29,125.977,-583.984,947.266,15.15,-3.75,-36.00,16.82
6000,3.73,1.74,-35.50,334.473,-577.148,862.305,15.15,-3.75,-36.00,16.72
6010,5.92,-1.63,-35.85,127.441,-227.051,1300.293,16.20,-4.05,-33.75,16.91
6020,12.25,-0.40,-33.95,-55.664,-349.121,1772.461,16.20,-4.05,-33.75,16.48
6042,6.27,-1.61,-36.26,-22.949,-268.555,1036.621,14.40,-3.30,-36.75,16.77
6051,1.50,-3.89,-30.76,-32.715,-739.258,1111.328,16.20,-4.50,-34.50,16.77
6061,-8.01,-4.70,-34.67,33.691,-659.668,1144.043,15.30,-3.90,-36.15,16.77
6071,-2.44,-7.13,-32.06,-154.785,-446.289,1780.273,15.30,-3.90,-36.15,16.82
6083,15.56,0.62,-33.40,110.840,214.355,848.145,16.20,-4.95,-35.55,17.01
6092,11.02,-3.32,-38.27,-113.770,-366.211,1717.773,16.80,-4.65,-34.65,16.91
6102,-3.86,0.53,-39.71,75.195,-657.715,265.625,17.10,-2.10,-36.75,16.58
6112,-15.97,1.23,-35.28,-200.195,-520.996,1108.398,16.50,-4.65,-34.20,16.62
6122,-11.53,-0.29,-34.06,-269.531,-333.984,1236.816,16.50,-4.65,-34.20,16.62
6132,-7.37,9.77,-30.01,287.598,-40.039,468.262,15.30,-4.65,-33.90,16.72
6142,1.59,4.07,-41.92,320.801,-28.320,1510.254,16.65,-4.05,-36.75,16.91
6154,11.92,0.34,-35.79,173.340,-353.027,765.137,16.65,-4.05,-36.75,16.96
6164,11.04,3.24,-37.73,187.500,-742.187,1324.707,16.50,-3.15,-36.90,16.96
6173,-12.73,6.70,-29.83,-195.801,-453.613,680.664,16.65,-4.95,-34.80,16.72
6183,-19.98,-1.44,-30.69,-568.359,-56.641,908.691,16.80,-5.10,-36.15,16.82
6193,-5.37,-1.48,-37.37,168.945,206.055,841.309,17.85,-5.70,-35.25,16.77
6203,4.92,0.30,-32.47,179.687,-401.367,480.469,17.85,-5.70,-35.25,16.82
6212,-3.92,-3.75,-30.69,92.285,-361.328,822.266,17.25,-6.30,-35.40,16.91
6224,-3.75,2.19,-32.67,309.570,-407.227,507.812,17.10,-4.50,-37.05,16.91
6234,0.08,-2.48,-22.57,452.148,-228.027,1252.441,17.10,-4.50,-37.05,16.72
6244,-5.35,-1.81,-33.71,123.047,-68.359,1618.164,16.05,-5.10,-36.90,16.58
6254,-6.37,5.59,-33.05,152.832,-185.547,1180.176,17.40,-6.15,-35.55,16.77
6264,-6.08,2.34,-34.38,-281.250,-261.230,759.766,17.55,-4.35,-36.90,16.72
6274,-0.98,4.05,-34.77,-110.352,-411.621,653.809,18.45,-7.05,-34.95,16.72
6286,5.36,5.65,-30.44,-146.484,-333.984,822.754,18.45,-7.05,-34.95,17.01
6296,4.63,4.90,-28.72,-84.473,-316.406,858.887,17.25,-7.05,-35.70,16.96
6306,6.90,10.36,-36.72,243.652,-141.113,791.504,18.00,-4.65,-37.35,16.82
6315,5.36,-1.34,-39.68,66.406,-854.980,1313.477,18.00,-4.65,-37.35,16.58
6325,-0.46,3.02,-36.48,-129.883,-808.594,1292.969,18.75,-5.55,-36.90,16.96
6335,-1.26,-0.03,-35.74,96.191,-512.207,1555.664,20.10,-6.45,-35.55,16.77
6345,1.45,1.78,-41.31,-19.531,-581.055,682.129,18.45,-5.10,-36.60,16.82
6357,0.03,2.24,-33.86,43.945,-105.469,1655.273,19.65,-6.90,-36.75,16.82
6367,-4.37,1.26,-36.84,-217.285,30.762,1360.352,19.65,-6.90,-36.75,16.72
6377,2.00,3.50,-36.36,-81.055,137.695,1033.203,18.90,-7.65,-34.50,16.72
6386,1.76,2.09,-32.64,125.977,-529.297,604.980,18.90,-3.75,-37.05,16.62
6396,6.18,-7.48,-38.76,-72.266,-697.266,1270.508,19.20,-7.05,-35.40,16.91
6406,4.15,-2.41,-34.51,194.824,-451.172,895.020,19.20,-6.75,-36.60,17.01
6416,-2.16,-3.72,-40.82,50.781,-455.566,1263.184,18.60,-8.10,-35.25,16.82
6428,3.12,-10.17,-40.45,205.078,-423.340,1328.125,18.90,-4.95,-38.55,16.82
6438,-5.67,-4.27,-32.98,187.012,-548.340,1136.719,20.25,-9.15,-37.35,16.91
6448,-2.00,-7.66,-36.82,277.344,-327.637,1260.254,20.25,-9.15,-37.35,16.77
6458,0.69,-1.69,-33.14,439.453,-421.875,1342.773,19.65,-9.30,-36.30,16.62
6468,1.63,-7.72,-35.21,207.031,-306.641,1564.941,19.35,-6.15,-39.30,16.62
6478,2.58,-4.00,-36.15,88.867,-440.918,1003.418,20.85,-9.75,-36.00,16.77
6488,5.93,-3.83,-30.38,125.000,-425.293,620.605,20.25,-7.50,-37.65,16.96
6499,-1.25,-0.23,-32.05,-14.160,-28.320,990.234,20.25,-7.50,-37.65,16.62
6509,0.88,3.63,-31.75,170.410,-257.324,458.496,19.65,-8.55,-37.80,16.91
6519,2.49,-1.04,-34.76,149.414,-629.395,836.914,20.55,-10.05,-35.25,16.77
6529,-6.40,-1.87,-33.15,-186.523,-258.789,1563.965,20.55,-10.05,-35.25,16.72
6539,3.80,-2.92,-31.91,-182.129,-895.020,1651.367,20.10,-9.30,-35.55,16.72
6555,-5.49,2.05,-26.36,-75.195,-51.758,1199.219,21.60,-9.30,-36.00,16.82
6564,-0.57,-5.73,-33.03,228.027,45.410,1099.609,19.65,-10.05,-37.05,16.91
6575,-2.50,-1.46,-30.39,-105.469,-153.320,984.375,19.65,-10.05,-37.05,16.82
6585,1.49,-11.70,-32.75,-150.391,222.656,1429.199,20.70,-9.15,-36.15,16.91
6595,-1.37,-1.66,-37.85,-141.602,400.879,1422.852,21.30,-8.85,-35.55,16.77
6605,9.97,-4.92,-33.24,-336.426,161.133,1383.789,21.30,-8.85,-35.55,16.43
6615,10.49,-3.64,-35.06,-140.137,-326.660,905.273,20.25,-8.25,-36.15,16.91
6625,6.99,-1.11,-35.37,-91.309,-35.645,1028.809,20.55,-11.25,-37.05,16.96
6635,10.50,-4.58,-28.44,336.914,-880.371,1251.953,21.60,-8.85,-36.30,17.01
6647,-0.26,0.16,-29.87,92.773,-370.117,713.867,20.70,-12.30,-36.60,16.77
6657,-7.60,8.23,-29.53,-96.680,-148.926,578.613,20.70,-12.30,-36.60,16.82
6667,0.61,3.93,-30.23,71.289,-784.180,927.246,20.25,-11.55,-36.60,17.15
6677,-3.35,3.67,-37.70,-144.043,-128.906,638.184,21.90,-9.45,-37.35,16.72
6687,-0.56,1.24,-35.39,54.688,-455.566,1362.793,21.00,-11.10,-37.65,16.58
6697,-3.48,3.74,-28.34,-26.367,0.488,770.020,20.25,-9.45,-38.10,16.77
6707,-5.02,5.73,-43.96,-197.266,-12.695,1395.996,21.30,-11.70,-36.30,16.58
6719,0.53,0.82,-41.73,107.910,-379.883,891.602,21.90,-8.70,-38.10,16.62
6729,-8.39,2.47,-31.98,185.059,-524.414,931.152,21.60,-11.25,-36.75,16.72
6739,-12.18,2.05,-38.69,8.789,-546.387,756.836,21.60,-11.25,-36.75,16.82
6749,-1.81,4.06,-36.47,236.816,-720.215,825.195,21.90,-11.85,-36.15,16.96
6759,-1.69,0.86,-41.62,-161.621,-474.121,1282.227,20.55,-11.25,-38.25,16.48
6769,-0.36,-3.09,-33.13,61.035,-282.715,1010.742,22.05,-13.20,-36.00,16.72
6779,4.18,1.13,-35.89,69.336,-727.539,1465.332,20.70,-12.30,-38.40,16.91
6791,-5.84,2.61,-41.79,286.133,-654.297,902.344,22.05,-10.95,-38.55,16.77
6801,-12.48,9.87,-37.37,-90.332,-427.734,679.199,22.65,-12.30,-38.85,16.77
6811,-6.01,5.38,-40.23,-194.824,-369.141,1198.242,22.05,-11.70,-38.55,16.77
6821,-2.18,3.76,-37.18,-72.266,124.512,791.992,22.05,-11.70,-38.55,16.91
6831,-0.81,11.23,-41.43,-261.719,215.820,1329.102,21.60,-12.15,-38.55,16.82
6841,5.93,7.77,-33.32,-193.848,234.375,1227.051,23.25,-14.10,-35.55,16.82
6853,7.76,11.01,-21.92,256.836,-910.645,707.520,24.75,-13.20,-37.50,16.77
6863,-3.71,4.14,-29.89,-137.207,-753.418,881.348,24.75,-13.20,-37.50,16.77
6873,-10.32,4.52,-39.13,55.664,-577.148,1395.508,24.30,-12.90,-37.50,16.58
6883,-2.80,-4.24,-40.05,339.844,-431.152,283.691,22.95,-16.20,-38.10,16.82
6893,-6.60,0.24,-45.48,455.566,-206.055,582.031,22.95,-16.20,-38.10,16.91
6903,-1.85,-6.24,-42.03,-214.355,-100.586,1774.902,24.00,-14.10,-37.80,16.82
6913,6.09,-13.56,-44.15,-47.363,-553.223,953.125,23.25,-14.85,-39.75,16.91
6925,11.47,-8.18,-40.37,156.250,-471.191,1337.891,24.30,-14.40,-37.50,16.72
6935,-6.95,-1.12,-36.13,-423.828,-623.535,1449.707,23.25,-15.30,-37.80,16.91
6945,-6.48,-0.24,-35.05,477.539,-811.523,-60.547,23.25,-15.30,-37.80,16.82
6955,-4.82,-3.02,-29.24,-395.020,-324.707,1731.445,24.75,-16.05,-38.55,16.91
6965,-0.76,-1.10,-33.95,-87.402,-446.289,1043.457,22.95,-13.05,-39.15,16.82
6975,-4.78,2.66,-33.15,-168.457,-238.281,1481.445,22.95,-13.05,-39.15,16.91
6985,6.33,4.42,-35.91,2.441,-578.125,654.785,22.20,-13.80,-38.85,17.10
6997,-7.35,7.18,-35.70,-28.320,-503.418,879.395,25.05,-16.50,-37.80,16.77
7007,-10.29,6.19,-31.43,232.910,-312.500,1202.148,23.40,-15.90,-38.85,16.91
7017,-4.40,3.95,-38.77,109.863,-863.770,876.953,24.15,-15.45,-38.85,16.77
7027,-1.41,-6.18,-38.95,-204.102,-7.324,1437.988,24.15,-15.45,-38.85,16.58
7037,-2.26,-5.05,-37.97,245.117,-569.336,1142.578,23.55,-14.85,-39.75,16.62
7047,-2.34,-2.95,-40.64,-106.445,-118.164,1038.574,24.75,-16.50,-38.25,17.01
7057,3.46,-0.73,-42.85,327.637,-567.383,673.828,22.05,-15.60,-40.50,16.91
7074,-6.49,-3.85,-44.51,-105.469,-418.457,601.562,24.00,-16.80,-40.05,17.10
7083,-3.50,-8.05,-38.22,-189.941,-270.508,1148.438,25.05,-16.80,-38.25,16.96
7093,-4.47,-5.18,-48.26,-435.059,-120.605,1726.074,23.25,-19.20,-39.00,16.77
7103,-7.78,-0.64,-48.50,164.062,84.961,771.484,23.25,-19.20,-39.00,16.77
7113,-1.85,-0.03,-42.35,191.406,-354.492,966.797,25.05,-18.90,-39.00,16.96
7123,-5.78,2.23,-43.08,197.754,-717.285,893.066,23.55,-16.50,-39.75,16.91
7133,-1.50,5.93,-39.23,6.348,-571.777,980.957,24.60,-18.30,-38.85,16.91
7145,2.73,2.29,-39.35,-303.223,-240.234,572.266,22.65,-17.40,-39.60,16.82
7155,3.73,1.94,-36.38,327.637,-583.496,1130.371,24.30,-18.00,-38.25,16.77
7165,-2.69,3.53,-37.09,34.668,-541.504,991.699,24.15,-20.70,-38.85,16.72
7175,-5.59,4.06,-41.21,-364.746,-503.906,1604.492,23.55,-17.25,-39.75,16.38
7185,0.79,-1.38,-37.84,-100.586,-218.262,740.723,23.55,-17.25,-39.75,16.77
7195,0.00,-5.39,-33.78,288.086,-507.324,1026.855,23.40,-18.60,-39.90,16.91
7205,4.02,-1.04,-36.01,149.414,-544.434,1130.371,25.35,-18.60,-38.10,16.77
7217,2.63,1.75,-34.60,91.797,-493.164,36.621,24.75,-19.65,-39.30,16.91
7227,2.19,-0.34,-38.69,19.043,-356.934,969.238,23.55,-17.25,-39.75,16.91
7237,-2.02,3.53,-33.20,135.254,-563.965,1078.125,23.55,-17.25,-39.75,16.72
7247,-8.63,0.02,-34.37,-416.504,305.664,1025.391,25.05,-18.45,-39.75,16.91
7257,5.34,-1.09,-33.63,-317.871,-196.777,1999.939,25.50,-18.90,-37.80,16.62
7267,0.72,-2.49,-35.09,148.437,-68.359,661.621,25.50,-18.90,-37.80,16.72
7277,7.55,-9.50,-38.49,-62.500,-562.500,1295.898,24.00,-19.20,-40.05,16.96
7289,-5.50,1.84,-40.24,-197.266,-575.684,821.289,24.30,-22.50,-38.25,16.77
7299,0.82,-1.10,-35.82,353.027,-624.023,318.359,23.70,-20.70,-39.90,16.91
7309,-6.81,9.05,-45.05,-115.234,-222.656,1025.879,24.60,-20.70,-38.40,16.82
7319,-14.62,3.59,-38.83,-512.695,-40.039,1392.090,24.60,-20.70,-38.40,16.77
7329,-5.60,2.92,-32.05,-191.406,-421.875,1634.766,24.30,-18.00,-40.50,16.82
7339,-5.14,10.24,-42.86,467.773,-227.539,785.156,24.60,-22.65,-38.10,16.91
7349,-9.15,10.00,-34.82,426.758,-393.555,521.973,24.60,-22.65,-38.10,16.82
7361,2.85,1.12,-33.53,218.262,-218.262,1113.770,24.30,-21.60,-39.30,16.77
7371,3.82,2.72,-39.13,136.719,-416.504,1016.602,23.40,-22.20,-39.90,17.01
7380,-2.90,7.21,-39.10,277.832,-640.625,512.695,23.55,-19.65,-39.00,16.77
7390,-13.73,1.63,-39.51,-497.070,89.844,1479.980,23.55,-23.70,-39.00,16.72
7400,2.63,-7.11,-37.23,317.871,-551.758,1105.957,23.55,-23.70,-39.00,16.72
7410,-8.25,9.32,-47.53,149.902,-114.746,620.117,24.75,-21.30,-37.50,16.48
7422,-4.32,8.11,-38.31,-362.793,-189.941,650.391,23.55,-21.60,-39.30,16.82
7432,4.86,-5.22,-47.98,283.691,-1109.863,1771.484,23.55,-22.50,-40.50,16.43
7442,3.98,-0.89,-49.95,98.633,-40.039,1187.012,23.55,-22.05,-39.30,16.91
7452,1.62,-12.20,-38.26,-128.906,-987.793,1999.939,24.00,-24.45,-38.55,16.77
7462,6.73,0.40,-38.53,46.875,-738.281,433.105,24.00,-22.80,-40.50,16.96
7472,-14.18,-3.75,-44.15,-617.187,21.973,1514.648,24.15,-23.85,-39.15,16.96
7482,-2.63,1.83,-43.63,-224.121,-367.676,823.242,24.15,-23.85,-39.15,16.91
7494,-6.10,5.00,-42.95,-264.160,-624.512,1006.348,25.65,-24.60,-38.40,16.82
7504,-7.37,-1.63,-36.62,-254.395,-785.645,1158.203,23.70,-23.40,-40.35,16.91
7514,-1.53,6.78,-43.29,45.898,-783.203,395.996,24.30,-22.80,-39.30,16.58
7524,-4.27,3.54,-41.40,-564.453,-510.254,1999.939,23.55,-25.65,-38.55,16.77
7534,9.50,-0.01,-46.73,410.156,-896.484,42.480,22.65,-23.85,-41.10,16.77
7544,-11.11,8.82,-40.43,-419.434,140.625,295.410,24.60,-22.65,-40.35,16.82
7554,6.82,2.76,-45.23,513.672,-1141.113,-79.102,24.60,-22.65,-40.35,16.91
7566,7.18,-4.83,-43.52,735.840,-1021.973,365.234,22.05,-23.25,-40.80,16.82
7576,-11.88,9.84,-38.36,18.066,-129.395,462.891,24.30,-24.90,-38.55,16.82
7591,-3.07,-5.24,-56.16,469.238,-548.828,1999.939,23.70,-27.45,-40.35,16.77
7600,3.61,4.38,-50.63,224.609,-323.242,914.062,23.55,-25.20,-40.50,16.77
7610,-6.41,-4.50,-39.51,-294.434,-397.949,1999.939,23.55,-25.20,-40.50,17.10
7620,10.15,-3.89,-44.37,576.172,-755.859,282.715,24.15,-27.00,-39.90,16.96
7632,10.38,-9.22,-29.72,395.020,-1157.227,1130.371,22.95,-25.50,-40.35,16.82
7642,-14.52,13.60,-47.77,126.465,-503.418,-112.793,22.95,-25.50,-40.35,16.82
7652,-1.02,-3.69,-42.96,333.008,-738.770,1396.973,22.35,-28.05,-42.00,16.91
7662,6.69,0.15,-30.47,89.355,-551.270,344.238,23.25,-25.20,-38.55,16.77
7671,7.38,4.15,-36.11,-9.766,-808.105,785.645,23.55,-28.05,-39.75,16.91
7681,5.49,-2.18,-38.92,-287.109,-1004.395,1831.055,23.70,-27.45,-40.65,16.91
7691,6.72,3.08,-43.27,336.914,-773.926,222.168,23.70,-27.45,-40.65,16.72
7702,12.95,-1.85,-33.61,310.547,-569.336,1280.273,23.55,-28.80,-40.05,16.96
7712,4.50,1.96,-42.89,-8.301,-642.578,483.887,21.45,-26.55,-40.65,16.82
7722,-7.10,2.79,-34.48,-333.984,-815.918,1999.939,21.45,-26.55,-40.65,16.77
7732,-2.63,7.52,-36.40,363.281,-554.199,289.551,22.65,-28.65,-40.65,16.77
7742,-22.80,-0.55,-42.85,-784.668,219.727,680.176,22.65,-26.25,-42.60,16.77
7752,11.53,-9.13,-34.98,358.398,-1215.332,104.980,23.40,-27.75,-39.60,17.01
7764,10.46,-11.19,-37.04,567.383,-995.605,684.082,21.90,-29.40,-41.10,16.91
7774,1.59,5.61,-44.23,-177.734,-367.187,970.215,22.20,-28.65,-40.65,16.96
7784,1.94,-5.24,-48.29,-159.180,-683.594,1999.939,22.80,-28.80,-41.25,16.91
7794,2.62,6.92,-44.84,36.621,-610.352,652.344,21.45,-27.45,-41.10,16.77
7804,-22.05,4.27,-33.98,-801.270,246.094,1972.656,22.65,-27.75,-39.15,16.77
7814,13.48,-3.63,-39.31,685.547,-694.824,214.355,22.20,-30.15,-41.10,16.77
7824,-13.98,8.11,-52.45,-320.801,35.645,946.777,21.45,-27.45,-40.35,16.77
7836,-14.56,8.10,-49.76,-274.902,-237.305,297.363,22.20,-30.15,-38.40,16.77
7846,9.91,-9.24,-40.75,794.922,-927.246,1425.293,22.20,-30.15,-38.40,16.91
7856,1.36,5.53,-46.78,-214.844,-165.527,1218.750,21.60,-27.60,-39.00,16.62
7866,8.52,-2.19,-48.44,429.687,-1135.254,1999.939,22.20,-28.95,-40.35,16.77
7876,10.39,2.34,-54.33,-579.590,-722.168,835.937,21.90,-29.40,-41.85,16.77
7886,4.52,-17.34,-39.84,176.270,-1211.426,1999.939,21.00,-27.45,-41.10,16.77
7896,-17.27,-6.10,-43.69,-511.230,-536.621,914.551,21.00,-27.45,-41.10,16.82
7908,4.64,8.51,-56.48,-465.820,-105.957,903.809,21.30,-29.55,-42.00,16.43
7918,11.76,-7.18,-41.34,806.152,-1066.895,1720.215,22.35,-27.15,-40.05,16.77
7928,-6.14,3.76,-41.15,-342.285,22.461,1079.590,22.35,-27.15,-40.05,16.96
7938,13.46,-6.41,-32.95,351.562,-1212.891,1999.939,20.10,-31.20,-40.80,16.82
7948,6.41,6.02,-50.36,-566.406,-200.195,1241.211,21.30,-30.00,-42.00,16.72
7958,11.54,-1.60,-32.25,664.551,-1356.934,1999.939,21.90,-31.05,-39.60,16.77
7970,5.60,-3.51,-40.84,320.312,-1362.793,1999.939,21.30,-30.75,-41.25,16.62
7980,6.59,2.31,-40.39,-336.914,-676.270,629.395,21.30,-30.75,-41.25,16.82
7990,-7.89,8.18,-30.75,-214.844,-721.680,1999.939,21.60,-31.20,-40.80,16.62
8000,7.36,4.01,-32.13,-183.594,-456.543,654.785,20.85,-31.65,-41.55,16.72
8010,-5.53,0.74,-37.29,65.430,-361.328,1999.939,20.85,-31.65,-41.55,16.96
8020,5.72,4.54,-37.55,-610.840,-382.812,875.488,20.25,-32.55,-39.90,16.82
8030,7.83,3.21,-38.60,360.352,-1238.281,1999.939,20.70,-33.00,-39.90,16.62
8042,6.87,-1.26,-40.76,419.434,-1128.418,1999.939,20.70,-29.85,-40.35,16.82
8052,3.84,-0.55,-53.40,-240.234,-274.902,600.586,21.00,-33.00,-40.35,16.96
8062,-14.98,2.10,-30.92,367.676,-682.617,1999.939,21.00,-33.00,-40.35,16.58
8072,-0.07,2.47,-37.88,-637.695,-0.488,1616.699,19.35,-31.20,-39.30,16.58
8082,1.79,-6.74,-44.60,322.266,-1283.691,1999.939,19.65,-33.60,-40.80,16.62
8092,-2.00,2.58,-30.41,-928.711,-68.359,1418.945,19.65,-33.60,-40.80,16.82
8108,0.02,3.24,-28.76,-758.789,-258.301,1353.516,19.95,-33.00,-39.90,16.91
8118,17.26,-9.73,-51.59,620.117,-1067.383,1999.939,18.90,-33.60,-40.80,16.77
8128,-5.47,13.38,-27.24,-701.660,268.555,1276.367,19.65,-31.65,-41.25,16.96
8138,21.65,-7.92,-38.14,885.742,-1026.855,23.437,19.65,-31.65,-41.25,16.62
8148,-10.43,6.45,-28.06,-409.668,-144.043,870.605,18.90,-32.85,-40.80,17.10
8158,16.21,-9.27,-45.89,663.574,-977.051,-283.691,19.50,-31.35,-40.35,17.10
8168,-15.40,8.53,-28.74,-52.246,-326.172,-435.547,18.90,-32.40,-40.50,17.01
8180,-29.05,-0.22,-34.56,-102.051,778.809,497.559,19.20,-34.65,-41.40,16.77
8190,11.92,-6.08,-55.94,-118.652,-100.098,454.590,18.45,-32.55,-41.85,16.77
8200,-5.53,4.02,-38.44,-27.344,-793.457,1170.410,18.90,-32.85,-40.50,16.96
8210,5.27,1.30,-49.34,-741.211,-341.309,695.312,18.15,-34.05,-40.50,16.82
8220,6.20,-0.40,-26.26,720.215,-1179.688,1999.939,18.15,-34.05,-40.50,16.58
8230,-2.04,7.56,-41.53,-231.445,-203.613,525.391,18.90,-32.85,-41.25,16.96
8240,5.33,-2.82,-34.38,689.453,-1554.199,1922.852,18.15,-33.15,-40.05,16.91
8251,-20.07,-2.24,-24.85,623.047,229.980,325.684,18.45,-32.55,-41.85,16.72
8261,-7.11,3.59,-42.76,-158.203,-277.344,983.398,18.45,-31.80,-40.65,16.72
8271,-4.02,-3.82,-40.01,546.875,-786.621,1370.605,18.45,-31.80,-40.65,17.10
8281,-17.08,-2.23,-35.28,-9.277,478.516,641.113,17.10,-34.35,-41.55,16.48
8291,14.47,-5.73,-41.08,167.969,-247.070,259.766,18.15,-33.15,-41.25,16.62
8301,6.87,-7.89,-34.77,376.465,-509.277,952.637,18.15,-33.15,-41.25,16.77
8311,4.77,-6.89,-44.61,-501.465,-335.937,114.258,16.20,-35.55,-39.00,16.91
8323,-10.37,1.19,-37.95,-526.855,-230.469,1148.926,17.55,-32.55,-41.85,16.77
8333,-3.15,2.52,-40.34,-173.340,-891.113,943.359,17.55,-33.45,-40.65,16.91
8343,-1.74,3.31,-34.85,20.020,-108.887,1999.939,18.15,-34.80,-38.55,16.82
8353,8.99,-3.82,-35.91,-222.168,-734.863,306.152,18.15,-34.80,-38.55,16.72
8363,0.15,6.60,-27.84,111.816,-833.008,1892.578,17.40,-32.85,-40.80,16.72
8373,8.62,0.31,-46.45,-156.738,-319.824,89.355,17.25,-34.95,-39.60,16.96
8385,-7.47,4.32,-250.14,-37.598,-698.730,275.879,17.55,-34.20,-39.90,16.72
8395,-2.85,-7.20,-79.12,102.051,-628.906,594.238,16.80,-35.40,-39.90,16.72
8405,-6.16,2.37,-32.75,-254.883,-35.645,550.293,16.50,-33.75,-41.40,16.82
8415,13.37,-0.85,-42.90,-55.664,-215.820,573.730,16.50,-34.20,-40.65,16.77
8425,-4.58,0.74,-23.31,28.809,-635.742,1574.707,16.50,-34.20,-40.65,16.82
8435,-4.51,5.82,-39.57,-276.367,-574.219,679.199,15.75,-35.40,-39.60,16.77
8445,0.55,-4.63,-32.27,455.078,-920.898,1810.547,16.50,-34.65,-39.90,16.77
8457,4.39,-0.68,-31.08,55.664,-827.637,1310.547,15.45,-35.55,-39.75,16.91
8467,-7.09,-0.42,-40.57,-343.262,-90.332,1329.102,16.05,-35.40,-41.40,16.58
8477,8.18,-4.44,-34.36,-393.066,-748.047,1999.939,16.20,-34.05,-40.05,16.77
8487,0.19,3.34,-42.34,-339.355,-30.762,563.965,16.80,-33.75,-41.40,16.96
8497,9.45,-6.24,-39.85,-450.195,-1044.434,1858.398,15.30,-34.20,-42.15,16.91
8507,2.37,1.29,-41.38,35.645,-736.816,904.297,15.30,-34.20,-42.15,16.72
8516,1.35,-2.32,-43.04,-187.012,-970.215,526.367,16.05,-34.95,-41.85,16.77
8528,-9.27,1.81,-48.79,-208.984,-247.070,750.977,16.05,-34.95,-39.60,16.82
8538,-0.50,2.29,-34.76,6.348,-308.594,1415.527,14.70,-34.35,-41.25,16.72
8548,4.19,2.40,-31.95,-220.703,-288.086,1364.258,16.65,-34.35,-41.25,16.82
8558,6.79,0.82,-32.00,45.410,-632.812,776.367,14.85,-33.75,-40.35,16.77
8567,-4.69,4.27,-34.15,-121.094,-865.723,754.395,15.15,-35.55,-40.50,16.82
8577,-14.81,4.46,-44.93,-241.211,-805.176,1203.125,14.55,-35.85,-39.60,16.96
8587,0.11,5.82,-34.69,-143.066,-178.223,1169.434,14.55,-35.85,-39.60,16.72
8599,2.13,-0.55,-43.60,-235.840,-102.051,1213.867,15.45,-36.45,-40.05,16.72
8609,7.69,-2.66,-47.01,-62.500,-340.332,740.234,15.75,-34.95,-40.65,16.72
8623,-0.17,1.97,-35.40,131.348,-908.203,1091.309,13.80,-34.65,-39.60,16.96
8633,1.04,-0.84,-36.56,-250.000,-821.777,70.313,14.40,-35.55,-40.80,16.96
8643,-3.42,-0.19,-39.50,-115.723,-473.633,980.957,14.40,-35.55,-40.80,16.82
8653,6.60,-2.54,-43.37,-117.676,-103.027,1377.930,14.40,-35.55,-39.75,16.77
8663,1.53,3.42,-38.90,-309.082,-687.988,1935.547,14.70,-35.55,-40.05,16.77
8673,10.82,4.08,25.78,9.766,-273.926,897.461,14.70,-35.55,-40.05,16.77
8685,6.23,9.08,-44.86,-172.852,-600.586,1531.738,13.80,-35.40,-39.90,16.91
8695,3.04,7.60,-35.80,41.504,-496.094,835.937,13.80,-35.40,-39.90,16.91
8704,3.68,1.86,-38.38,57.129,-667.969,1442.871,13.80,-36.15,-39.90,16.91
8714,5.69,0.85,-37.96,-161.133,-254.395,1131.836,14.55,-35.85,-40.35,16.91
8724,0.85,1.53,-41.08,12.695,-738.770,929.687,14.55,-35.85,-40.35,16.43
8734,-7.02,3.62,-28.24,-143.066,-137.207,984.863,13.80,-34.65,-40.35,17.01
8746,-3.67,7.76,-37.76,-213.379,-295.410,947.266,13.80,-35.85,-39.90,16.62
8756,2.91,0.81,-45.34,116.211,-475.098,630.859,13.35,-36.15,-41.10,16.77
8766,1.02,1.21,-32.31,-371.094,-127.930,1882.813,13.20,-36.45,-40.50,16.82
8776,9.17,-1.25,-40.34,353.027,-768.555,691.895,13.20,-36.00,-41.25,16.91
8786,0.97,-2.75,-34.19,-363.281,-583.984,1029.297,13.20,-36.75,-40.05,16.77
8796,2.24,-5.08,-30.40,-187.500,-161.621,1462.402,13.20,-36.75,-40.05,16.72
8806,8.77,-0.28,-34.27,31.250,-620.605,930.664,13.05,-37.05,-38.85,16.48
8817,1.40,-7.18,-24.38,46.387,-706.543,1680.664,13.35,-36.60,-40.35,16.91
8827,-5.65,1.73,-34.15,-331.055,-24.902,846.191,12.75,-36.75,-39.75,16.82
8837,17.44,-4.79,-26.34,-41.504,-428.711,599.121,11.85,-36.15,-39.90,16.91
8847,-3.24,5.07,-34.47,-52.246,83.008,866.211,12.75,-37.20,-40.05,17.10
8857,8.13,-0.40,-29.04,-73.730,-775.391,973.633,13.05,-37.35,-39.15,16.82
8867,-3.76,0.33,-31.66,-135.742,-341.797,1166.992,12.75,-36.00,-40.50,16.62
8877,-0.08,3.72,-32.37,-76.172,-224.121,553.711,12.75,-36.00,-40.50,16.58
8889,5.21,-3.06,-36.40,-214.844,-388.672,852.051,12.45,-36.75,-40.80,16.82
8899,8.89,-1.64,-25.43,50.781,-525.879,763.672,11.70,-36.75,-39.75,16.48
8909,2.50,-4.30,-34.44,-71.777,-411.133,1058.105,12.00,-35.25,-40.05,16.72
8919,-1.44,-4.53,-38.60,-51.270,-569.336,673.828,12.45,-35.25,-38.55,16.96
8929,0.18,-1.74,-27.55,-230.469,-341.309,1185.547,12.45,-35.25,-38.55,16.91
8939,10.75,-0.18,-32.44,-214.355,-261.230,1007.324,11.40,-36.15,-39.60,16.91
8949,1.39,1.58,-31.95,-202.637,-282.715,582.031,11.85,-37.05,-39.15,16.62
8961,3.45,3.40,-37.08,-41.016,-782.715,681.641,11.85,-37.05,-39.15,17.01
8971,-6.48,5.11,-38.39,-402.344,-212.891,1447.754,11.85,-36.60,-39.90,16.82
8981,4.82,4.23,-31.07,145.508,-643.066,281.738,11.25,-39.15,-38.55,16.62
8991,3.68,6.66,-30.53,-26.367,130.371,937.012,11.10,-37.05,-39.15,17.10
9000,14.05,5.84,-29.62,30.273,-343.750,1098.633,10.95,-36.45,-40.05,16.82
9010,13.56,3.72,-35.18,0.488,-888.184,1492.188,10.95,-36.45,-40.05,16.77
9019,4.05,1.94,-37.71,-65.430,-625.488,1312.500,12.30,-36.60,-39.90,16.77
9031,5.08,4.08,-34.81,202.637,-256.348,1174.805,10.95,-36.75,-39.30,16.62
9041,-0.31,0.18,-29.50,-172.363,-399.414,736.816,10.95,-36.75,-39.30,16.62
9051,3.04,1.30,-26.59,-287.109,-195.312,1318.359,11.85,-35.85,-40.35,16.82
9061,0.96,2.89,-30.74,-266.602,-581.543,860.352,11.10,-37.80,-38.85,16.96
9071,-0.89,4.69,-38.93,-142.578,-427.734,955.078,12.60,-37.35,-39.60,16.91
9081,-2.39,3.27,-33.23,58.594,-446.777,1190.918,10.50,-36.75,-39.30,16.72
9093,-5.29,3.23,-28.66,-333.008,-455.566,1148.438,10.50,-36.75,-39.30,16.91
9103,7.51,1.79,-38.93,-94.238,-491.211,726.074,12.45,-37.65,-39.00,16.82
9113,5.74,2.86,-40.76,-173.340,-124.512,831.543,12.00,-36.45,-39.30,16.48
9123,8.63,3.60,-30.66,-66.895,-404.297,1110.840,12.00,-36.45,-39.30,16.82
9138,-6.31,0.63,-42.20,-39.551,-851.074,831.055,11.40,-37.35,-38.85,16.91
9147,-10.13,0.38,-38.01,-84.473,-103.027,728.516,10.50,-36.75,-39.00,16.62
9159,-2.72,-0.98,-39.02,-166.992,-445.801,1172.363,11.25,-37.65,-38.55,16.96
9169,0.34,-0.74,-33.34,-83.008,-554.687,1164.063,11.25,-37.65,-38.55,16.91
9179,1.11,-1.86,-44.11,82.520,-708.496,647.949,10.50,-37.65,-39.00,16.82
9189,1.41,-4.09,-41.69,-182.617,-689.453,1433.594,11.70,-38.40,-39.00,16.43
9199,-2.82,-6.70,-39.32,-179.687,-656.738,701.660,10.95,-37.65,-38.55,16.91
9209,-5.79,-6.98,-41.18,-207.031,-246.582,987.305,11.25,-37.65,-37.50,16.62
9219,2.96,-0.79,-36.66,-279.785,-272.949,720.703,9.90,-37.80,-38.40,17.01
9231,9.93,-0.82,-42.64,-182.129,-452.637,941.406,10.35,-36.60,-38.85,17.01
9241,8.38,-4.02,-43.69,-72.266,-777.344,1713.379,10.05,-37.20,-38.25,17.01
9251,-0.71,-4.75,-42.95,-145.020,-789.551,1240.234,10.05,-37.20,-38.25,16.72
9261,-0.19,-5.84,-44.69,-95.215,-184.570,951.172,9.60,-36.60,-38.85,16.72
9271,4.60,0.24,-46.88,-241.211,-358.398,999.023,9.90,-37.80,-39.15,16.62
9281,2.13,-1.74,-43.96,-328.613,-1007.812,1506.836,10.35,-37.35,-38.10,16.82
9291,3.95,-0.46,-46.75,-127.441,-580.078,919.922,8.40,-38.25,-37.65,16.91
9303,-1.85,1.55,-43.02,-83.008,-372.559,565.918,8.40,-38.25,-37.65,16.91
9313,-7.93,-2.91,-42.94,-129.883,-666.992,960.937,9.75,-38.70,-37.50,16.82
9323,3.33,-4.31,-40.53,-280.762,-555.176,1169.434,9.75,-38.40,-37.80,17.01
9333,2.86,-0.60,-46.42,6.348,-524.902,1082.031,9.75,-38.40,-37.80,17.10
9343,-2.89,-4.81,-42.84,-160.156,29.297,670.410,9.00,-37.95,-38.25,16.62
9353,7.67,-5.30,-42.54,-113.281,-597.168,1012.695,9.30,-39.60,-38.25,16.72
9365,0.59,-6.30,-37.15,-398.926,-691.406,1285.156,9.15,-38.25,-36.90,16.82
9375,1.66,-0.32,-44.09,-25.391,-643.555,663.574,8.70,-39.00,-38.10,16.58
9385,-1.30,-0.46,-40.81,-514.160,-677.734,1018.066,8.70,-39.00,-38.10,16.77
9395,-1.46,-4.10,-48.52,-90.820,-638.184,1549.316,7.95,-37.80,-38.10,16.77
9405,-5.04,-0.80,-41.89,85.449,-867.676,937.500,8.40,-38.55,-37.65,16.77
9415,-0.83,4.37,-44.00,-449.707,-342.285,1435.059,8.40,-38.55,-37.65,16.91
9425,10.47,7.59,-38.76,-123.535,-496.582,616.211,7.65,-39.30,-37.35,16.77
9437,18.27,6.34,-50.13,57.617,-1076.172,842.773,8.40,-39.00,-36.90,16.96
9447,-0.43,8.27,-46.55,83.496,-610.352,1155.762,8.25,-38.70,-37.05,16.77
9457,12.05,0.84,-49.86,-20.020,-725.098,932.129,8.25,-38.70,-37.05,16.72
9467,8.76,8.98,-40.15,74.219,-438.965,490.234,7.20,-38.55,-36.90,17.01
9477,5.41,-2.95,-48.11,-23.437,-890.625,1418.457,7.05,-39.15,-37.80,16.96
9487,5.43,-13.94,-111.73,-99.121,-353.027,1146.973,7.65,-39.00,-36.90,16.82
9497,-6.48,-4.57,-46.24,-231.445,-328.613,762.207,7.65,-39.30,-36.60,16.82
9509,-5.24,-5.07,-49.91,15.625,-169.922,709.961,7.20,-40.20,-36.60,16.82
9519,-1.14,2.76,-49.06,-147.461,-185.059,604.004,5.25,-40.50,-35.40,16.77
9529,5.34,0.03,-37.96,29.785,-634.766,1241.699,5.55,-41.10,-36.75,16.72
9538,-3.45,-13.71,-50.10,-528.320,-452.148,1545.898,5.55,-41.10,-36.75,16.77
9548,0.50,2.83,-47.95,-399.902,-337.402,1158.203,5.70,-39.75,-37.65,17.01
9558,8.38,3.36,-44.81,154.785,-862.305,598.145,6.30,-41.10,-36.00,16.96
9567,-3.05,-2.18,-40.98,-149.902,-94.727,727.539,5.25,-38.25,-36.90,16.77
9579,-4.72,0.35,-47.17,-217.285,-830.566,798.828,5.25,-40.95,-36.60,17.01
9589,-1.64,-7.77,-60.27,-454.102,-546.387,1007.812,5.25,-40.95,-36.60,16.72
9599,-10.09,-1.44,-45.89,-454.102,-513.672,1212.402,5.10,-39.15,-36.30,16.82
9609,-6.98,5.54,-55.37,-243.652,-217.773,791.016,5.55,-40.35,-34.80,17.01
9619,-0.05,-2.31,-51.37,-209.961,-549.805,1378.418,5.55,-40.35,-34.80,16.96
9629,10.51,-0.92,-41.59,-125.488,-513.672,1105.957,5.55,-40.80,-36.75,16.82
9639,12.73,0.95,-47.47,207.031,-578.613,800.781,4.20,-40.95,-36.60,16.91
9655,8.83,0.22,-50.54,237.793,-883.789,713.379,4.80,-40.80,-36.00,16.72
9665,-3.32,-3.16,-29.40,-225.098,-866.211,1096.191,4.35,-40.80,-36.00,16.48
9675,-1.22,-3.07,-50.59,-137.207,-550.781,766.113,4.35,-40.80,-36.00,16.91
9685,-2.97,-4.83,-49.19,-22.949,-989.258,731.445,3.90,-42.00,-36.30,16.77
9695,-9.00,-2.69,-56.22,-446.777,-187.012,1199.219,2.40,-39.90,-36.00,16.77
9705,-2.50,-12.11,-48.13,-209.961,-673.828,1574.219,2.40,-39.90,-36.00,16.82
9715,6.01,-1.30,-37.08,226.074,-419.922,1089.355,3.60,-42.00,-35.55,16.77
9727,10.31,0.08,-50.11,-209.961,-408.691,766.602,1.80,-40.95,-35.40,16.91
9737,7.99,-1.14,-43.41,166.504,-1065.430,888.672,3.60,-42.00,-36.30,16.72
9747,-7.76,-5.15,-48.04,-410.156,-853.516,577.148,3.60,-42.00,-36.30,16.91
9757,-13.99,-0.65,-50.56,-124.512,-382.812,1202.148,1.05,-41.40,-36.15,16.77
9767,-17.10,-2.34,-45.69,93.750,-765.137,1024.902,2.55,-40.50,-36.90,16.91
9777,-13.44,3.04,-48.80,-187.988,-227.539,337.891,2.55,-40.50,-36.90,16.82
9787,-8.46,3.44,-47.50,53.711,-203.125,995.605,0.15,-43.20,-36.00,16.91
9799,2.89,3.68,-46.87,-134.766,-589.844,575.684,-0.15,-40.35,-37.50,16.72
9809,9.36,-1.81,-42.93,180.664,-976.074,820.312,1.50,-41.40,-34.95,16.72
9819,2.53,0.34,-47.05,-327.148,-389.160,1690.918,0.75,-42.15,-36.60,16.91
9829,11.07,0.56,-45.53,19.043,-478.516,563.477,0.75,-42.15,-36.60,16.96
9838,8.10,3.39,-46.90,168.945,-301.758,988.281,-0.75,-42.90,-36.60,16.96
9848,9.66,-5.47,-46.21,101.074,-618.652,1864.746,0.15,-41.10,-35.55,16.96
9858,-2.43,-0.38,-54.05,-241.211,-723.633,1039.063,0.45,-41.55,-35.25,16.91
9870,-4.49,-0.11,-22.62,20.020,-511.719,760.742,-0.75,-41.70,-36.60,16.77
9880,-5.90,-5.89,-55.92,-186.523,-715.820,1781.250,-0.15,-40.80,-36.75,16.91
9890,-13.00,-10.63,-52.21,121.582,-260.742,1357.422,0.15,-42.30,-36.00,16.72
9900,12.28,-5.06,-51.09,80.566,-552.734,632.812,-1.05,-40.95,-34.95,16.77
9910,4.59,-2.65,-47.56,-400.391,-304.199,934.570,-1.05,-40.95,-34.95,17.01
9920,10.32,-0.73,-44.24,-336.914,-216.309,1289.551,-2.25,-42.60,-35.40,16.91
9930,18.76,-3.29,-45.31,379.883,-995.605,412.598,-2.25,-40.20,-35.40,16.96
9942,-2.43,-3.38,-40.99,-54.199,-553.711,1080.078,-2.10,-43.50,-34.05,16.82
9952,-10.80,2.66,-44.66,-90.820,-428.223,905.273,-2.40,-41.55,-35.55,16.96
9962,-20.52,-5.15,-50.60,13.672,-838.867,1340.820,-2.40,-41.55,-35.55,16.72
9972,-17.44,-7.95,-87.77,-48.828,-240.234,773.437,-2.85,-42.30,-34.50,16.82
9982,-11.82,5.60,-21.66,-337.891,-160.156,1221.191,-3.00,-41.40,-35.40,16.82
9992,9.39,5.85,-30.74,35.156,-263.184,256.348,-3.00,-41.40,-35.40,17.15
10004,19.99,8.73,-47.27,-133.789,-313.965,595.703,-3.90,-40.35,-36.75,16.72
10014,16.65,4.54,-49.19,269.531,-1364.258,715.820,-2.25,-42.15,-34.95,16.72
10024,-0.18,10.89,-43.08,418.457,-1152.344,299.316,-2.85,-42.00,-35.25,17.10
10034,-5.82,8.12,-41.02,-38.086,-541.016,1126.953,-3.90,-40.35,-34.80,16.91
10044,2.98,-1.35,-35.66,62.012,-697.754,1135.254,-3.90,-40.35,-34.80,16.91
10054,1.78,-0.18,-52.05,-144.043,-675.781,477.051,-4.80,-42.30,-35.25,16.58
10064,-7.15,2.60,-45.33,-192.871,-432.617,476.562,-3.75,-39.75,-33.90,16.91
10076,1.12,1.70,-60.58,14.648,-583.984,569.824,-3.75,-39.75,-33.90,16.77
10086,-3.10,-2.61,-43.92,154.785,-632.812,1299.805,-5.70,-40.20,-34.95,16.82
10096,-8.85,-3.06,-46.34,-517.578,-382.324,1742.188,-3.45,-42.90,-34.65,16.96
10106,3.61,2.45,-41.66,-29.297,-521.484,137.207,-6.30,-42.00,-35.25,16.91
10116,-6.05,7.37,-42.66,229.980,-770.508,838.379,-4.50,-41.40,-34.65,16.72
10126,-11.99,2.04,-37.78,-817.383,-283.203,1860.840,-4.50,-41.40,-34.65,16.77
10136,2.31,-2.21,-41.02,186.523,-621.094,732.422,-5.25,-39.30,-35.40,16.77
10148,-1.67,-4.11,-45.36,-80.078,-81.055,1362.793,-5.25,-41.40,-34.65,16.82
10158,3.57,0.11,-45.76,-143.555,-778.320,297.363,-6.30,-40.35,-35.25,16.58
10173,2.22,-0.44,-50.09,-323.242,-618.652,539.551,-7.35,-41.55,-34.80,17.10
10182,12.08,6.79,-24.69,492.676,-366.211,437.988,-7.05,-39.60,-36.00,16.96
10192,-4.64,9.69,-49.71,-323.242,-854.492,1944.824,-6.30,-39.15,-34.05,16.91
10202,4.92,7.31,-46.78,51.270,-671.875,-155.273,-6.30,-39.15,-34.05,16.82
10214,9.15,33.66,-30.70,48.340,-378.418,1716.309,-6.15,-40.20,-34.95,16.72
10224,-6.53,7.94,-51.15,-164.062,-540.039,1221.680,-6.15,-40.95,-33.90,16.72
10234,-1.18,6.24,-38.65,195.312,-478.027,781.738,-6.90,-39.00,-34.95,16.82
10244,-9.41,9.14,-50.13,-10.254,-277.344,539.551,-6.90,-40.20,-34.95,16.91
10254,1.12,6.16,-40.04,-141.113,-368.164,59.082,-6.90,-40.20,-34.95,16.82
10264,14.16,4.07,-54.43,231.934,-499.023,108.887,-6.30,-38.70,-35.25,16.91
10274,0.75,4.05,-47.20,-200.684,-141.602,1446.777,-6.30,-39.90,-34.05,16.82
10286,2.41,2.47,-27.05,-332.031,-582.031,879.883,-6.30,-39.90,-34.05,16.72
10296,5.52,-3.25,-35.63,-56.641,-1117.188,1264.648,-7.35,-39.90,-34.80,16.77
10306,0.82,-2.47,-47.89,-91.309,-884.766,1041.016,-7.35,-40.80,-33.75,16.62
10316,0.02,8.94,-50.32,88.867,-429.687,329.102,-7.80,-39.90,-35.55,16.91
10326,-4.44,-4.26,-51.07,-409.668,104.004,1558.105,-6.90,-39.30,-33.45,16.77
10336,-4.49,-2.37,-41.53,371.094,-575.684,1085.449,-6.90,-39.30,-33.45,16.91
10348,-10.19,3.91,-50.73,-181.152,-420.410,1451.172,-7.65,-39.75,-34.20,16.96
10358,-8.32,-0.90,-38.53,-105.469,-648.437,938.477,-7.65,-39.75,-34.20,16.91
10368,2.53,11.59,-38.53,104.004,-254.883,550.293,-8.70,-38.55,-34.20,16.77
10378,3.49,-11.26,-57.27,511.230,-546.387,1768.555,-9.60,-40.95,-34.20,16.82
10388,7.31,-2.74,-49.76,109.375,-482.910,278.320,-9.60,-40.95,-34.20,16.77
10398,11.56,-7.09,-24.71,-662.598,-483.887,1239.746,-9.60,-39.00,-34.20,16.77
10408,16.82,-13.01,-56.84,199.219,-1677.246,1675.293,-9.60,-39.00,-34.20,16.96
10421,3.73,-10.93,-50.90,337.891,-1333.008,126.465,-10.95,-37.95,-34.05,16.48
10431,3.35,-8.79,-55.82,273.926,-989.258,931.641,-9.60,-38.55,-34.20,16.82
10441,-1.95,-11.60,-49.30,-404.785,-795.410,1810.059,-9.60,-38.55,-34.20,17.10
10451,8.15,-12.88,-50.05,405.273,-847.656,581.055,-9.75,-37.65,-33.75,16.82
10461,8.60,5.47,-42.19,-361.328,-578.125,492.676,-10.95,-39.15,-33.75,17.01
10471,3.44,3.80,-45.29,-624.023,-468.750,1622.559,-11.70,-38.70,-34.50,16.72
10483,-0.98,5.64,-39.66,38.086,-777.832,1344.727,-10.65,-37.35,-33.45,16.91
10493,0.47,-1.21,-46.17,-106.934,-966.309,812.500,-10.65,-37.35,-33.45,16.82
10503,-7.08,7.18,-36.21,189.453,-639.648,947.754,-11.85,-37.05,-34.95,16.58
10513,-4.57,7.97,-47.17,-563.477,-113.770,929.687,-11.10,-38.55,-33.45,16.82
10523,5.73,1.64,-46.15,252.930,-803.223,947.754,-12.45,-37.20,-35.55,16.58
10533,2.11,5.22,-44.41,201.172,-1053.711,146.484,-10.95,-36.00,-34.05,16.82
10543,-12.92,0.34,-51.27,-506.836,-1076.172,1531.250,-11.85,-37.05,-33.45,16.96
10555,2.06,0.99,-46.60,-405.273,-374.023,1088.379,-12.30,-36.60,-33.90,17.25
10565,-4.16,-4.55,-53.32,-264.160,-300.293,1324.707,-11.40,-35.85,-34.65,16.96
10575,10.80,-6.47,-58.04,218.750,-650.879,949.707,-11.40,-35.85,-34.65,16.77
10585,-3.89,2.39,-49.88,-198.730,-812.012,690.918,-13.20,-35.25,-33.75,16.62
10595,-2.43,-6.52,-47.69,-25.391,-755.859,1602.539,-12.30,-37.05,-33.45,16.82
10605,-4.37,-4.82,-44.24,-146.973,-333.008,955.566,-12.30,-35.85,-35.40,16.91
10617,4.66,-0.18,-47.71,-326.172,-83.496,880.859,-13.80,-34.95,-33.45,16.96
10627,6.60,-0.43,-54.46,-115.234,-732.910,1540.527,-13.80,-34.95,-33.45,16.96
10637,-11.30,5.82,-51.05,-68.848,-849.121,1230.957,-11.85,-33.00,-35.40,16.82
10647,-7.68,2.08,-58.87,82.031,-594.238,1175.293,-13.35,-34.95,-35.40,16.91
10657,7.69,5.53,-54.31,-114.258,-403.809,806.641,-13.35,-34.95,-35.40,16.91
10667,11.40,9.07,-48.97,-32.227,-775.879,799.316,-13.50,-34.35,-34.50,16.72
10677,5.44,4.95,-48.29,-204.102,-534.180,1270.996,-13.35,-34.95,-35.40,16.91
10701,-4.74,-5.00,-46.53,-85.938,-1039.551,1169.922,-13.80,-34.20,-33.15,16.77
10710,-4.21,2.79,-57.56,-1.953,-203.613,668.945,-12.75,-34.05,-34.50,16.77
10720,7.33,-4.95,-49.82,-245.605,-515.137,988.770,-14.10,-33.00,-33.45,17.01
10730,-2.61,0.38,-47.89,-347.656,-413.574,429.199,-14.10,-33.00,-33.45,16.96
10740,11.96,0.31,-46.76,0.000,-737.305,1042.969,-12.75,-32.40,-34.50,16.91
10750,-0.35,0.76,-58.04,-102.539,-632.324,1426.270,-13.50,-32.85,-34.05,16.72
10760,3.69,7.89,-50.11,-155.273,-967.285,617.187,-13.95,-31.65,-34.50,16.58
10772,2.19,9.18,-52.24,-107.422,-540.527,1133.301,-12.45,-31.65,-34.05,16.82
10782,1.24,-0.10,-48.69,-513.672,-494.141,1108.887,-12.45,-31.65,-34.05,16.58
10792,-4.01,7.17,-52.08,-276.855,-92.285,907.715,-12.75,-32.85,-33.75,16.77
10802,-12.00,19.27,-47.94,549.316,-48.828,1152.832,-12.75,-31.95,-34.50,16.91
10812,-1.09,0.25,-64.98,771.484,-930.176,1677.734,-13.50,-32.40,-33.30,16.82
10822,-19.66,-10.74,4.06,874.512,-1393.555,-878.418,-14.40,-30.75,-34.05,16.96
10832,-5.06,42.11,9.89,-1882.324,-1106.445,813.477,-12.45,-29.55,-33.00,16.38
10844,12.97,15.05,-8.07,-510.742,-196.289,1685.059,-13.05,-31.35,-33.15,16.91
10854,-1.27,-1.99,-41.48,-289.551,-500.977,1999.939,-14.10,-30.15,-33.15,16.77
10864,24.85,13.24,-53.41,215.332,-224.121,420.410,-14.10,-30.15,-33.15,16.82
10874,-1.65,10.37,-43.92,-370.117,-487.305,519.531,-13.35,-29.85,-33.90,16.77
10884,4.68,5.12,-50.54,-293.945,-254.883,-384.766,-13.20,-28.80,-32.25,16.77
10894,9.60,8.42,-42.79,59.082,-1239.258,1999.939,-13.05,-30.15,-33.45,17.01
10906,5.16,3.80,-25.60,-175.293,-895.020,1642.090,-14.40,-29.55,-32.25,16.91
10916,6.66,-4.78,-48.30,92.285,-672.852,1999.939,-14.40,-29.55,-32.25,16.91
10926,19.69,-6.19,-46.08,-307.617,-1185.059,1210.938,-13.35,-29.85,-32.70,16.82
10936,22.75,-21.68,-50.36,-66.406,-683.594,1987.793,-15.15,-30.00,-32.55,16.58
10946,16.05,-18.34,-44.65,-243.652,-129.883,1230.469,-15.15,-30.00,-32.55,16.43
10956,24.55,-18.69,-49.98,-29.785,-700.684,1709.961,-13.95,-30.00,-30.75,16.82
10966,23.18,-13.85,-45.23,-166.504,-1757.324,1262.695,-13.35,-29.40,-28.95,16.82
10978,3.92,-24.90,-49.26,183.594,-1240.723,1999.939,-14.85,-29.40,-29.40,16.91
10988,-13.76,-15.49,-29.24,6.836,-528.809,1501.953,-16.20,-27.15,-29.10,16.91
10998,-15.13,-28.39,-63.80,214.355,319.824,1999.939,-16.20,-27.15,-29.10,16.91
11008,-24.53,-23.60,-67.05,-130.371,-754.395,169.434,-17.40,-28.35,-29.55,16.77
11018,-14.36,-28.19,-54.85,-2.441,-218.262,749.023,-15.90,-28.80,-29.10,16.62
11028,-2.15,-18.81,-66.91,-755.859,-23.437,1158.691,-15.90,-28.80,-29.10,16.96
11040,8.05,-12.98,-50.63,562.012,-269.043,1478.027,-18.60,-28.05,-29.55,16.62
11050,-15.60,-18.57,-55.83,-475.098,-817.871,1340.332,-18.75,-28.20,-28.95,16.77
11060,-25.73,-10.11,-53.75,244.629,-688.965,495.117,-18.75,-28.65,-28.95,16.62
11070,-22.41,-28.51,-62.69,-614.746,-509.766,618.652,-18.75,-28.65,-28.95,16.77
11080,-8.49,-17.67,-47.27,-129.883,-66.895,582.520,-20.10,-30.45,-29.85,16.82
11090,8.42,-26.42,-63.66,-55.176,34.668,737.305,-20.25,-29.40,-29.70,16.91
11102,29.40,-7.86,-56.65,230.469,-527.832,917.480,-18.90,-26.40,-29.55,16.82
11112,42.53,-7.12,-33.91,-611.816,-538.574,409.668,-19.95,-28.20,-28.95,16.82
11122,25.44,0.08,-46.51,-622.070,-1394.043,1999.939,-20.55,-25.65,-30.75,16.77
11132,27.85,-3.82,-39.92,-390.625,-1547.363,442.871,-19.65,-26.40,-29.10,16.77
11142,14.24,10.50,-42.49,-280.273,-1414.551,1134.277,-20.55,-26.85,-30.75,16.91
11152,0.33,20.77,-37.84,127.930,-598.633,616.211,-20.55,-26.85,-30.75,16.91
11162,-6.63,10.30,-47.53,271.973,-601.074,878.906,-21.90,-25.80,-30.90,16.91
11174,-4.92,31.97,-77.81,-698.730,-178.711,1076.172,-20.85,-24.90,-30.30,16.96
11184,16.63,1.62,-36.48,-76.660,-293.945,657.227,-19.65,-24.45,-29.85,16.82
11194,13.14,-2.76,-44.26,258.301,-1367.676,1842.773,-20.70,-25.80,-30.90,16.77
11204,14.83,2.78,-57.08,-87.891,-696.289,1012.207,-20.70,-25.80,-30.90,16.77
11220,-17.06,2.86,-49.13,-432.617,-359.863,1604.492,-21.00,-26.25,-30.15,16.72
11229,-2.63,4.92,-37.24,-437.012,184.570,1665.039,-21.00,-25.50,-30.15,16.96
11241,6.17,-2.88,-37.78,-215.820,-472.656,803.223,-22.20,-26.25,-28.95,17.10
11251,-1.92,-8.01,-37.35,-10.742,-19.531,266.602,-21.30,-23.25,-31.50,16.96
11261,2.13,-5.98,-39.95,-4.883,-959.473,1420.410,-19.95,-26.25,-28.95,16.91
11271,-11.23,-6.69,-47.68,58.105,-754.883,926.758,-21.60,-26.40,-29.85,17.01
11281,-14.05,-0.01,-43.69,-236.328,-512.695,1130.371,-21.60,-26.40,-29.85,16.77
11291,-10.80,-11.50,-49.62,-360.840,-78.125,1234.375,-21.30,-25.20,-29.85,16.48
11301,-3.47,-1.58,-37.47,308.594,-709.961,568.848,-22.05,-24.00,-29.85,16.96
11313,-6.34,-4.18,-44.51,-48.828,-298.828,341.797,-22.05,-24.00,-29.85,16.96
11323,2.27,0.60,-35.45,-131.348,-482.910,180.664,-22.20,-24.30,-31.65,16.77
11333,-2.66,-5.40,-50.67,304.199,-588.867,922.852,-22.20,-24.30,-29.70,16.91
11343,-14.11,-4.47,-37.81,-209.961,286.133,1086.426,-22.05,-25.95,-30.75,16.91
11353,-5.18,-2.65,-39.61,-9.766,-439.941,1294.922,-21.60,-23.70,-31.05,16.91
11363,-1.64,2.31,-39.30,229.004,-493.164,500.977,-21.60,-23.70,-31.05,16.62
11375,19.05,-1.41,-47.91,174.316,-452.148,681.641,-21.00,-25.05,-30.45,16.91
11385,20.23,9.45,-37.40,-354.004,-528.320,445.312,-22.05,-23.25,-30.30,16.91
11395,4.88,6.29,-39.32,-323.730,-1034.180,1999.939,-22.05,-23.25,-30.30,16.62
11405,15.74,5.17,-42.41,-253.418,-193.848,965.332,-21.60,-24.00,-31.05,16.82
11415,20.02,4.49,-42.06,659.180,-628.418,720.703,-21.60,-23.70,-29.85,16.91
11425,9.85,10.27,-34.86,68.359,-321.289,1226.563,-21.60,-25.20,-29.85,17.25
11435,2.70,-7.83,-53.21,69.824,-647.949,1999.939,-22.20,-21.90,-29.70,16.96
11447,2.46,-9.46,-40.25,-104.492,-190.430,1999.939,-22.20,-21.90,-29.70,17.01
11457,6.93,-7.39,-40.56,121.094,-530.273,911.621,-22.65,-22.65,-30.15,16.82
11467,5.04,-6.16,-32.61,223.145,-105.469,1017.090,-22.20,-23.10,-28.95,16.72
11477,5.13,-16.14,-35.15,-87.891,-324.707,1999.939,-22.95,-23.85,-29.70,16.91
11487,6.73,-10.82,-33.29,234.863,-535.645,650.879,-24.60,-22.65,-31.65,17.01
11497,-2.19,-6.91,-44.47,5.859,-231.934,869.629,-21.90,-21.45,-29.40,16.77
11509,-4.28,-6.91,-39.37,222.168,-242.187,544.434,-24.30,-22.80,-29.55,16.96
11519,-6.69,-5.39,-34.44,-134.766,-40.527,387.695,-23.25,-20.10,-30.75,16.91
11529,-9.86,0.90,-46.97,-149.414,-664.551,1194.824,-23.25,-20.10,-30.75,16.91
11539,-13.63,0.90,-33.89,101.074,-273.926,363.770,-22.95,-22.65,-31.20,16.96
11549,-21.70,8.00,-37.45,-164.062,-135.254,1174.316,-22.65,-21.45,-30.15,16.77
11559,-11.44,4.07,-36.80,-225.098,-98.633,1812.012,-24.00,-23.25,-29.55,16.77
11569,1.87,8.37,-30.39,189.941,-494.629,414.062,-22.95,-19.80,-31.20,17.10
11580,3.88,0.79,-46.49,-55.664,10.742,1322.266,-22.95,-19.80,-31.20,16.96
11590,21.72,0.56,-46.80,787.598,-540.527,-276.855,-22.65,-20.70,-30.90,16.96
11600,-1.45,1.08,-42.79,-701.660,272.461,1303.223,-22.65,-20.70,-30.90,16.96
11610,16.53,-7.89,-39.21,110.352,-929.687,295.410,-22.65,-20.70,-30.90,16.77
11620,5.96,-8.20,-47.22,-228.027,458.008,1212.402,-23.40,-19.80,-31.65,16.62
11630,5.67,-13.46,-32.73,83.984,-1399.902,1999.939,-23.40,-19.80,-31.65,16.91
11642,9.18,-5.82,-38.44,830.078,-978.516,1999.939,-22.20,-21.00,-30.90,16.62
11652,5.85,-0.51,-40.77,-165.527,-266.602,488.770,-22.20,-21.00,-30.90,16.96
11662,0.22,-10.78,-31.87,179.687,-806.152,1999.939,-23.40,-21.00,-29.70,17.10
11672,16.42,-1.80,-37.72,218.262,-652.832,273.437,-23.40,-19.80,-31.20,16.82
11682,-13.36,4.30,-38.97,-710.937,243.164,517.090,-23.40,-19.80,-31.20,16.96
11692,10.60,-1.50,-32.07,881.836,-1187.012,-479.004,-23.40,-21.90,-30.90,16.91
11702,-24.39,4.11,-36.70,101.074,-67.383,412.598,-23.40,-19.05,-31.20,16.77
11714,-18.32,-2.28,-41.35,191.406,-729.492,49.805,-22.95,-19.05,-29.70,16.91
11724,-20.23,2.13,-41.53,-599.609,93.262,1459.473,-23.55,-20.85,-32.25,16.62
11739,-2.67,-6.38,-42.40,267.578,-378.418,1120.117,-23.55,-20.85,-32.25,16.72
11748,3.18,5.74,-45.24,-38.086,-650.879,636.719,-22.35,-20.85,-30.75,16.96
11758,1.45,-8.68,-43.99,-30.762,-820.312,1999.939,-24.90,-19.80,-31.20,16.96
11768,8.14,-2.53,-40.94,398.437,-649.414,335.449,-24.90,-19.80,-31.20,16.77
11780,3.13,-8.56,-33.69,375.977,-873.047,178.223,-24.00,-20.40,-30.45,16.96
11790,-15.58,4.35,-38.27,-304.199,48.340,325.195,-24.00,-20.40,-31.05,16.77
11800,-7.57,-8.17,-47.23,267.090,-719.238,1703.125,-24.30,-18.45,-31.80,16.77
11810,-2.05,2.25,-37.53,119.141,-278.809,650.879,-22.95,-19.80,-29.70,16.77
11820,-18.92,4.36,-41.59,-824.707,432.617,1133.301,-22.95,-19.80,-29.70,16.82
11830,1.71,2.46,-32.84,209.473,-149.902,332.520,-22.80,-18.45,-30.30,17.01
11842,10.99,-0.37,-39.27,502.930,-633.789,-167.969,-23.40,-19.50,-31.20,16.96
11852,-3.61,5.66,-29.82,-396.484,-9.277,614.746,-22.95,-18.30,-30.15,16.91
11862,9.86,-1.88,-35.87,487.793,-754.395,711.426,-22.20,-19.50,-30.90,16.82
11872,14.70,5.36,-34.31,-520.020,-585.937,392.090,-23.25,-18.00,-30.30,16.77
11882,19.05,-5.96,-24.05,717.285,-1355.957,1999.939,-22.65,-17.40,-28.95,16.72
11892,-3.93,2.82,-40.84,-275.879,181.641,397.461,-22.65,-17.40,-28.95,16.96
11902,7.63,-6.24,-35.71,783.203,-363.281,834.473,-23.70,-19.05,-30.45,16.82
11914,22.27,-10.40,-47.18,659.180,-706.055,1072.266,-23.25,-17.25,-29.55,16.91
11924,-14.90,-6.87,-48.09,-522.461,265.625,669.434,-22.80,-20.10,-29.10,16.82
11934,15.18,-13.52,-41.95,1472.168,-1019.043,-440.918,-23.40,-16.65,-30.45,17.01
11944,-20.90,11.46,-22.12,25.879,349.121,-406.738,-23.40,-16.65,-30.45,16.91
11954,-6.27,-7.98,-24.37,645.996,-484.375,-273.926,-22.95,-18.30,-28.95,16.62
11964,-23.92,5.76,-42.67,-562.012,35.156,574.707,-23.40,-17.10,-30.90,16.82
11976,-16.27,6.30,-44.15,-711.426,4.395,894.531,-23.40,-17.10,-30.90,16.77
11986,8.84,-6.73,-32.01,1022.461,-685.547,811.523,-23.40,-17.10,-29.70,16.82
11996,-6.87,13.31,-31.08,-222.656,-116.211,258.789,-24.00,-16.50,-32.25,16.91
12006,5.77,-6.60,-50.05,890.625,-788.574,886.230,-23.40,-16.20,-30.45,16.91
12016,-7.06,10.72,-30.64,-112.305,-110.352,605.469,-23.70,-18.30,-30.90,16.91
12026,-0.73,0.24,-42.61,366.699,-761.230,1872.070,-23.70,-18.30,-30.90,16.72
12036,-10.37,4.34,-45.28,-168.945,-67.383,786.621,-24.15,-15.00,-30.45,16.77
12048,-41.13,70.63,-55.99,-2000.000,-2000.000,1159.180,-23.70,-17.85,-29.70,16.91
12058,37.93,-9.35,-77.71,304.687,-588.867,1234.375,-23.70,-17.85,-29.70,16.43
12068,28.12,-1.43,-40.97,557.129,-857.422,323.242,-22.80,-14.40,-29.10,16.96
12078,20.32,-5.98,-37.35,-34.668,-1176.758,1999.939,-22.05,-15.60,-29.10,16.82
12088,14.79,-4.41,-36.24,318.359,-657.715,893.066,-22.35,-16.50,-30.30,16.96
12098,-7.09,-4.95,-31.86,-245.117,-886.230,1249.512,-22.80,-14.40,-29.10,16.82
12110,-36.39,-5.32,-40.66,-192.383,-77.637,859.375,-22.80,-14.40,-29.10,16.91
12120,-9.87,-4.85,-31.56,-441.895,240.234,1226.563,-22.95,-15.45,-28.65,16.77
12130,7.00,-8.22,-46.98,668.945,-844.238,1562.012,-23.70,-12.75,-30.15,16.91
12140,-4.73,3.56,-39.62,-571.777,59.082,795.898,-23.70,-12.75,-30.15,16.72
12150,12.88,-0.11,-31.14,595.215,-719.727,1486.328,-23.25,-15.30,-29.85,16.82
12160,-6.18,1.73,-26.65,-838.867,-143.066,803.711,-24.00,-14.10,-28.80,16.91
12170,8.79,1.18,-43.24,1020.508,-671.875,-105.957,-24.15,-13.80,-30.15,16.96
12182,15.62,-0.89,-37.06,-70.801,-829.590,-413.574,-22.65,-15.00,-29.40,16.82
12192,-3.15,0.13,-46.51,213.867,-501.953,1090.820,-22.65,-11.55,-31.20,17.01
12202,-1.48,0.97,-42.42,-701.660,-417.969,-71.289,-23.25,-14.40,-30.75,16.77
12212,6.31,-6.40,-35.42,591.797,-1305.176,1999.939,-23.70,-14.70,-31.65,16.96
12222,-9.41,4.79,-25.07,-291.992,-362.305,755.371,-23.40,-11.55,-31.20,16.58
12232,4.31,5.29,-42.93,45.410,-419.434,343.262,-21.30,-12.90,-30.75,16.77
12242,11.61,-6.90,-45.63,726.074,-639.160,1999.939,-22.80,-14.40,-31.50,16.82
12259,6.02,-3.59,-45.05,406.738,-571.289,1999.939,-21.90,-11.85,-32.40,16.77
12268,2.40,2.98,-41.53,-261.230,-524.414,426.758,-21.90,-11.85,-32.40,16.82
12278,6.02,1.37,-43.37,120.605,-335.937,45.410,-22.35,-14.10,-30.30,16.96
12288,9.48,-0.85,-30.85,676.270,-1187.988,1784.668,-21.90,-11.55,-31.65,16.82
12298,-11.61,-0.93,-43.01,3.418,-407.227,940.918,-22.35,-10.95,-31.80,16.91
12308,-10.80,-3.31,-41.26,-306.641,-541.992,613.281,-21.30,-12.15,-29.85,16.82
12318,-16.95,4.06,-41.73,126.465,-608.887,1115.723,-21.30,-12.15,-29.85,16.77
12330,-16.69,1.28,-27.85,386.719,-910.645,494.141,-22.65,-9.45,-31.20,16.72
12340,-13.98,-6.50,-33.21,-335.937,20.020,1831.543,-21.45,-13.05,-30.45,16.96
12350,2.51,3.26,-40.31,-259.766,-151.855,1083.008,-21.45,-13.05,-30.45,16.91
12360,12.79,5.27,-44.39,440.430,-488.770,893.555,-21.30,-10.95,-31.80,16.77
12370,6.27,-0.74,-36.64,-45.898,-404.297,867.676,-19.65,-10.95,-31.80,16.58
12380,2.68,1.09,-43.80,-196.777,-479.492,1541.992,-21.45,-13.05,-30.15,16.91
12390,14.95,-7.64,-38.02,155.273,-1198.242,717.285,-20.70,-12.75,-30.45,16.82
12402,2.02,6.02,-45.46,-244.141,-168.457,1027.832,-21.30,-9.75,-30.75,16.82
12412,5.02,9.42,-40.28,213.867,-1146.484,1746.582,-20.55,-13.20,-30.75,16.96
12422,-18.69,16.03,-50.49,-594.727,-246.582,742.676,-20.55,-13.20,-30.75,16.77
12432,10.22,12.62,-47.72,-61.035,-433.594,787.109,-20.70,-8.70,-28.95,16.91
12442,21.51,11.05,-43.88,632.812,-1414.551,1497.070,-20.70,-12.30,-29.70,16.82
12452,6.05,5.82,-74.31,691.406,-1620.117,351.562,-20.55,-10.95,-29.10,16.72
12464,-22.85,8.39,-51.08,-125.000,555.664,1578.125,-20.70,-9.15,-30.45,16.77
12474,-11.24,-0.45,-54.48,-413.574,30.273,438.965,-20.70,-9.15,-30.45,16.62
12484,13.01,-17.11,-38.53,294.434,-1169.434,847.168,-19.65,-9.30,-31.50,16.96
12494,2.40,1.13,-67.79,753.906,-1416.504,123.535,-20.25,-11.10,-29.70,16.96
12504,-21.14,-19.74,-129.04,-83.984,-903.809,1034.180,-19.50,-9.15,-29.70,16.82
12514,21.92,-2.69,-14.36,114.746,-908.691,1248.535,-19.50,-8.25,-29.70,16.96
12524,24.17,-8.08,-37.59,-52.734,-2000.000,1372.070,-19.95,-7.05,-29.70,16.91
12536,8.48,-10.47,-44.05,35.645,-909.180,1721.191,-19.65,-9.30,-29.55,16.77
12546,-3.68,-0.10,-35.19,286.133,-1365.234,754.883,-19.20,-9.15,-30.90,16.91
12556,-24.36,6.95,-46.50,-391.602,8.789,1310.059,-19.20,-9.15,-30.90,16.82
12566,-12.91,3.78,-63.88,-449.707,378.906,1373.535,-18.75,-8.25,-29.40,17.10
12576,3.16,4.43,-35.55,38.574,-337.402,844.238,-18.75,-9.15,-30.15,16.91
12586,7.09,-0.65,-46.99,716.797,-1009.277,751.953,-19.95,-7.50,-29.40,16.72
12598,8.36,3.20,-49.44,-74.219,-434.570,478.027,-19.50,-7.95,-28.95,16.96
12608,27.03,-0.65,-32.56,291.016,-560.547,234.863,-19.50,-7.95,-28.95,16.77
12618,17.40,2.79,-23.81,31.250,-979.980,676.270,-20.25,-10.65,-29.40,16.77
12628,9.45,-5.93,-45.30,315.918,-933.105,657.715,-19.20,-9.90,-31.20,16.91
12638,-13.05,1.12,-34.59,-117.676,-1100.586,538.086,-19.20,-9.90,-31.20,16.48
12648,-17.57,-11.53,-35.37,-378.418,-442.383,215.820,-18.15,-7.35,-30.75,16.82
12658,-8.44,-1.52,-34.68,-136.719,-77.637,1111.328,-19.95,-8.70,-28.95,16.91
12670,-4.62,-2.96,-28.31,198.242,-851.074,1400.879,-19.35,-8.85,-29.55,16.91
12680,-21.25,-6.73,-44.82,-241.211,166.504,419.434,-19.20,-6.30,-31.20,16.82
12690,4.21,-6.34,-32.92,-381.348,-282.227,769.531,-19.20,-6.30,-31.20,16.77
12700,14.94,-3.55,-25.81,381.836,-385.742,991.699,-18.45,-8.70,-30.15,16.96
12710,4.48,-7.76,-39.85,127.441,-1514.160,1887.695,-18.15,-8.55,-30.30,16.82
12720,-7.92,6.24,-51.13,195.312,-1141.113,1026.367,-18.15,-8.55,-30.30,16.58
12730,-59.08,20.51,-61.54,45.410,-333.984,303.711,-17.40,-5.70,-29.85,16.91
12742,4.34,-1.89,-45.69,817.871,-624.023,1011.719,-17.40,-6.90,-29.85,16.82
12752,-2.87,3.57,-42.63,-129.395,-569.824,1983.398,-18.00,-5.10,-29.40,16.82
12762,-10.16,9.72,-52.39,-103.027,-374.023,352.539,-18.00,-5.10,-30.45,16.91
12777,-37.64,-2.11,-47.65,-466.797,-316.406,1031.738,-16.50,-7.05,-29.40,16.43
12786,-13.28,-1.47,-43.67,79.102,278.320,1115.234,-15.75,-6.75,-30.15,16.58
12798,10.78,-7.57,-53.57,355.469,-728.516,1583.496,-16.20,-6.15,-29.10,16.91
12808,10.82,-10.41,-36.05,-58.105,-187.500,965.820,-17.85,-3.75,-28.35,16.82
12818,20.50,-11.83,-46.71,-128.906,-1195.801,1489.746,-15.90,-4.95,-28.05,17.01
12828,3.73,-5.65,-35.82,-929.199,-325.684,1547.363,-17.85,-6.45,-28.35,16.91
12838,15.30,-1.16,-52.15,-485.840,-825.684,949.707,-17.55,-7.05,-29.40,16.91
12848,17.77,2.13,-43.14,433.105,-1093.750,599.121,-17.55,-7.05,-29.40,16.96
12858,6.07,2.08,-26.61,715.332,-1483.887,860.352,-16.80,-3.90,-30.15,16.62
12870,-8.71,13.26,-14.45,-1090.820,-346.191,1022.949,-17.55,-4.35,-29.40,16.91
12880,10.32,8.62,-28.11,-44.434,-364.746,1583.008,-16.65,-5.25,-30.75,16.91
12890,15.81,4.31,-38.71,-137.695,-1169.922,1999.939,-15.75,-4.35,-30.45,16.48
12900,6.89,-1.10,-54.18,501.465,-808.105,1351.563,-15.75,-4.35,-30.45,16.91
12910,-1.70,-2.68,-44.86,173.340,-1074.219,-41.504,-15.30,-3.45,-30.90,16.77
12920,-19.01,7.05,-40.18,-158.691,-265.137,911.133,-15.75,-5.10,-30.45,17.01
12932,6.88,1.13,-54.05,-410.156,-594.727,776.367,-15.75,-5.10,-30.45,16.77
12942,5.10,-4.12,-46.93,279.785,-1900.391,937.988,-15.15,-2.10,-31.50,16.82
12952,8.10,-0.61,-50.63,52.246,-1275.391,292.480,-14.55,-3.45,-30.45,16.82
12962,-5.45,1.17,-48.18,557.617,-1465.820,-108.887,-14.55,-4.65,-30.15,16.72
12972,-14.55,2.73,-60.43,40.039,-140.137,973.633,-14.55,-4.65,-30.90,16.82
12982,-10.50,-5.80,-43.11,893.066,-1177.246,713.379,-14.55,-4.65,-30.90,16.96
12992,-4.58,-6.77,-48.79,465.332,-1275.879,1286.621,-15.15,-2.10,-29.85,16.62
13004,5.45,-5.73,-47.85,-1057.129,398.437,1956.543,-14.10,-3.15,-31.65,16.91
13014,17.55,6.98,-48.43,-805.664,-595.215,991.211,-14.10,-2.70,-31.20,16.82
13024,17.98,-1.29,-60.11,25.391,-1353.027,1417.969,-14.70,-2.85,-31.80,16.77
13034,25.69,-2.85,-37.85,-697.266,-1163.086,431.641,-13.80,-1.05,-30.90,16.91
13044,33.44,0.41,-41.21,457.031,-2000.000,1500.000,-12.60,-2.25,-31.95,16.82
13054,19.98,12.34,-38.73,186.523,-2000.000,-37.109,-12.60,-2.25,-31.95,16.58
13066,-0.08,4.98,-47.27,-30.762,-500.977,1456.543,-11.10,-1.05,-32.40,16.62
13076,-14.26,-4.02,-53.37,-191.406,-775.879,1004.883,-10.65,0.30,-32.70,16.48
13086,-8.53,-6.64,-53.32,-377.930,-440.918,1847.168,-10.65,0.30,-32.70,16.91
13096,-1.56,-1.81,-58.66,-176.270,-555.176,1858.398,-11.85,-2.25,-32.70,16.82
13106,-3.05,-1.42,-52.79,-129.395,-371.094,1720.703,-12.60,-0.75,-31.95,16.96
13116,2.82,2.60,-54.78,-96.191,-307.617,424.805,-12.45,-0.90,-32.55,16.96
13126,12.76,-4.14,-57.79,-215.332,-359.863,1091.797,-12.45,-0.90,-32.25,17.10
13138,6.11,2.23,-45.30,-489.258,-257.324,1100.098,-12.45,-0.90,-32.25,16.77
13148,12.53,1.50,-49.48,-298.828,-785.156,626.465,-12.00,-0.90,-31.50,16.77
13158,3.76,4.44,-49.56,-55.176,-1380.371,547.852,-12.30,-1.95,-32.40,16.58
13168,-13.48,-0.43,-48.33,-424.805,-836.914,611.816,-11.10,0.75,-32.70,16.82
13178,-3.63,-3.42,-48.96,-162.109,-875.000,789.551,-11.10,0.00,-32.70,16.91
13188,0.67,-2.83,-44.94,-530.273,-895.020,811.523,-11.10,0.00,-33.45,16.62
13198,6.32,-0.10,-57.90,-40.039,-1070.313,1437.500,-11.10,-0.30,-33.15,16.96
13210,8.09,-2.63,-42.78,15.137,-797.852,1030.762,-10.50,0.45,-32.55,16.77
13220,5.38,1.14,-46.80,-536.621,-11.719,1054.688,-10.50,0.45,-32.55,16.58
13230,3.05,2.44,-49.95,19.531,-598.633,986.816,-8.70,0.00,-33.15,16.72
13240,-3.37,0.70,-53.67,-356.934,-345.215,1316.406,-9.75,0.45,-33.30,16.58
13250,-0.54,-3.11,-56.27,-261.719,-961.426,1255.371,-9.90,0.00,-33.90,16.77
13260,-7.42,-7.74,-47.60,144.043,-709.473,777.344,-9.90,1.05,-33.45,16.82
13272,3.15,-5.08,-48.12,-257.812,-1008.301,1187.500,-9.90,1.05,-33.45,16.77
13282,1.69,-0.83,-53.56,-214.844,-781.250,740.234,-7.80,0.15,-33.30,16.96
13297,9.08,-10.79,-46.45,-345.703,-874.512,745.117,-9.90,0.75,-32.70,16.72
13306,14.67,-5.93,-53.19,20.020,-801.758,1812.988,-8.55,0.15,-31.80,16.58
13316,6.23,-2.63,-47.46,-481.934,-1187.012,592.285,-9.00,1.35,-33.75,16.96
13326,13.88,-8.21,-49.18,11.719,-1263.184,1163.086,-8.55,0.90,-33.75,16.91
13336,9.44,2.84,-49.69,-271.484,-986.328,1042.480,-7.20,0.75,-33.15,16.91
13346,-3.90,-3.44,-49.37,-50.781,-1247.070,471.191,-7.20,0.75,-33.15,16.82
13358,8.57,0.26,-52.13,-144.043,-911.133,1079.590,-7.95,0.75,-33.45,16.96
13368,7.21,2.01,-52.61,-287.109,-513.184,908.203,-7.65,0.30,-32.70,16.72
13378,9.07,-0.47,-52.80,-269.531,-622.070,1999.939,-7.65,0.30,-32.70,16.77
13388,-0.56,8.13,-54.82,-197.754,-598.145,844.238,-5.55,1.35,-33.30,16.62
13398,-0.08,3.40,-47.46,-151.367,-937.988,1196.289,-5.70,1.05,-33.45,16.82
13408,-3.99,0.40,-46.49,-158.203,-250.977,995.117,-7.80,2.10,-33.75,16.91
13420,-6.68,-4.72,-62.56,-193.848,-402.832,915.039,-5.85,2.10,-34.05,17.01
13430,0.00,-3.67,-53.44,-238.281,-284.180,1020.020,-5.85,2.10,-34.05,16.77
13440,7.37,-3.11,-50.93,-179.687,-1007.812,1259.277,-6.45,1.95,-33.15,16.77
13450,8.35,-10.49,-52.80,-167.969,-1125.488,1169.434,-7.05,2.55,-34.50,16.96
13460,4.04,-3.19,-55.07,-417.480,-341.797,937.012,-7.05,2.55,-34.50,16.82
13470,10.50,-4.98,-51.01,-282.227,-749.023,1081.543,-7.05,1.65,-35.25,16.43
13480,-0.89,3.58,-47.75,-345.215,-607.910,1839.355,-5.85,2.10,-36.00,16.91
13492,-4.91,4.31,-48.59,-282.715,-1026.855,1139.648,-5.10,2.85,-35.55,16.58
13502,2.05,2.46,-47.87,1.953,-881.836,1093.750,-3.60,2.85,-36.30,16.72
13512,-0.33,1.19,-51.25,43.945,-476.562,1011.230,-3.60,2.85,-36.30,16.91
13522,2.90,5.27,-41.63,-4.883,-741.699,625.977,-4.50,1.95,-35.70,16.96
13532,1.02,-4.79,-59.69,-75.684,-667.969,1360.352,-3.75,1.05,-35.40,16.77
13542,-3.02,-1.95,-55.64,9.277,-365.723,727.051,-3.90,1.35,-34.80,16.43
13552,-1.30,-2.69,-50.47,-224.609,-841.797,1102.539,-3.90,2.10,-34.50,16.48
13564,-3.83,-7.03,-45.38,-113.281,-502.930,1137.207,-3.60,1.65,-35.55,16.58
13574,-0.56,-8.22,-49.95,-36.621,-825.195,548.828,-2.25,1.50,-36.15,16.77
13584,-1.18,-13.82,-47.67,102.051,-499.023,1376.953,-2.25,1.50,-36.15,16.82
13594,-3.62,-12.62,-48.18,-504.883,-199.707,1354.980,0.00,2.70,-35.70,16.82
13604,6.11,-7.50,-46.60,-72.754,-42.969,954.590,-1.05,2.25,-35.40,17.01
13614,15.51,-8.59,-43.56,-41.504,-648.926,1390.137,-0.45,1.35,-35.25,16.91
13624,12.88,-2.98,-47.31,-275.391,-545.410,601.074,-0.30,2.25,-33.90,16.72
13636,9.68,2.27,-46.52,-150.391,-837.402,464.355,-0.30,2.25,-33.90,16.91
13646,-2.65,5.44,-35.50,-47.363,-398.437,1453.125,-0.75,1.95,-31.95,16.62
13656,-6.96,-3.96,-38.57,-6.348,-1016.113,1112.793,-1.05,2.70,-33.90,16.62
13666,-10.73,3.07,-43.71,-279.785,-751.465,1114.258,-1.05,2.70,-33.90,16.72
13676,-9.83,4.02,-41.78,-158.203,-336.426,413.574,-1.20,2.85,-33.00,16.72
13686,-3.83,11.44,-33.30,-283.203,-413.574,1016.113,-0.75,2.25,-34.65,17.01
13698,17.60,12.20,-34.62,26.367,-190.918,1067.383,-0.30,2.70,-34.20,17.01
13708,10.98,10.09,-39.50,-486.328,-1468.262,1074.219,-0.75,1.50,-32.40,16.82
13718,1.35,11.95,-35.63,105.957,-1111.328,942.383,-0.75,1.50,-32.40,16.91
13727,-10.81,8.72,-45.15,-53.223,-960.937,811.523,-1.50,1.50,-33.45,16.72
13737,-29.34,6.76,-46.62,8.301,-251.465,297.363,0.00,2.70,-32.70,16.91
13746,-18.66,7.79,-41.99,-336.426,-397.949,1999.939,0.00,2.70,-32.70,16.82
13756,-7.56,5.38,-49.78,68.848,-503.418,253.418,0.15,2.85,-33.00,16.72
13767,-12.41,1.15,-44.38,124.023,-209.961,699.707,0.45,2.10,-34.05,16.96
13777,4.77,-4.39,-33.95,-253.418,-1256.836,1132.324,1.65,1.65,-34.05,16.82
13787,5.07,3.35,-44.86,-135.742,-388.672,1787.109,0.00,1.95,-33.90,16.82
13796,-0.47,-5.70,-41.21,-341.309,-481.934,1383.301,0.00,1.95,-33.90,16.96
13810,-17.95,-19.11,-40.53,231.934,-693.848,1999.939,0.75,1.05,-33.15,16.77
13820,-12.20,-14.20,-36.26,-74.707,136.230,211.914,2.10,0.90,-34.50,16.96
13830,11.92,-21.11,-28.78,-297.363,-932.617,1999.939,2.10,0.90,-34.50,16.77
13840,12.60,-15.33,-42.64,34.668,-529.785,1999.939,1.50,1.50,-34.65,16.82
13852,8.11,-14.17,-36.93,-399.902,-697.754,424.805,0.30,0.75,-33.90,16.96
13862,6.79,-21.65,-41.86,115.723,-384.277,613.770,1.80,1.50,-34.65,16.77
13872,4.39,-35.39,-42.19,-183.105,-352.051,1999.939,0.75,1.05,-34.65,16.96
13882,4.25,-18.43,-35.98,-454.590,-1602.539,257.324,0.75,1.05,-34.65,16.91
13892,4.63,-34.98,-37.31,39.551,-617.676,1045.410,1.50,0.30,-33.90,16.58
13902,4.43,-30.49,-40.69,0.977,-11.230,613.281,0.30,0.75,-34.20,16.96
13911,5.73,-31.60,-45.38,362.793,485.840,1047.363,0.00,1.50,-33.90,16.77
13923,-14.82,-37.94,-35.45,-134.766,-927.734,1508.789,-0.30,1.05,-34.20,16.77
13933,-23.36,-35.05,-57.50,-39.063,-1477.539,1729.980,-0.30,1.05,-34.20,16.96
13943,-31.46,-21.09,-33.52,-34.180,-764.648,19.043,1.65,1.35,-34.05,16.91
13953,-15.21,-32.25,-35.40,258.789,-1121.582,1734.863,0.45,0.90,-35.25,16.82
13963,-17.95,-15.44,-45.80,-586.914,-488.770,968.262,0.45,0.90,-35.25,16.62
13973,-18.79,-17.69,-40.86,-618.164,-314.941,556.641,0.00,0.30,-33.45,16.77
13985,3.24,6.06,-37.11,-373.535,-227.539,680.664,0.90,0.45,-35.25,16.62
13995,4.07,14.83,-38.03,-833.984,-536.621,931.641,1.50,0.75,-35.40,16.77
14005,16.44,23.85,-44.84,-162.598,-441.895,941.895,1.50,0.75,-35.40,17.10
14014,12.18,27.08,-39.88,-224.609,-868.164,20.508,1.50,0.75,-35.40,16.91
14024,3.88,23.84,-50.61,-31.738,-1232.422,1331.055,1.50,2.25,-35.40,16.82
14033,-12.15,22.53,-45.43,130.371,-863.281,660.156,1.65,0.90,-33.75,16.96
14043,-16.75,21.50,-45.56,-207.520,-687.988,1163.086,1.65,0.90,-33.75,16.91
14055,-2.25,24.21,-45.76,-259.277,154.785,1885.254,2.55,0.30,-34.65,16.96
14065,12.79,16.67,-48.40,304.199,-497.070,1567.871,3.60,0.90,-35.55,16.82
14075,-2.97,12.32,-37.02,-417.480,-534.668,940.430,4.35,0.90,-34.80,16.82
14085,7.73,7.15,-55.24,222.656,-735.840,716.309,4.35,0.90,-34.80,16.77
14095,3.80,3.21,-38.24,-140.137,-832.520,1365.723,3.15,1.65,-34.80,16.91
14105,5.49,4.87,-52.08,-0.488,-620.605,892.090,3.90,0.90,-34.80,16.48
14114,4.48,1.50,-52.40,257.324,-654.297,-137.207,3.90,0.90,-34.80,16.77
14126,1.74,2.50,-50.57,-59.082,-990.234,1169.434,4.50,1.95,-36.15,16.82
14136,-9.54,-3.60,-52.60,38.574,-281.738,1345.215,5.70,1.95,-34.65,16.96
14146,-1.60,-0.81,-55.49,-191.406,-34.668,683.594,6.90,1.05,-33.90,16.72
14156,2.56,-4.02,-62.40,-20.508,-664.551,750.977,6.30,1.65,-34.50,16.77
14166,13.63,-3.05,-50.35,-527.344,-698.730,1475.586,6.30,1.65,-34.50,16.72
14176,9.46,-4.85,-47.95,13.184,-1544.922,702.148,5.85,1.35,-36.00,16.48
14185,-2.54,-0.90,-56.63,17.090,-977.539,937.988,5.70,0.75,-35.70,16.82
14197,4.74,0.50,-42.71,1.465,-539.551,491.699,6.45,1.05,-34.65,17.01
14206,-0.86,2.23,-49.53,-208.496,-616.211,661.133,6.60,1.65,-35.25,16.82
14216,0.96,2.27,-52.39,-372.070,-895.996,1222.656,6.60,1.65,-35.25,16.91
14225,5.18,1.16,-56.57,17.090,-536.621,1187.500,7.95,0.75,-34.95,16.91
14235,-3.54,4.71,-53.17,-242.676,-397.461,933.594,7.05,0.45,-36.00,16.72
14245,4.95,-0.95,-44.49,-54.199,-1020.020,1308.594,7.05,0.45,-36.00,17.10
14255,-1.32,11.29,-44.87,-157.227,-947.266,644.043,8.25,0.90,-34.80,16.91
14266,-0.60,6.50,-51.15,38.086,-706.543,312.500,7.20,1.95,-36.15,16.82
14276,-5.56,1.15,-46.87,-480.957,-496.582,1226.074,8.55,1.65,-34.80,16.91
14286,1.67,4.29,-47.72,-117.188,-611.328,1072.754,8.40,1.05,-36.15,16.62
14295,-0.33,5.22,-48.48,-152.832,-854.492,1344.238,8.40,1.05,-36.15,17.10
14305,7.58,2.21,-50.02,-174.316,-441.895,1154.785,9.60,1.05,-36.15,16.82
14319,6.35,7.02,-50.53,-105.469,-750.000,803.711,10.35,1.50,-35.40,16.58
14329,3.95,0.09,-55.37,-344.238,-641.602,1432.129,10.35,1.50,-35.40,16.82
14340,2.05,2.96,-49.49,-301.270,-605.957,746.094,8.40,0.75,-34.65,16.77
14350,2.06,-1.65,-51.30,-153.809,-497.070,1433.594,9.60,-0.30,-35.40,16.82
14360,3.27,-0.41,-42.64,-109.375,-529.785,748.047,11.25,0.15,-34.80,16.96
14370,-2.97,-2.49,-49.55,-444.336,-363.770,1195.313,10.50,2.10,-35.25,16.91
14380,11.68,-0.22,-52.74,158.203,-665.527,531.250,10.50,2.10,-35.25,16.91
14390,3.37,8.50,-46.29,-516.113,-555.176,351.074,10.05,-0.15,-36.75,16.72
14400,2.29,-4.46,-43.51,-111.328,-654.785,1261.719,11.10,0.75,-34.95,16.82
14412,6.56,-7.77,-48.60,-93.750,-1113.770,1740.234,11.10,0.75,-34.95,16.62
14422,0.38,-4.27,-47.89,5.859,-986.816,1081.055,11.10,0.30,-35.70,16.77
14432,-1.92,-2.93,-50.60,-205.078,-470.703,703.125,11.70,0.15,-36.75,16.96
14442,0.80,-8.01,-54.62,207.031,-1578.613,1168.945,10.95,-1.35,-36.00,16.91
14452,-11.63,-2.81,-49.78,-213.379,-293.457,1519.043,10.95,0.15,-36.00,17.15
14462,-10.53,-7.42,-58.64,-201.660,-1.465,1897.461,10.95,0.15,-36.00,16.96
14472,3.08,-9.63,-50.27,204.102,-228.516,1120.117,12.30,-0.75,-35.70,16.91
14484,10.56,-3.73,-44.49,-287.598,-469.727,228.516,12.45,-0.15,-37.05,16.91
14494,2.25,-2.44,-48.95,-449.707,-957.031,1350.098,11.40,0.00,-35.70,16.48
14504,3.56,-7.47,-51.67,-270.020,-604.004,581.055,12.60,-0.30,-36.15,16.77
14514,-2.37,4.95,-49.47,70.801,-966.309,557.617,13.35,-1.05,-36.60,16.77
14524,-3.56,-2.69,-49.07,-59.082,-543.457,1309.082,13.35,0.00,-36.15,16.96
14534,-8.21,-5.96,-46.23,-248.535,-627.930,1266.602,13.20,-1.35,-35.25,16.96
14546,-3.43,-0.84,-48.70,-308.594,-313.477,994.629,13.35,-1.95,-37.35,16.82
14556,5.53,-0.12,-51.78,-115.723,-813.477,1288.086,13.95,-1.35,-35.55,16.91
14566,0.92,2.93,-52.50,-353.027,-584.961,1619.629,13.20,-0.90,-36.00,16.82
14576,10.76,4.82,-44.01,-140.137,-902.832,675.293,15.30,-0.75,-35.40,16.91
14586,0.75,8.88,-53.61,-315.430,-550.293,522.461,15.30,-0.75,-35.40,16.77
14596,6.24,-1.69,-64.66,-248.047,-431.641,918.945,14.70,-1.65,-37.50,16.96
14606,1.75,1.96,-52.93,-44.922,-543.945,1168.457,14.70,-0.90,-36.75,16.91
14618,-2.76,-0.53,-51.79,-60.059,-555.176,702.148,14.70,-0.90,-36.75,16.77
14628,-5.54,2.40,-54.34,-437.988,-541.992,947.266,15.15,-1.35,-36.75,16.77
14638,6.78,0.55,-54.35,-344.238,-555.664,992.676,16.65,-1.35,-36.30,16.77
14648,14.12,-3.23,-10.57,-349.121,-970.703,1243.164,17.25,-1.50,-36.15,16.91
14658,10.47,1.22,-85.24,-312.988,-905.273,448.242,17.25,-2.25,-37.65,16.48
14668,-12.95,-3.73,-46.27,-48.828,-836.914,871.094,17.25,-2.25,-37.65,16.96
14678,-7.63,4.56,-51.45,-356.445,-784.668,960.449,16.80,-3.15,-34.95,16.96
14690,-1.79,5.82,-59.53,-99.609,-753.418,433.594,16.20,-2.55,-36.00,16.91
14700,-6.36,2.44,-52.59,96.680,-58.594,988.281,16.20,-2.55,-36.00,16.91
14710,-3.40,-0.17,-52.98,12.695,-571.289,1049.316,16.65,-3.30,-36.00,16.77
14720,0.21,-5.03,-61.14,46.875,-937.012,810.059,15.90,-2.85,-35.55,16.91
14730,1.66,2.70,-57.37,-124.023,-510.254,544.922,17.10,-2.10,-36.75,16.72
14740,3.08,3.26,-55.56,155.273,-287.109,373.047,16.50,-4.35,-36.60,16.62
14749,2.50,-2.21,-50.11,-333.984,-560.059,976.562,16.50,-4.35,-36.60,16.82
14761,5.82,-3.63,-49.40,33.203,-582.520,964.844,17.25,-3.45,-37.65,16.72
14771,-0.80,-2.65,-63.24,-147.949,-837.891,818.359,16.05,-3.90,-37.35,16.82
14781,-6.53,-5.79,-51.21,-377.441,-582.031,1313.965,16.05,-3.90,-37.35,17.01
14791,-2.40,3.08,-58.66,-321.777,-515.137,1056.152,19.20,-3.45,-37.35,16.82
14801,0.88,2.53,-51.13,-142.578,-342.773,869.141,18.45,-4.35,-37.35,16.58
14811,2.48,8.76,-47.68,-224.121,-706.055,921.387,17.85,-4.50,-36.75,16.96
14821,8.25,0.12,-50.33,-78.125,-572.754,1114.258,18.75,-4.35,-36.90,16.91
14846,-4.05,4.74,-51.20,-456.055,-862.793,1260.254,18.75,-5.10,-36.60,16.72
14855,-0.03,8.46,-53.68,-75.684,-1043.945,900.879,19.50,-5.85,-38.10,16.62
14865,-0.17,5.51,-49.95,-67.871,-312.988,1243.164,20.10,-4.95,-37.80,16.91
14875,0.56,2.32,-54.47,-121.582,-469.727,990.234,19.20,-4.65,-39.15,16.82
14885,3.56,-1.28,-49.22,-310.547,-614.746,1262.207,19.20,-4.65,-39.15,16.77
14895,11.92,-9.71,-53.27,60.547,-772.461,907.715,19.65,-6.45,-37.80,16.77
14907,8.92,-9.18,-48.97,207.031,-749.512,982.910,19.35,-6.15,-37.05,16.82
14917,-2.22,-7.07,-48.18,-462.891,-646.973,1521.484,19.35,-5.70,-37.05,16.91
14927,1.66,-7.79,-48.52,-41.504,-982.910,974.121,20.85,-6.15,-36.75,16.96
14937,-1.75,-7.03,-49.15,-165.039,-474.121,841.797,20.10,-7.65,-37.80,16.48
14947,-3.14,-5.79,-53.22,-64.453,-436.035,1065.918,21.45,-7.50,-37.35,16.91
14957,-6.56,0.70,-47.48,-142.578,-295.410,1222.656,21.45,-7.50,-37.35,16.91
14969,-2.95,-6.31,-49.72,-333.008,-156.738,1371.094,20.70,-7.50,-37.65,16.77
14979,-4.36,-0.18,-41.24,-92.773,-118.652,618.164,20.85,-6.45,-37.50,16.91
14989,0.23,-3.48,-50.24,94.238,-509.766,1083.984,20.85,-6.45,-37.50,16.91
14999,3.47,-2.48,-45.56,-118.652,-538.086,595.703,19.65,-6.90,-38.55,16.62
15009,6.16,3.20,-37.01,92.773,-611.816,859.375,21.00,-8.25,-37.35,16.62
15019,4.18,1.41,-49.71,-261.719,-346.191,1580.078,19.95,-7.50,-37.35,16.96
15029,7.39,-4.35,-47.83,-300.781,-435.547,1887.207,20.70,-7.05,-37.65,16.82
15041,8.15,1.38,-50.97,-131.836,-639.160,1227.539,20.70,-7.05,-37.65,17.01
15051,3.94,-1.42,-46.96,-156.250,-555.664,1190.430,21.45,-9.45,-36.90,16.77
15061,0.20,-3.25,-50.17,49.316,-534.180,817.871,22.35,-9.30,-37.50,16.77
15071,1.37,-3.32,-41.37,-277.832,-301.758,1153.809,22.35,-9.30,-37.50,17.10
15081,5.98,0.54,-49.39,-42.969,-852.051,979.980,21.90,-7.95,-38.10,16.82
15091,-1.57,0.76,-45.46,-176.270,-355.957,1122.559,19.95,-9.45,-38.10,16.62
15101,-2.08,2.30,-46.99,-25.879,-616.211,733.398,22.05,-8.55,-36.75,16.96
15113,-0.08,-2.30,-47.07,-343.262,-890.625,1326.172,20.70,-9.45,-36.90,16.58
15123,-0.77,3.88,-44.16,257.812,-757.812,35.156,20.70,-9.45,-36.90,16.77
15133,-7.99,7.46,-47.70,-139.160,-399.902,607.422,22.65,-9.45,-38.10,16.91
15143,-0.52,6.50,-49.52,-74.219,-270.508,1216.309,22.80,-10.05,-38.25,16.96
15153,-8.15,1.15,-43.11,-146.484,-373.535,968.262,22.80,-9.30,-37.50,16.82
15163,-2.70,3.15,-44.59,-138.184,-607.422,856.934,21.30,-10.05,-37.05,16.96
15175,-7.09,5.57,-43.94,143.066,-393.555,1015.625,21.90,-9.90,-38.85,16.62
15185,-11.77,-0.58,-42.44,-188.477,-64.453,577.637,22.05,-10.05,-37.80,16.72
15195,-2.12,-3.25,-44.70,84.961,-181.641,1538.086,22.80,-11.25,-38.55,16.91
15205,2.52,-0.22,-43.26,58.105,-280.762,1169.434,22.80,-11.25,-38.55,16.82
15215,7.97,-3.02,-42.31,-211.426,-570.312,1187.500,22.95,-12.75,-35.70,16.82
15225,7.15,7.62,-42.44,-71.289,-339.844,890.625,22.35,-11.70,-39.00,16.82
15235,0.97,2.07,-46.77,193.848,-612.305,1203.125,22.95,-10.65,-38.10,16.96
15247,4.05,0.67,-43.25,-19.531,-491.211,1438.477,23.55,-14.10,-38.25,16.82
15257,14.67,11.38,-39.15,-201.660,-792.969,822.266,24.30,-12.45,-39.00,16.96
15267,7.11,8.34,-33.15,-13.672,-860.840,1486.816,24.30,-12.90,-39.30,16.91
15277,-2.45,11.58,-37.95,-129.395,-443.848,888.672,24.30,-12.90,-39.30,16.48
15287,-4.79,-0.23,-52.15,65.430,-910.645,674.805,24.00,-13.20,-38.25,16.82
15297,-16.82,-2.90,-43.13,-259.277,-620.117,1443.359,23.25,-12.15,-40.05,16.72
15307,-11.47,5.84,-46.32,36.133,-267.090,1200.684,23.70,-13.50,-40.05,16.62
15319,-3.02,-5.15,-40.79,-186.035,-260.254,462.402,23.70,-12.75,-39.15,16.91
15329,-16.21,2.06,-45.86,-327.637,127.930,966.309,23.70,-12.75,-39.15,16.96
15339,11.95,-6.50,-52.96,524.414,-1026.855,813.965,24.60,-12.30,-38.85,16.82
15349,2.85,1.37,-45.21,33.203,-43.457,724.121,24.00,-14.40,-39.30,16.91
15364,5.93,-2.65,-50.26,215.332,-625.488,871.094,24.00,-14.40,-39.30,16.77
15374,-7.41,1.27,-49.49,-155.273,-609.863,1209.961,23.55,-14.10,-39.30,17.01
15386,-4.75,-1.79,-38.82,-220.703,-415.039,965.820,24.90,-13.05,-38.40,17.01
15396,-0.41,-1.26,-45.70,-137.207,-545.898,831.055,24.00,-15.30,-39.30,16.91
15406,-1.09,4.27,-40.06,-327.148,-392.090,1324.707,23.70,-15.00,-39.60,16.91
15416,-4.98,2.43,-43.92,-280.273,-520.508,1676.758,23.70,-15.00,-39.60,16.82
15426,-8.19,7.95,-43.47,278.809,-655.762,581.055,24.60,-15.00,-38.40,16.96
15436,-7.89,10.39,-42.19,93.750,-282.715,901.367,24.15,-15.00,-39.90,16.77
15446,-5.84,2.71,-40.50,31.738,-272.949,954.590,25.65,-15.45,-39.60,16.82
15457,-2.44,3.70,-39.11,94.727,-655.273,842.285,24.00,-15.60,-39.75,16.91
15467,-0.10,2.97,-51.73,207.031,-585.937,672.363,24.00,-15.60,-39.75,17.10
15477,0.61,-2.60,-40.70,-410.156,-303.223,1867.188,23.55,-16.80,-40.80,16.91
15487,0.50,1.40,-42.78,-130.859,-431.641,562.012,23.55,-16.80,-40.80,16.72
15497,1.18,-1.00,-40.89,76.172,-412.598,584.473,23.55,-16.80,-40.80,16.77
15507,1.96,1.82,-44.34,-80.566,-384.766,1380.371,24.15,-16.65,-40.35,16.58
15517,-3.87,-7.91,-41.12,-314.941,-337.891,1247.070,24.15,-16.65,-40.35,16.91
15529,-6.63,-3.04,-37.13,-92.773,-163.574,1412.109,24.60,-18.30,-39.90,16.91
15539,-8.66,-2.91,-42.31,-249.023,-243.164,1447.266,24.60,-18.30,-39.90,16.77
15549,-2.89,1.43,-39.23,210.449,-273.926,261.719,24.30,-18.45,-39.30,16.72
15559,2.11,-0.02,-40.56,-143.066,-281.738,1492.676,24.30,-16.50,-40.50,16.77
15569,7.05,-0.20,-37.44,-142.090,-534.180,1455.566,24.30,-16.50,-40.50,16.96
15579,1.24,-2.03,-41.64,-7.812,-349.609,703.125,24.60,-19.50,-39.90,16.77
15591,2.94,0.61,-37.35,-90.820,-639.160,1127.441,25.50,-18.45,-40.05,16.91
15601,2.04,-1.26,-39.55,-266.113,-426.758,1245.605,24.30,-18.00,-39.75,17.01
15611,1.55,5.34,-34.37,217.285,-730.957,790.527,24.90,-18.60,-39.60,16.72
15621,-5.33,-0.43,-32.89,72.266,-592.773,1055.664,24.90,-18.60,-39.60,16.72
15631,-3.80,-3.11,-37.25,-238.770,-520.020,1101.074,23.55,-19.20,-40.50,16.77
15641,-0.34,-0.08,-33.73,-140.137,-493.652,539.551,24.90,-19.05,-39.60,16.91
15651,-0.47,2.75,-32.19,-103.516,-153.320,1171.875,24.90,-19.05,-39.60,16.82
15663,-0.74,2.56,-36.90,130.859,-779.785,958.984,24.60,-17.40,-41.40,16.77
15673,-1.67,6.21,-35.50,229.980,-409.668,501.465,24.90,-20.70,-39.60,16.82
15683,-2.61,1.17,-39.66,-110.352,-625.977,1999.939,23.55,-18.90,-40.05,16.82
15693,0.67,-0.08,-30.76,71.777,-1024.902,552.246,24.00,-18.45,-40.05,16.72
15703,-1.08,1.68,-41.53,-116.211,-518.555,449.219,24.00,-18.45,-40.05,16.91
15713,-1.26,-3.53,-33.22,-54.199,-378.418,1500.488,24.00,-20.40,-40.05,17.01
15725,-8.00,1.81,-40.21,79.590,-406.738,1354.980,25.65,-19.80,-39.60,16.91
15735,-1.92,3.02,-41.05,-317.383,-539.551,1300.293,25.65,-19.80,-39.60,16.82
15745,-4.31,2.84,-42.85,-247.559,-443.359,1354.492,24.90,-20.25,-40.65,16.96
15755,1.35,10.82,-37.82,29.297,-553.711,131.836,24.60,-21.90,-39.60,16.77
15765,-1.23,9.95,-34.24,-150.391,-305.664,1305.176,24.30,-22.05,-40.80,16.77
15775,5.09,5.48,-40.90,67.871,-584.961,858.887,25.35,-19.50,-39.90,16.82
15784,1.41,9.11,-40.54,378.418,-406.250,796.875,25.35,-19.50,-39.90,16.77
15796,-0.05,3.55,-38.47,3.418,-511.230,1251.953,24.60,-20.70,-40.35,16.96
15806,0.02,2.80,-38.49,-122.070,-500.488,702.148,25.05,-21.30,-39.75,16.91
15816,10.56,4.96,-40.51,-48.340,-430.176,475.098,24.90,-21.45,-41.10,16.77
15826,4.08,-5.07,-36.23,21.973,-530.762,1945.801,25.05,-21.30,-40.80,16.77
15836,0.31,0.03,-37.62,182.129,-369.629,455.078,24.30,-24.00,-39.75,16.62
15846,1.82,-1.51,-34.56,-318.359,-406.250,1020.996,24.60,-23.40,-41.10,16.91
15856,3.69,-4.79,-36.85,70.801,-655.762,1275.391,24.30,-21.30,-40.05,16.72
15868,-5.18,-4.01,-38.69,-585.449,-610.840,1361.816,25.50,-22.50,-40.80,16.77
15885,-7.02,-0.58,-37.25,-117.188,-394.531,1150.879,25.50,-21.30,-41.25,16.82
15894,-2.80,-10.05,-37.62,-427.734,-631.348,1493.652,24.15,-25.05,-40.65,16.82
15904,0.19,-2.70,-37.24,203.613,-478.027,1101.563,24.90,-23.40,-41.10,16.82
15914,-1.38,-2.76,-42.92,-85.938,-100.098,1327.148,24.90,-23.40,-41.10,16.77
15924,-1.73,-2.43,-36.31,-70.801,-611.328,1738.281,23.25,-22.80,-39.75,16.91
15936,-5.96,5.66,-37.76,-225.586,-264.648,1683.594,24.60,-22.65,-39.90,16.82
15946,-1.15,1.91,-43.30,51.758,-704.590,1041.992,24.60,-22.65,-39.90,17.01
15956,-3.92,2.41,-40.67,221.680,-493.164,500.000,24.15,-22.65,-41.10,16.58
15966,-8.40,0.69,-42.24,-88.379,-133.301,1454.590,24.00,-24.45,-39.75,16.82
15976,0.24,3.48,-33.60,0.488,-451.172,1041.016,24.90,-24.30,-40.65,16.82
15986,-3.34,-0.11,-41.71,98.145,-922.852,559.082,24.15,-24.30,-41.40,16.91
15996,-10.08,2.56,-40.77,-221.680,-323.242,1248.535,24.15,-24.30,-41.40,16.82
16007,-1.15,0.79,-41.87,295.410,-543.945,268.555,23.40,-25.50,-40.35,16.96
16017,-3.48,-1.52,-38.36,-225.586,41.992,1245.117,24.30,-23.70,-41.55,17.10
16027,2.46,-9.19,-49.40,120.117,-675.781,1415.039,24.30,-23.70,-41.55,16.58
16037,0.78,-0.81,-38.15,-4.395,-787.109,163.086,22.20,-25.50,-39.60,16.82
16047,-2.55,-9.07,-38.93,-98.145,-225.586,1312.012,23.55,-24.90,-40.50,16.82
16057,0.81,-6.36,-48.06,-137.695,-697.266,1083.984,22.95,-26.25,-40.35,16.96
16067,2.98,-8.41,-33.63,230.957,-702.637,920.410,23.55,-25.65,-40.05,16.77
16079,12.64,-9.84,-39.03,12.207,-690.430,755.859,22.80,-27.15,-40.80,16.96
16089,-1.55,-0.76,-37.98,-286.621,-162.109,522.949,22.35,-24.90,-41.25,16.82
16099,-0.95,-6.53,-40.30,-172.363,-375.000,1999.939,22.35,-24.90,-41.25,16.91
16109,1.63,5.95,-33.60,357.910,-326.172,788.086,22.80,-26.40,-41.25,16.58
16118,6.83,2.11,-43.21,227.539,-495.117,975.586,23.70,-26.25,-40.65,17.01
16128,-8.82,4.37,-37.79,-442.383,-112.793,1487.793,23.70,-26.25,-40.65,16.96
16140,-10.98,11.20,-35.37,16.602,-135.254,277.832,22.65,-24.30,-41.85,16.96
16150,-2.69,-5.36,-39.10,9.766,-985.352,1999.939,22.65,-24.30,-41.85,16.82
16160,-10.02,5.86,-32.50,271.973,-379.883,476.562,22.20,-27.75,-40.65,16.82
16170,-14.01,5.12,-33.15,-550.781,304.199,1197.266,22.95,-27.45,-40.65,16.72
16180,-0.18,1.00,-31.13,231.445,-730.469,885.742,22.95,-29.40,-41.10,16.62
16190,6.72,3.21,-26.54,-0.977,-966.797,922.852,21.90,-28.20,-41.85,16.82
16200,-11.32,5.40,-39.76,-498.047,74.707,1366.211,22.20,-28.20,-40.35,16.96
16212,-3.81,6.08,-34.65,-316.895,174.805,1524.414,22.05,-28.35,-40.50,16.91
16222,11.11,-4.56,-39.99,651.855,-772.949,551.758,22.35,-27.15,-41.25,17.01
16232,-1.18,4.73,-48.51,-312.988,-204.590,562.012,22.35,-27.15,-41.25,16.82
16242,7.08,-12.44,-44.11,292.969,-1102.539,1011.230,23.25,-28.80,-41.25,16.77
16252,-3.79,3.28,-44.01,321.289,-590.332,786.621,21.30,-27.60,-41.55,16.82
16262,-18.41,-3.34,-46.95,-818.848,-392.090,1887.695,24.60,-28.65,-39.90,16.58
16272,2.70,-6.30,-40.81,174.316,-430.176,578.125,21.45,-29.40,-42.15,16.62
16284,6.12,-9.18,-43.39,291.504,-422.852,1062.500,21.45,-29.40,-42.15,16.58
16294,6.61,-1.14,-42.67,130.371,-748.535,420.410,21.00,-29.85,-39.60,16.77
16304,2.66,-5.40,-38.76,-315.430,-594.727,1699.707,20.70,-29.85,-40.65,16.77
16314,-1.66,-5.40,-49.99,104.980,-896.484,414.062,20.70,-29.85,-40.65,16.77
16324,-5.76,9.46,-33.88,-19.531,-268.555,334.473,22.20,-31.05,-41.10,17.01
16334,-3.11,-5.82,-45.00,69.824,-356.445,1999.939,21.60,-30.00,-41.55,16.62
16346,-5.87,-3.55,-35.80,-371.094,-753.906,1999.939,21.60,-30.00,-40.05,16.91
16356,7.95,-2.83,-29.08,-21.484,-912.598,360.840,21.45,-30.60,-39.60,16.82
16366,-1.37,2.24,-39.44,-385.742,-264.648,792.969,21.45,-30.60,-39.60,16.77
16376,3.04,-2.21,-40.25,60.059,-674.316,1030.273,22.05,-29.25,-40.50,16.77
16386,0.99,7.11,-33.43,283.691,-790.039,666.992,20.25,-30.15,-41.40,17.15
16401,-11.57,-0.69,-31.51,-600.098,-47.852,1999.939,21.60,-30.45,-40.50,16.77
16410,5.11,1.72,-40.09,50.781,-456.055,882.324,19.50,-32.25,-40.65,16.91
16422,-2.28,-0.85,-38.37,146.973,-670.410,1359.375,19.65,-30.45,-40.05,16.77
16432,8.38,7.78,-29.31,87.402,-498.047,669.922,21.30,-31.65,-39.75,16.77
16442,-2.77,2.99,-38.98,-537.598,65.430,1981.445,21.30,-31.65,-39.75,16.77
16452,18.21,-4.02,-38.89,761.230,-701.172,524.902,20.85,-30.00,-40.80,16.72
16462,2.80,3.67,-33.68,-60.547,-16.113,845.703,20.70,-32.55,-41.10,17.10
16472,14.53,-11.59,-36.11,256.348,-1027.344,1913.086,18.60,-31.95,-40.80,16.91
16482,9.08,3.16,-36.58,44.922,-713.379,753.906,20.85,-30.75,-39.75,16.91
16493,4.96,-3.24,-30.76,461.914,-607.422,196.289,20.10,-33.15,-39.75,16.77
16503,-6.02,-5.45,-36.10,326.172,-422.852,427.734,18.60,-30.75,-41.25,16.72
16513,-12.66,-4.41,-37.19,-448.730,-405.762,1999.939,19.95,-32.25,-39.90,16.77
16523,16.35,-13.05,-29.44,256.836,-487.793,296.387,19.95,-32.25,-39.90,16.96
16533,-15.65,-0.63,-23.53,-440.430,338.379,660.645,19.35,-30.75,-41.55,17.01
16543,14.15,-8.67,-32.73,468.262,-1153.320,328.125,19.65,-31.65,-40.50,16.91
16554,-7.98,4.76,-32.80,-207.031,-182.129,1999.939,18.60,-32.85,-41.55,16.82
16564,21.05,-4.35,-38.63,352.539,-610.352,264.648,18.00,-31.80,-41.85,16.91
16574,-14.46,10.44,-32.05,-31.738,293.945,235.840,18.00,-31.80,-41.85,16.91
16584,1.73,-7.55,-36.78,574.219,-688.477,1440.918,19.20,-33.00,-41.10,16.72
16594,-3.15,4.17,-40.93,-49.805,-445.801,714.844,20.70,-31.80,-40.35,16.91
16604,-1.04,-8.79,-37.92,-0.488,-365.234,1999.939,20.70,-31.80,-40.35,16.77
16614,9.15,-3.33,-38.37,199.219,-891.602,-1.953,18.45,-33.00,-41.10,16.77
16626,15.88,2.58,-32.71,778.809,-1010.742,3.418,18.60,-31.95,-39.75,16.91
16636,-14.11,10.88,-42.69,-262.695,186.523,599.121,17.55,-34.20,-39.90,16.91
16646,7.48,-8.61,-32.86,685.059,-843.750,1870.605,18.00,-31.80,-41.10,16.62
16656,2.93,11.19,-26.33,-252.930,-476.562,973.633,18.00,-31.80,-41.10,16.62
16666,1.34,-1.33,-31.94,-15.625,-784.180,1999.939,19.20,-34.95,-39.90,16.91
16676,15.12,-4.84,-14.09,199.219,-303.711,745.605,19.65,-31.95,-41.25,16.82
16686,-12.55,-1.77,-33.56,-561.523,-7.812,1549.805,19.65,-31.95,-41.25,16.72
16698,-11.98,-4.60,-34.44,-270.020,-342.285,1999.939,18.00,-32.55,-40.65,17.10
16708,6.85,-11.77,-37.22,224.609,-760.742,1112.305,18.45,-33.45,-40.65,16.82
16718,3.65,-0.07,-28.56,-11.719,10.742,311.523,17.40,-34.05,-40.05,16.77
16728,9.19,-7.86,-36.31,1.465,-924.316,1999.939,17.55,-34.95,-40.35,16.72
16738,8.13,2.12,-25.68,-87.402,-599.121,305.664,17.55,-34.95,-40.35,16.77
16748,-10.19,2.87,-31.24,-470.215,-1028.809,1999.939,19.20,-33.75,-40.35,16.91
16760,-25.34,-1.92,-35.70,-913.086,-93.262,1999.939,16.80,-33.45,-41.10,16.77
16770,9.98,-0.60,-23.60,62.500,-929.199,-22.949,17.10,-33.60,-40.50,16.77
16780,-11.00,3.83,-32.28,-345.703,259.766,1189.453,16.65,-34.80,-40.50,16.77
16790,14.21,1.25,-27.70,244.141,-700.195,706.055,17.25,-33.45,-40.35,16.62
16800,-1.18,9.62,-30.24,-7.812,-229.492,654.785,16.50,-34.20,-40.35,16.82
16810,8.34,-2.62,-35.21,156.250,-833.984,1340.820,16.50,-34.20,-40.35,16.77
16820,-0.47,3.02,-30.83,199.219,-368.164,504.883,17.10,-32.85,-40.05,16.96
16832,-0.82,-4.78,-33.96,94.727,-423.828,753.906,17.10,-35.25,-39.00,16.58
16842,-2.72,3.27,-35.70,-37.109,-550.781,1307.617,15.90,-34.80,-40.80,16.77
16852,0.80,0.94,-27.85,-21.484,-740.234,472.168,16.20,-35.55,-39.00,16.91
16862,-1.84,3.75,-31.50,-292.480,-386.719,454.590,16.20,-35.55,-39.00,16.96
16872,1.17,-2.64,-23.79,-49.805,-697.266,1570.801,16.65,-34.05,-40.80,16.91
16882,-6.90,-1.32,-35.94,177.246,-387.207,757.812,17.40,-34.80,-39.75,16.91
16892,-7.05,-3.25,-34.57,-291.504,-240.234,1348.145,17.40,-34.80,-39.75,16.72
16904,1.76,1.58,-36.48,-241.699,-161.133,1770.020,16.50,-34.65,-40.65,16.77
16919,8.47,-4.95,-34.74,-279.297,-722.168,1083.496,16.20,-34.35,-39.75,16.91
16928,-1.66,5.23,-29.90,-70.313,-748.535,762.695,15.15,-34.05,-40.05,16.82
16938,-4.20,-2.19,-39.20,-316.895,-320.801,1748.047,16.05,-33.00,-41.10,16.82
16948,6.81,-3.92,-37.76,475.098,-731.445,420.898,16.05,-33.00,-41.10,16.82
16958,-6.82,3.79,-38.53,-187.012,-186.523,471.680,15.45,-36.00,-38.25,16.77
16970,-5.13,2.95,-37.66,-269.043,-202.637,734.863,15.75,-34.95,-40.65,16.77
16980,-5.12,-1.53,-39.37,-17.578,-257.812,1099.609,15.90,-34.80,-39.75,16.91
16990,3.20,0.44,-29.50,127.930,-441.895,429.687,15.30,-35.40,-39.90,16.77
16999,-2.44,5.34,-34.93,-100.586,-411.621,742.676,15.30,-35.40,-39.90,16.77
17009,4.26,-0.59,-33.85,-51.270,-792.480,709.961,14.55,-34.20,-39.60,16.96
17019,-2.78,0.00,-39.88,187.500,-735.840,505.371,15.15,-35.55,-39.75,16.77
17029,-10.53,-0.02,-33.05,-81.543,-109.863,1349.609,15.15,-35.55,-39.75,16.58
17041,-1.41,2.12,-35.18,-137.207,-173.828,1481.934,14.85,-35.85,-38.40,16.96
17051,10.79,1.15,-32.85,-30.762,-456.055,503.418,14.70,-36.45,-39.00,16.72
17061,-0.73,0.82,-36.87,-456.055,-64.453,874.512,15.15,-35.55,-39.30,16.91
17071,4.08,-0.67,-32.37,28.809,-720.215,1085.449,14.85,-34.65,-38.40,16.62
17081,-1.18,0.54,-35.56,22.461,-458.008,673.340,13.20,-35.55,-39.30,16.77
17091,-3.59,0.44,-38.05,-376.465,-284.668,1695.313,14.10,-35.40,-38.85,17.10
17101,2.67,-4.38,-37.15,-35.645,-312.988,1066.895,14.10,-35.40,-38.85,16.91
17112,5.60,-0.05,-34.13,-64.453,-650.879,1933.594,13.80,-35.40,-39.15,16.82
17122,5.07,2.23,-33.62,190.918,-339.355,1107.910,13.95,-36.00,-39.00,16.72
17131,2.21,4.95,-25.71,195.801,-719.238,591.309,13.80,-35.85,-38.85,16.91
17141,1.08,4.00,-33.24,-438.965,-333.008,1261.719,13.20,-37.20,-39.00,16.91
17151,11.05,-2.32,-25.49,156.738,-899.414,1281.250,12.75,-34.80,-38.25,16.77
17161,-3.92,3.78,-37.88,-30.762,-154.297,1041.992,12.75,-35.25,-38.25,16.96
17173,4.29,3.98,-31.89,236.816,-451.660,784.180,13.05,-36.60,-38.85,16.91
17183,-4.92,3.79,-39.55,-375.977,-491.211,1733.398,13.05,-36.60,-38.85,16.82
17193,-0.95,-0.37,-37.70,125.000,-675.293,540.527,13.50,-36.45,-39.00,16.62
17203,-15.00,4.00,-34.08,-423.828,269.043,957.520,13.50,-36.75,-39.00,16.91
17213,7.77,-5.79,-38.18,72.266,-980.957,1308.594,13.35,-35.85,-37.65,16.91
17223,2.85,2.69,-49.53,171.875,-236.816,417.480,13.05,-37.05,-37.65,16.77
17233,4.65,-6.40,-27.23,-23.926,-483.887,1789.063,13.05,-37.05,-37.65,16.77
17245,-16.96,-1.44,-34.91,-914.062,54.688,768.066,11.70,-34.80,-37.80,16.96
17255,14.31,-6.62,-33.56,790.039,-1185.547,365.723,13.05,-37.35,-38.10,16.82
17265,-8.16,5.19,-19.63,-99.609,493.652,602.051,13.05,-37.35,-38.10,16.82
17275,0.69,-7.24,-31.40,117.676,-807.617,1023.926,12.75,-37.20,-38.25,16.77
17285,5.82,1.73,-33.35,-84.961,-687.988,321.777,11.40,-37.05,-38.10,16.82
17295,3.72,3.80,-34.83,-183.105,-189.941,1999.939,11.85,-36.60,-38.85,16.96
17305,13.40,3.89,-30.78,229.980,-778.320,750.977,11.85,-37.05,-36.90,16.82
17317,13.31,-4.50,-25.09,594.238,-738.281,752.930,11.85,-37.05,-36.90,16.62
17327,5.64,7.51,-31.57,-148.926,-312.500,278.320,12.30,-35.85,-38.40,17.01
17337,6.20,-5.78,-36.09,-114.258,-1020.996,1999.939,11.40,-37.35,-38.10,16.96
17347,8.66,-0.44,-20.88,227.051,-784.180,207.031,11.40,-37.35,-38.10,17.01
17357,-6.37,3.42,-31.98,-612.793,764.160,1529.785,10.95,-36.00,-38.25,16.58
17367,10.37,-3.17,-33.34,482.910,-852.539,-2.930,11.40,-38.25,-37.35,16.77
17377,-8.80,-0.31,-41.90,-401.367,-395.020,144.531,9.90,-37.05,-38.10,16.72
17389,-7.82,-0.02,-39.18,-221.191,351.074,1055.176,12.30,-36.15,-38.85,16.62
17399,10.95,-2.69,-26.55,118.164,-855.957,1999.939,12.30,-36.15,-38.85,16.91
17409,11.35,6.50,-31.69,220.215,-597.168,520.996,11.25,-37.95,-38.25,16.91
17419,1.76,0.85,-44.53,-114.746,-479.492,1764.648,11.10,-36.15,-37.65,16.96
17433,12.34,1.19,-33.41,193.848,-834.473,44.434,11.40,-37.05,-38.40,16.91
17443,-2.70,1.24,-40.69,-312.988,279.297,662.109,11.40,-37.80,-36.60,16.62
17455,-9.20,11.64,-41.47,135.742,34.180,-209.473,11.40,-38.55,-37.35,16.62
17465,7.35,-4.90,-34.38,456.055,-1469.727,968.750,11.85,-37.05,-38.10,16.62
17475,2.58,-0.05,-34.90,35.645,-855.469,-176.758,11.85,-37.05,-38.10,16.77
17485,-10.93,5.23,-44.60,-514.160,-105.957,1999.939,11.10,-37.80,-37.65,16.77
17495,11.71,9.49,-28.04,829.590,-393.066,-104.980,9.90,-37.05,-37.65,16.72
17505,-3.97,7.79,-36.15,-516.113,-239.258,770.020,11.10,-37.80,-37.65,16.77
17515,8.44,-5.48,-27.89,138.672,-1105.957,773.437,10.35,-35.85,-37.65,16.82
17527,10.13,-0.56,-35.74,-357.422,-541.992,1999.939,10.35,-35.85,-37.65,16.72
17537,6.04,0.77,-31.92,459.961,-597.656,880.371,10.35,-37.35,-36.15,16.91
17546,8.47,7.82,-36.48,-14.648,-579.102,879.883,10.65,-37.80,-38.40,17.10
17556,5.00,2.18,-43.07,-593.262,-793.945,1999.939,10.65,-37.80,-38.40,16.82
17566,14.79,2.54,-37.89,346.191,-1437.012,-638.672,9.60,-38.55,-36.90,16.91
17576,-23.34,6.56,-26.80,-397.461,485.352,630.859,9.90,-37.05,-38.40,16.72
17586,9.33,-0.31,-47.46,137.695,-1113.770,1090.332,10.50,-37.20,-36.00,16.91
17597,-8.37,5.05,-43.20,-72.754,-621.094,1991.211,9.15,-38.55,-36.90,16.96
17607,13.53,1.41,-36.27,218.750,-1056.152,372.559,9.15,-38.55,-36.90,16.96
17616,-0.76,4.22,-45.10,39.551,-483.398,655.273,10.50,-36.75,-37.50,16.82
17626,-15.81,0.69,-39.11,-640.137,-516.113,1999.939,10.35,-37.80,-37.65,16.62
17636,11.64,0.15,-45.16,466.309,-936.035,239.258,10.35,-37.80,-37.65,16.62
17646,-22.20,-2.81,-38.76,-605.469,334.473,471.680,10.95,-37.20,-36.30,16.72
17658,-12.05,1.63,-46.39,-745.605,-128.418,990.234,9.90,-39.30,-37.65,16.77
17668,7.84,-6.98,-45.63,357.422,-869.629,1194.824,9.60,-38.25,-37.35,16.72
17678,4.05,4.50,-46.14,176.270,-438.477,787.109,10.35,-38.55,-36.15,17.10
17687,-4.30,-1.50,-51.72,-357.910,-208.984,585.937,10.35,-38.55,-36.15,16.72
17697,13.67,-6.45,-47.97,125.977,-1290.039,1348.633,9.60,-37.80,-37.35,16.38
17707,4.80,6.22,-44.44,-60.547,-580.078,525.391,9.30,-39.60,-37.05,16.82
17717,3.96,-5.00,-46.08,-313.965,-877.930,1999.939,8.70,-38.25,-37.35,16.77
17729,4.87,-2.54,-44.54,-70.313,-416.016,1566.895,10.05,-37.65,-37.80,16.82
