Time_ms,GyroX_degps,GyroY_degps,GyroZ_degps,AccelX_g,AccelY_g,AccelZ_g,MagX_uT,MagY_uT,MagZ_uT,Temp_C
1313,-2.68,1.79,-1.70,15.137,33.691,1000.977,-23.55,-12.45,-33.30,16.38
1329,-0.92,1.64,-1.34,15.625,48.828,1019.531,-23.55,-12.45,-33.30,16.38
1339,0.49,0.25,0.35,49.316,19.043,1054.688,-22.80,-13.20,-31.80,16.48
1349,-0.21,2.19,-0.31,68.359,39.063,925.781,-23.25,-11.25,-31.05,16.62
1359,0.31,2.34,0.22,44.922,18.066,1058.594,-21.45,-13.50,-32.70,16.58
1368,-0.44,-1.05,-2.74,122.559,18.066,958.496,-22.20,-13.05,-33.15,16.62
1378,0.03,-1.20,-1.39,78.125,37.598,1022.949,-22.20,-13.05,-33.15,16.72
1388,0.09,-3.21,-1.07,6.348,62.012,1001.953,-22.20,-13.80,-31.20,16.38
1400,-1.15,-0.05,-0.37,81.055,1.465,1013.184,-22.35,-12.15,-32.55,16.58
1410,2.50,-3.63,-2.78,5.859,36.621,1038.574,-23.55,-13.20,-31.50,16.38
1420,0.89,-1.42,-0.94,4.395,27.832,1000.488,-22.20,-12.30,-32.40,16.72
1430,0.51,-1.72,1.08,5.371,60.059,1001.465,-22.35,-12.15,-32.25,16.72
1439,-1.59,0.64,0.98,59.570,44.434,1048.340,-22.20,-11.55,-30.90,16.58
1449,-0.24,-0.63,-0.80,89.355,-3.418,979.980,-20.55,-12.90,-31.50,16.38
1459,-2.05,0.28,-2.77,73.730,32.715,1071.777,-20.55,-12.90,-31.50,16.38
1471,-0.37,0.20,-1.82,128.418,42.969,972.168,-20.55,-10.95,-30.30,16.43
1481,1.02,-1.81,1.42,50.781,34.668,1079.102,-20.70,-12.75,-29.40,16.48
1491,0.01,0.79,0.14,61.035,36.133,1000.488,-21.45,-12.30,-30.15,16.82
1500,-0.26,-0.65,-0.46,21.484,28.809,1001.953,-19.95,-11.10,-29.70,16.82
1510,-0.80,-0.96,0.40,-32.227,23.437,1044.922,-19.95,-11.10,-29.70,16.72
1520,0.57,2.90,-0.03,99.609,16.113,1027.832,-20.70,-13.05,-29.70,16.48
1529,-0.81,0.79,-1.92,85.938,42.969,986.328,-19.20,-13.80,-29.70,16.58
1541,-0.89,-0.15,-1.18,97.168,35.156,1063.965,-19.20,-13.80,-29.70,16.77
1551,-0.05,2.22,-1.26,92.773,4.395,970.703,-19.65,-12.90,-29.85,16.82
1561,-0.65,0.28,-0.56,35.645,29.297,987.793,-19.95,-12.75,-30.15,16.91
1571,1.44,0.89,1.95,32.715,-0.977,1046.875,-19.65,-12.15,-28.35,16.48
1581,0.80,-1.89,0.21,113.281,30.762,978.027,-19.95,-11.10,-30.90,16.82
1591,-0.66,-0.20,-5.92,122.070,-9.277,997.559,-19.95,-11.10,-30.90,16.62
1601,-0.84,-2.15,-3.23,99.609,41.992,965.332,-20.10,-12.90,-29.85,16.58
1613,-0.34,-0.85,-2.31,53.223,28.809,1033.203,-19.20,-11.10,-30.45,16.58
1623,2.23,-0.02,0.34,21.484,31.250,1000.000,-22.05,-11.70,-30.30,16.82
1633,-0.30,1.14,-1.32,93.750,28.809,1021.973,-21.90,-11.85,-31.20,16.58
1643,-0.51,-1.40,-2.11,108.887,44.922,1005.859,-22.05,-11.85,-31.20,16.58
1653,0.35,-0.31,-1.72,108.398,32.715,976.074,-22.20,-12.30,-31.95,16.77
1663,-1.02,0.03,-1.81,53.711,26.855,1075.195,-22.20,-12.30,-31.95,16.58
1673,1.28,0.39,-1.98,64.453,22.949,1015.137,-23.40,-11.55,-31.95,16.43
1685,-0.21,-0.15,-1.13,129.883,25.391,1041.992,-22.95,-12.30,-32.40,16.82
1695,1.65,-1.75,-0.06,101.074,23.926,999.023,-22.95,-12.30,-32.40,16.58
1705,-0.62,-2.17,-1.67,16.602,30.762,1058.105,-24.00,-11.70,-32.55,16.91
1715,-1.01,-0.24,1.26,110.840,18.555,1005.859,-24.00,-12.45,-31.80,16.77
1725,1.80,-0.95,-0.73,114.746,10.742,1034.180,-24.60,-13.05,-31.95,16.82
1735,-1.21,0.34,-1.39,82.520,18.066,950.684,-23.70,-12.30,-31.95,16.77
1745,0.81,-1.36,-0.55,35.645,9.277,1075.684,-23.70,-12.30,-31.95,16.72
1757,1.02,-1.52,-1.32,137.695,21.973,1003.906,-22.80,-12.90,-29.85,16.82
1767,-1.28,-0.59,-0.56,155.273,-30.273,1011.230,-20.85,-12.90,-30.30,16.72
1777,-0.87,-1.55,-2.14,14.648,1.465,1016.602,-20.85,-12.90,-30.30,16.48
1787,0.82,-1.05,-1.60,76.172,40.039,1091.797,-21.30,-13.65,-29.55,16.72
1797,-0.67,-0.19,-1.00,252.930,33.691,962.402,-19.35,-12.45,-29.10,16.91
1807,0.07,-4.47,-0.85,40.527,8.789,1021.484,-19.50,-13.05,-28.95,16.77
1817,0.19,-0.52,-0.56,27.344,6.836,1004.395,-19.20,-13.05,-29.40,16.77
1844,-1.53,-1.34,-2.13,-10.742,-9.766,1021.973,-21.00,-13.50,-30.15,16.58
1853,0.66,-1.52,-3.56,156.738,70.801,998.535,-21.00,-13.50,-30.15,16.72
1863,-3.22,-0.75,-2.13,208.984,35.645,964.355,-22.65,-12.75,-31.20,16.91
1873,-0.76,2.77,-2.72,-52.734,28.809,1107.422,-22.95,-12.75,-32.70,16.82
1883,-0.40,-2.24,-0.04,196.289,40.039,970.703,-22.95,-12.75,-32.70,16.72
1893,-0.28,0.33,-1.72,194.824,70.801,882.324,-24.75,-12.15,-33.75,16.82
1905,0.18,-2.88,-1.04,25.879,30.273,1136.230,-24.30,-12.90,-32.25,16.72
1915,-0.89,-1.02,-5.50,302.246,-17.090,932.617,-24.15,-14.70,-32.40,16.77
1925,-0.16,-2.31,-1.84,24.414,56.152,1088.867,-22.65,-12.30,-31.20,16.62
1935,-2.56,1.45,-2.28,112.793,25.879,1010.254,-22.65,-12.75,-29.70,16.96
1945,-0.32,-2.27,0.21,153.320,129.883,841.797,-19.50,-13.50,-30.15,16.91
1955,0.34,-1.80,-3.16,-24.414,66.406,1177.246,-19.50,-13.50,-30.15,16.77
1965,-0.87,-3.42,-0.83,238.281,-19.043,989.746,-19.65,-13.20,-28.80,16.96
1977,0.11,-1.27,0.71,-1.465,51.270,1286.133,-19.35,-13.20,-28.35,16.96
1987,1.64,-2.36,-3.85,300.293,-49.316,875.488,-19.35,-13.20,-28.35,16.96
1997,-0.92,0.09,1.15,-14.648,65.918,963.379,-21.45,-13.05,-30.90,16.96
2007,-1.34,-0.93,-2.24,247.070,64.453,1199.707,-22.05,-13.20,-32.25,16.62
2017,-0.26,-0.05,0.71,-18.066,79.102,979.004,-24.60,-13.50,-33.15,16.82
2027,-1.04,-2.82,-3.89,206.055,100.098,1197.266,-24.00,-12.45,-33.30,16.91
2037,-0.64,-1.69,11.60,114.746,85.938,829.590,-24.00,-12.45,-33.30,16.91
2049,-1.77,-1.97,-4.48,273.437,-108.887,1196.289,-25.50,-13.65,-32.55,16.96
2059,-0.69,1.75,-1.91,43.945,60.059,958.984,-23.55,-12.15,-31.05,16.58
2069,-3.37,-2.37,-3.23,86.914,-111.328,1222.168,-23.55,-12.15,-31.05,16.96
2079,-0.05,1.00,-0.25,158.691,61.035,693.359,-20.55,-14.10,-28.05,16.91
2089,0.24,0.02,-0.66,159.180,23.437,1024.414,-18.60,-12.45,-28.80,16.72
2099,-0.85,0.46,-5.58,137.207,41.992,834.961,-20.85,-13.65,-29.55,16.77
2111,-0.76,-3.19,-3.34,231.445,-85.449,999.512,-21.00,-13.05,-28.95,16.48
2121,0.79,2.46,-0.02,39.551,120.117,896.973,-21.00,-13.05,-28.95,16.91
2131,-0.62,-3.30,-1.64,188.965,-43.945,1011.719,-22.65,-13.50,-32.70,16.77
2141,0.08,-0.02,-2.61,143.066,21.484,1070.801,-25.05,-11.70,-33.00,16.82
2151,-1.45,-2.45,-8.38,56.641,-1.465,928.223,-25.05,-11.70,-33.00,17.01
2161,3.04,-0.89,-5.23,264.160,-28.320,1149.902,-24.75,-15.30,-31.80,16.82
2171,-0.48,-0.79,-1.21,50.781,11.719,831.055,-23.25,-12.45,-31.05,16.77
2183,-1.67,-2.73,2.13,137.207,-154.297,1101.563,-22.05,-14.40,-28.35,16.62
2193,-2.69,-0.34,-4.34,263.184,89.844,1131.348,-19.95,-14.25,-28.20,16.62
2203,-1.60,-3.13,-3.87,0.977,2.441,910.156,-19.95,-14.25,-28.20,16.96
2213,1.53,-2.82,-2.87,210.937,-78.125,974.121,-19.20,-13.50,-29.70,16.91
2223,1.66,-0.20,-2.00,150.391,131.348,967.285,-20.10,-13.65,-31.50,16.91
2233,0.01,-0.87,-3.73,159.668,-76.660,1014.648,-24.00,-12.45,-31.80,16.82
2243,0.21,-1.23,-2.53,240.723,-10.742,1058.594,-24.90,-12.75,-32.40,17.01
2255,-1.44,-4.24,-5.02,242.187,49.316,930.176,-23.55,-14.10,-31.50,16.72
2265,-2.11,1.40,-5.92,85.938,-28.320,906.250,-23.25,-13.65,-28.80,16.96
2275,-0.12,0.16,-3.97,214.844,58.105,995.117,-23.25,-13.65,-28.80,16.77
2285,-0.83,-0.37,-6.34,196.289,-48.828,1201.172,-18.60,-14.10,-28.05,16.91
2295,0.19,-4.34,-3.06,99.121,72.266,1145.996,-17.85,-13.65,-29.55,16.96
2305,-0.53,0.95,-5.47,126.953,-24.902,980.469,-20.55,-13.65,-31.05,16.96
2315,1.70,-2.97,-2.15,184.570,-116.211,1219.727,-22.65,-10.65,-33.45,16.82
2327,1.40,1.34,-4.54,192.383,-4.395,873.535,-22.65,-10.65,-33.45,16.91
2337,-2.31,1.45,-4.22,118.164,23.926,1208.008,-24.15,-13.50,-30.90,16.96
2347,-0.75,2.89,-1.18,32.227,-15.625,1161.621,-22.65,-13.05,-29.40,16.58
2363,0.50,-2.55,-3.65,75.195,-109.375,1119.141,-22.65,-13.05,-29.40,16.82
2372,0.94,0.00,-4.31,152.832,5.371,966.797,-20.55,-14.40,-25.05,16.82
2382,-0.10,-0.05,-4.82,244.141,49.316,837.402,-19.50,-13.50,-29.40,16.77
2392,0.31,1.18,-4.19,190.430,-27.832,1013.184,-21.30,-15.30,-30.75,16.82
2404,-0.68,0.00,-5.76,137.207,-39.551,1090.332,-24.00,-12.45,-31.05,16.82
2414,-1.26,0.07,-5.53,210.449,-42.969,1070.313,-24.00,-12.45,-31.05,16.82
2424,-2.53,-1.17,-7.53,145.996,35.156,1093.750,-21.00,-15.00,-27.15,16.91
2434,-0.86,4.19,-6.63,188.965,113.770,878.906,-21.00,-15.00,-27.15,16.82
2444,-1.03,2.16,-6.27,244.141,-108.887,825.684,-21.00,-15.00,-27.15,16.91
2454,-3.42,0.04,-6.28,126.465,-53.223,1078.125,-20.85,-13.65,-29.85,17.01
2464,-0.72,-1.64,-5.53,163.574,51.270,1023.437,-20.85,-13.65,-29.85,16.96
2476,-0.95,1.72,-5.80,124.023,60.059,1040.039,-25.35,-12.30,-31.95,17.01
2486,0.59,2.24,-7.54,302.246,-3.906,1028.320,-25.35,-12.30,-31.95,16.91
2496,0.73,1.59,-5.15,176.270,28.320,930.664,-21.00,-14.70,-26.70,16.96
2506,-1.56,-2.41,-11.33,284.668,-45.410,1145.508,-18.90,-12.45,-26.85,16.91
2516,2.14,-2.86,-6.00,209.961,41.016,1096.191,-20.85,-11.70,-27.60,16.91
2526,-1.91,-1.69,-4.31,51.270,-49.805,1159.668,-22.95,-12.30,-30.90,16.91
2536,2.62,0.28,-8.34,163.086,-11.719,1070.801,-25.80,-13.20,-32.55,16.96
2547,3.08,-2.51,-6.05,139.648,45.410,1114.746,-26.10,-13.05,-31.65,16.82
2557,1.76,-1.44,-6.43,132.324,-196.289,1239.746,-22.65,-12.75,-28.20,17.10
2567,-0.27,-1.12,-7.11,105.957,28.809,1067.383,-22.65,-12.75,-28.20,17.10
2577,1.43,-1.92,-6.34,92.285,-40.527,1084.473,-19.65,-12.45,-26.85,16.77
2587,-1.20,-1.08,-7.96,188.477,46.875,1176.270,-21.90,-11.85,-30.90,16.82
2597,2.79,3.20,-7.87,240.234,-50.293,1184.570,-25.65,-10.65,-32.70,16.96
2607,3.87,1.38,-10.44,133.789,-123.047,1123.535,-25.50,-13.65,-30.30,17.01
2619,1.10,-0.79,-11.85,254.883,100.586,948.730,-22.65,-13.05,-28.20,17.01
2629,1.67,0.82,-9.30,257.812,5.371,829.102,-20.25,-11.85,-26.40,16.91
2638,-0.59,0.14,-8.72,95.703,-36.621,1233.398,-18.90,-10.95,-27.60,16.96
2648,3.34,2.10,-7.41,346.191,-193.848,845.703,-18.90,-10.95,-27.60,16.77
2658,-1.58,-4.34,-7.42,227.539,-220.703,1226.563,-25.80,-11.70,-32.25,16.72
2668,-2.15,0.15,-9.84,109.863,59.082,863.281,-24.60,-13.50,-29.70,17.01
2680,-3.41,-4.46,-11.53,318.848,-98.633,1036.621,-20.25,-13.50,-26.70,17.01
2690,-3.69,-4.28,-8.22,230.957,-101.074,1094.238,-19.95,-10.65,-28.20,16.77
2700,-5.67,-4.86,-10.37,198.242,-41.016,958.984,-19.95,-10.65,-28.20,17.10
2710,-2.47,-6.79,-13.92,212.402,107.910,1143.555,-25.50,-11.25,-33.00,16.77
2720,1.29,-2.90,-14.22,164.551,-41.992,1291.016,-24.90,-11.85,-31.65,17.01
2730,-0.62,-3.53,-11.69,21.484,113.770,934.570,-24.90,-11.85,-31.65,16.62
2740,-0.63,-1.30,-11.63,108.398,-8.301,1053.223,-18.75,-11.55,-26.40,16.62
2752,-1.18,2.14,-11.56,121.582,-11.719,1209.961,-21.30,-10.50,-31.05,16.82
2762,2.59,3.27,-14.70,176.758,-0.488,614.746,-25.65,-10.35,-33.90,16.72
2772,3.16,2.82,-11.73,197.754,-33.203,1136.719,-25.35,-12.30,-32.40,16.82
2782,0.58,-0.71,-13.50,179.199,-14.160,1111.816,-25.35,-12.30,-32.40,16.91
2792,3.72,-0.51,-14.37,205.078,39.063,1260.254,-19.20,-11.85,-28.65,17.29
2802,1.11,1.89,-10.53,210.937,-201.172,1160.645,-22.05,-10.05,-31.50,16.91
2812,2.06,0.21,-10.44,121.582,117.188,951.660,-22.05,-10.05,-31.50,16.77
2824,-1.39,-1.33,-14.85,262.695,111.328,1158.691,-24.60,-12.75,-30.90,16.96
2834,-2.39,-3.43,-13.40,237.793,-197.266,876.953,-19.20,-11.85,-28.65,16.77
2844,0.56,2.56,-15.63,21.484,-155.762,1484.375,-18.75,-9.45,-29.40,17.01
2854,-3.57,2.91,-14.47,151.855,1.953,707.520,-23.40,-10.65,-33.45,16.82
2864,-0.42,3.79,-14.82,222.168,0.488,1010.254,-23.40,-10.65,-33.45,17.15
2878,1.06,1.18,-9.90,294.922,-149.902,1009.766,-18.90,-11.25,-26.10,16.62
2888,-2.86,0.95,-19.30,-9.766,154.297,758.789,-20.25,-9.15,-30.45,16.96
2900,-1.28,1.58,-16.04,234.375,-35.645,1135.742,-24.15,-10.35,-33.45,16.77
2910,4.09,0.40,-16.18,116.211,-76.172,1147.949,-22.35,-11.25,-31.80,16.82
2920,1.77,0.31,-12.47,393.066,-59.082,1167.480,-19.20,-11.85,-27.15,17.01
2930,2.84,-1.94,-17.94,165.527,-284.180,876.953,-17.10,-10.05,-28.35,16.96
2940,0.66,-2.60,-14.71,344.727,-271.484,1613.770,-17.10,-10.05,-28.35,16.96
2950,0.81,-3.02,-16.16,-25.391,-54.688,1281.250,-22.05,-11.25,-31.80,16.96
2960,0.93,1.03,-19.59,67.383,-131.348,622.559,-20.10,-12.15,-29.10,17.10
2972,-2.50,0.27,-18.16,80.566,-58.105,989.746,-18.00,-9.90,-28.65,17.25
2982,2.80,-1.30,-18.86,213.379,-205.078,759.766,-21.90,-9.45,-33.15,17.01
2992,3.61,-2.80,-19.63,175.781,-305.176,1070.801,-21.90,-9.45,-33.15,16.62
3002,2.60,-2.55,-21.84,500.977,-241.699,1383.789,-19.35,-12.90,-28.05,17.10
3012,1.07,-3.48,-17.95,-44.922,-92.285,1305.176,-17.25,-9.15,-28.65,16.82
3022,1.31,-4.92,-15.61,330.078,-262.695,1332.031,-17.25,-9.15,-28.65,16.82
3032,-0.65,-1.09,-20.40,74.219,131.348,1045.898,-24.00,-11.25,-32.25,17.25
3044,2.56,-0.55,-19.09,207.031,-91.797,299.316,-18.00,-11.85,-28.65,16.91
3054,4.64,-0.72,-18.10,136.719,-267.578,1083.984,-16.20,-9.75,-28.05,16.77
3064,-0.32,-2.46,-20.18,129.395,-264.160,600.098,-22.35,-9.75,-31.80,17.01
3074,-0.60,-1.60,-24.04,133.789,-199.707,1555.176,-22.35,-9.75,-31.80,16.91
3084,-7.70,-5.62,-19.71,306.641,-181.152,544.922,-17.10,-12.15,-27.30,16.96
3094,-0.09,-5.96,-21.99,93.750,-152.344,1592.773,-18.60,-8.10,-29.10,16.91
3104,-2.46,-1.45,-19.47,128.906,-117.676,363.281,-18.60,-8.10,-29.10,17.01
3116,0.70,-5.33,-18.87,465.820,125.000,1160.156,-15.30,-10.35,-25.20,17.10
3126,9.42,-2.79,-19.40,100.586,163.574,1031.738,-18.90,-8.10,-31.50,16.91
3136,6.06,-3.06,-17.65,208.008,-244.141,1274.902,-24.30,-11.70,-31.80,17.15
3146,5.68,0.24,-19.30,103.027,105.957,1183.594,-24.30,-11.70,-31.80,16.77
3155,5.34,1.41,-22.92,240.723,-16.113,756.348,-24.30,-11.70,-31.80,16.91
3165,1.14,3.73,-19.47,222.168,19.531,601.562,-16.50,-7.95,-27.45,17.25
3177,-3.86,-0.20,-19.54,240.723,-359.863,680.176,-22.05,-10.95,-28.80,17.25
3187,-12.82,1.04,-20.27,382.324,-369.629,841.797,-18.00,-11.55,-24.90,17.15
3197,-6.20,2.40,-19.02,-89.844,405.762,877.441,-20.85,-8.10,-28.35,16.82
3207,-3.98,4.89,-21.00,187.012,-112.793,1121.094,-22.65,-11.55,-30.15,16.96
3217,3.73,4.47,-23.60,244.141,-21.484,829.590,-19.35,-12.90,-26.10,16.72
3227,-0.60,-3.40,-21.71,190.430,-268.555,1425.781,-19.35,-12.90,-26.10,16.96
3237,-0.44,0.33,-21.03,-8.789,-152.832,1730.469,-22.65,-9.90,-30.15,16.91
3249,-1.31,-7.44,-18.51,124.512,-442.871,1509.766,-21.90,-12.30,-27.45,17.25
3259,-5.15,-5.30,-21.79,376.953,-569.336,1264.160,-18.00,-9.45,-25.65,17.01
3269,-4.63,-1.73,-23.53,22.461,201.660,1442.871,-22.35,-8.55,-28.80,16.82
3279,-5.17,-1.50,-26.41,143.066,126.465,947.754,-22.35,-8.55,-28.80,16.96
3289,3.43,4.82,-10.47,617.676,63.965,394.531,-18.45,-9.90,-25.95,16.96
3299,-1.09,-3.09,-30.60,378.418,-150.391,319.336,-21.00,-7.95,-29.70,16.62
3309,1.15,-8.69,-22.61,314.453,-280.273,1504.883,-21.00,-7.95,-29.70,17.10
3321,-0.09,-4.37,-25.07,394.043,-528.320,293.945,-17.55,-11.85,-27.15,16.77
3331,-2.75,-8.84,-23.43,96.191,-386.230,861.328,-19.20,-7.95,-29.70,16.96
3341,-3.44,-5.25,-21.73,355.957,-465.332,742.676,-22.95,-10.35,-31.95,16.96
3351,-2.55,-2.11,-24.88,310.059,-325.684,1610.352,-19.20,-11.10,-27.15,17.01
3361,-2.60,-2.89,-25.60,178.223,-336.426,909.180,-19.20,-11.10,-27.15,16.91
3371,-6.79,-0.62,-23.16,118.164,-242.676,1352.051,-22.35,-10.05,-33.30,17.10
3381,1.35,-1.55,-27.11,290.527,-152.832,1531.250,-19.20,-11.55,-27.45,16.91
3398,0.40,-1.17,-24.98,320.801,-271.973,1492.188,-22.20,-9.90,-32.70,16.82
3407,-2.76,-1.66,-26.22,93.262,-125.977,823.242,-19.35,-11.25,-28.05,17.10
3417,1.82,3.11,-24.15,397.949,-577.148,1201.172,-18.00,-7.50,-28.20,17.01
3427,-1.08,2.12,-28.50,174.805,-161.621,835.937,-22.20,-9.45,-31.95,16.82
3437,-1.37,-5.12,-23.32,251.465,-353.516,1343.262,-22.20,-9.45,-31.95,16.91
3447,-1.08,-2.03,-24.12,223.145,-134.277,1091.309,-17.25,-5.85,-29.40,16.96
3457,0.11,-3.64,-27.95,312.500,-445.312,1316.406,-21.60,-8.10,-32.25,17.15
3469,-1.34,-2.00,-28.12,257.812,100.586,699.707,-17.40,-10.50,-28.35,16.77
3479,1.92,-4.15,-21.93,42.480,-152.832,1253.418,-17.85,-6.45,-30.30,16.77
3489,-2.34,4.38,-23.53,-124.023,-13.672,710.449,-21.30,-7.65,-31.50,16.82
3499,7.61,-3.48,-26.37,397.949,-365.234,1313.965,-16.20,-8.55,-27.60,17.01
3509,-4.97,1.32,-28.11,63.477,-239.746,1574.219,-17.55,-5.55,-30.90,16.96
3519,-7.92,2.50,-27.53,271.973,-412.109,603.516,-17.55,-5.55,-30.90,17.15
3529,-8.13,-1.45,-32.08,407.227,-335.937,944.336,-17.25,-7.50,-27.90,16.77
3541,-7.89,-4.98,-25.02,269.043,-184.570,1022.949,-20.10,-4.95,-31.05,16.82
3551,-5.24,-7.31,-29.92,203.125,-175.781,1004.395,-19.65,-7.65,-29.85,16.62
3561,3.66,-12.20,-26.69,609.375,-38.086,1182.129,-17.25,-5.85,-27.15,17.10
3571,3.02,-10.81,-26.78,45.410,-292.480,708.496,-17.25,-5.85,-27.15,16.96
3581,-2.11,-11.85,-34.40,266.113,-388.672,1325.195,-17.25,-8.25,-27.45,16.91
3591,-2.11,-8.96,-29.85,-78.125,-62.500,1282.715,-19.20,-4.35,-28.95,17.15
3601,-6.27,-5.15,-25.98,-74.219,42.969,951.660,-19.20,-4.35,-28.95,16.96
3613,-5.21,2.02,-32.31,-76.660,121.094,954.102,-15.90,-6.90,-26.55,16.91
3623,1.21,-0.49,-28.94,85.938,-104.492,1336.914,-19.95,-3.90,-30.45,16.96
3633,1.49,2.80,-22.64,106.445,-145.508,1222.168,-18.45,-9.45,-28.20,16.77
3643,1.76,5.79,-32.19,130.371,-26.367,1005.859,-15.15,-4.05,-26.55,17.25
3653,5.37,4.16,-30.85,148.926,-156.738,1541.016,-15.15,-4.05,-26.55,17.25
3663,10.25,4.70,-38.47,83.496,-455.566,1334.961,-17.55,-8.25,-27.15,16.96
3673,-0.63,6.66,-28.95,473.145,-411.133,1027.344,-18.15,-3.30,-29.55,17.10
3684,2.08,2.02,-31.18,229.492,-507.812,1208.984,-18.15,-3.30,-29.55,17.01
3694,-3.30,2.55,-29.74,410.156,-476.562,1111.816,-15.75,-5.10,-27.15,17.10
3704,-3.50,1.56,-34.82,151.855,-386.230,613.770,-19.20,-5.55,-31.65,16.91
3714,-1.69,-1.27,-33.12,320.312,-406.738,1281.738,-16.65,-8.10,-27.30,17.01
3724,1.44,-3.76,-28.52,305.176,-552.246,264.160,-17.40,-4.50,-29.85,16.96
3734,-0.41,-3.38,-29.59,69.336,-28.809,1386.719,-17.40,-4.50,-29.85,16.96
3746,-0.49,-0.81,-36.11,71.289,9.766,1106.445,-15.30,-4.65,-27.45,17.10
3756,-0.99,-2.79,-32.38,-8.301,75.195,1172.852,-19.20,-4.65,-30.90,17.10
3766,2.37,-5.34,-30.77,435.059,-229.980,873.535,-17.55,-7.95,-27.90,17.01
3776,6.03,-3.39,-49.00,0.488,332.520,1716.309,-16.50,-3.45,-30.15,16.96
3786,7.98,-3.70,-29.00,464.844,-337.891,1227.051,-16.50,-3.45,-30.15,16.77
3796,-1.81,-1.52,-33.69,-255.859,212.891,822.266,-15.75,-5.85,-28.20,17.01
3806,3.48,-3.25,-28.00,404.785,-58.105,1072.266,-20.10,-5.70,-32.55,17.15
3818,6.51,-0.95,-27.44,487.305,-884.766,472.656,-16.65,-3.30,-31.50,17.01
3828,-14.45,-0.56,-31.60,-278.320,354.004,511.230,-19.35,-6.45,-30.30,16.96
3838,-11.44,-4.86,-27.64,479.492,-297.363,1612.305,-14.55,-3.90,-28.65,17.01
3848,-12.60,1.91,-33.24,244.141,-17.578,89.844,-17.85,-5.70,-32.25,16.96
3858,0.55,-5.18,-24.71,424.805,-589.844,1999.939,-17.85,-5.70,-32.25,17.10
3868,7.07,3.46,-30.79,-226.562,-277.832,306.641,-17.40,-2.85,-31.80,16.72
3878,7.69,2.07,-27.18,360.840,-425.293,1461.914,-14.70,-6.90,-28.05,17.25
3890,7.19,2.29,-23.54,-19.531,-463.867,1321.777,-14.70,-6.90,-28.05,16.82
3900,2.53,9.11,-38.60,190.918,-625.977,676.270,-17.10,-5.70,-29.85,16.96
3915,-9.14,6.74,-31.63,151.855,-464.844,851.562,-12.75,-2.85,-27.60,16.82
3924,-9.98,0.18,-34.33,233.887,-497.070,1267.578,-17.25,-3.45,-30.90,16.96
3934,-8.79,1.79,-37.93,-142.090,90.332,528.809,-13.05,-5.55,-27.45,17.15
3944,-1.73,-0.27,-30.17,441.895,-112.305,1132.324,-13.05,-5.55,-27.45,17.10
3956,-0.08,-5.04,-33.94,312.988,-143.555,978.027,-13.05,-5.55,-27.90,16.82
3966,4.97,-5.61,-34.37,185.059,-494.629,1500.000,-15.75,-2.70,-29.40,17.25
3976,-6.17,-2.40,-35.85,-371.094,60.547,1108.887,-16.05,-6.75,-29.40,16.96
3986,3.14,-3.05,-34.73,483.887,-298.828,252.930,-13.80,-2.70,-28.95,16.91
3996,0.98,-4.82,-30.91,326.660,-745.605,1738.770,-15.75,-4.65,-30.15,17.15
4006,-0.75,0.56,-41.30,-359.863,-213.867,1011.230,-12.60,-4.35,-28.20,16.96
4016,-2.44,-2.15,-35.32,339.844,-145.020,827.148,-17.10,-3.75,-31.05,17.01
4028,-2.98,4.92,-30.76,-131.836,21.484,653.320,-16.50,-1.95,-31.20,16.77
4038,4.57,1.32,-32.85,188.965,-224.609,349.121,-13.50,-7.35,-28.05,16.96
4048,8.61,-1.44,-32.90,265.137,-191.895,1697.754,-15.30,-1.95,-30.15,17.10
4058,5.49,9.34,-30.63,42.969,-282.227,945.312,-14.70,-7.35,-29.85,16.96
4068,6.69,1.90,-34.50,229.004,-477.539,272.949,-14.70,-7.35,-29.85,16.96
4078,-0.79,-4.31,-32.23,312.012,-728.027,1600.098,-14.10,-5.55,-30.90,17.25
4090,-16.12,-4.79,-33.63,430.664,-237.305,906.250,-12.75,-2.10,-29.10,17.01
4100,-19.76,-9.31,-42.23,-24.902,-161.621,1357.422,-12.75,-2.10,-29.10,17.01
4110,-9.85,-5.34,-39.15,249.512,-249.512,909.180,-11.70,-3.30,-28.35,17.10
4120,-3.44,-7.42,-34.86,413.086,-302.734,904.297,-15.30,-3.45,-30.15,16.96
4130,2.76,-14.46,-32.00,16.113,-209.473,1489.258,-13.05,-3.15,-28.20,17.10
4140,5.25,-5.00,-35.70,-178.711,-91.797,1999.939,-16.05,-4.35,-30.15,17.01
4150,5.87,-2.31,-33.72,-179.687,-442.871,1488.770,-16.05,-4.35,-30.15,17.15
4162,10.71,-6.27,-35.21,813.477,-349.121,1975.586,-16.05,-2.25,-30.45,17.15
4172,2.05,0.61,-31.92,-119.141,-309.570,1190.430,-12.60,-4.65,-28.95,17.01
4182,-1.81,1.27,-36.86,-152.832,-479.492,658.203,-12.60,-4.65,-28.95,16.96
4192,-4.82,1.18,-32.98,387.695,-685.059,308.105,-12.60,-4.65,-28.20,17.10
4202,-12.15,2.33,-40.69,-213.867,-159.180,1510.742,-13.95,-1.35,-31.05,16.91
4212,-7.59,-2.35,-34.31,-127.930,301.270,1168.457,-12.45,-3.30,-29.10,17.10
4222,-1.19,2.23,-29.85,80.566,-90.820,830.078,-12.75,-1.35,-31.05,17.25
4233,-1.13,4.40,-47.33,-35.156,-193.359,817.383,-12.75,-1.35,-31.05,17.10
4243,-6.99,3.96,-35.12,172.852,9.766,1026.367,-13.20,-0.15,-31.05,17.25
4253,-1.88,4.03,-31.83,96.191,-281.738,754.395,-12.00,-3.75,-29.10,17.25
4263,-4.66,1.60,-37.62,-69.824,-104.004,1309.082,-12.45,-0.90,-29.85,16.91
4273,-10.41,-0.33,-36.79,47.852,-340.820,1061.523,-11.10,-3.45,-28.20,16.72
4283,-3.00,0.78,-33.75,62.012,35.156,1287.109,-11.10,-3.45,-28.20,17.15
4293,1.24,-1.23,-34.82,85.938,427.246,1280.762,-10.50,-3.75,-28.80,17.15
4305,-2.31,-2.47,-38.67,327.637,-423.828,1033.203,-12.00,-1.35,-30.75,17.01
4315,3.08,-0.73,-35.52,67.871,-302.734,893.555,-12.00,-1.35,-30.75,17.15
4325,7.97,0.18,-38.49,240.723,-268.555,991.699,-12.60,-1.05,-31.20,16.96
4335,6.14,3.18,-32.85,198.730,-245.117,712.402,-11.70,-3.75,-29.85,17.01
4345,-0.15,0.74,-35.05,335.449,-521.484,418.945,-11.10,-0.75,-30.90,16.96
4355,-4.53,0.96,-38.26,153.320,-208.496,-390.137,-10.50,-3.30,-31.50,16.82
4365,-16.89,-0.18,-39.97,-322.266,-514.160,989.746,-10.50,-3.30,-31.50,17.25
4377,-8.24,13.53,-38.72,-421.387,106.445,345.215,-10.50,-0.15,-33.75,16.96
4387,-8.42,5.80,-19.41,-208.984,-37.598,1999.939,-8.70,0.00,-33.15,17.34
4397,-4.05,4.61,-39.61,-62.988,77.637,857.910,-8.70,0.00,-33.15,17.01
4407,11.70,6.24,-32.11,-246.582,-843.750,1540.527,-9.00,0.45,-33.30,16.96
4417,8.20,5.62,-38.91,-59.082,-849.121,628.906,-8.55,-0.15,-33.30,17.01
4431,5.15,4.00,-31.96,-87.891,-443.848,840.332,-10.05,0.45,-32.25,16.96
4441,-1.73,-0.05,-38.26,-240.723,-538.086,1846.191,-10.05,0.45,-32.25,17.25
4453,-11.37,-4.40,-40.51,-296.875,-463.379,1666.992,-7.80,0.90,-32.55,17.01
4463,-2.56,-9.61,-33.95,-23.437,-467.773,601.074,-8.25,0.15,-31.80,17.25
4473,3.95,-1.92,-35.08,-262.207,97.168,1128.418,-7.65,-1.05,-31.95,17.25
4483,8.66,-7.03,-35.85,-86.914,-337.402,758.301,-8.25,1.35,-33.00,17.29
4493,7.12,-1.47,-40.56,-354.004,-114.746,1035.645,-9.15,0.75,-31.65,17.10
4503,3.69,2.93,-38.66,-178.223,-149.414,1033.203,-8.40,1.05,-31.20,16.77
4513,3.26,2.77,-38.85,-311.035,-393.066,1326.660,-9.15,0.75,-32.40,16.96
4525,-3.22,3.70,-37.58,-104.492,-571.289,898.926,-9.15,0.75,-32.40,16.91
4535,-2.95,3.59,-29.11,-209.961,-242.187,1034.180,-8.40,0.75,-33.90,16.96
4545,-1.92,1.72,-41.07,-160.645,-69.824,836.426,-8.55,0.90,-33.75,16.96
4555,5.22,3.06,-34.93,28.809,-396.973,992.676,-7.05,1.35,-33.30,17.10
4565,7.59,6.21,-39.50,-202.148,28.320,745.605,-6.60,0.45,-33.75,17.15
4575,11.40,1.21,-37.17,-3.906,-166.504,1928.223,-6.60,0.45,-33.75,17.01
4585,8.01,5.50,-34.49,-58.594,-599.609,837.891,-5.10,1.35,-33.30,16.77
4597,1.57,0.72,-38.50,118.164,-725.586,993.164,-5.85,0.15,-33.30,16.91
4607,-4.01,-2.68,-39.76,-11.719,-529.785,1208.496,-5.85,0.15,-33.30,16.82
4617,-12.03,-5.50,-32.76,67.383,-249.023,805.176,-6.45,1.05,-34.20,17.01
4627,-6.52,-7.79,-38.69,-167.969,-321.777,623.047,-6.60,0.45,-33.75,17.25
4637,-6.37,-1.96,-40.19,-55.664,260.254,499.023,-6.30,-0.45,-33.30,17.10
4647,3.22,-2.14,-35.21,79.102,-109.375,831.543,-7.05,0.15,-33.30,16.96
4657,1.31,-0.66,-35.48,-94.727,-429.199,1226.074,-7.05,0.15,-33.30,17.15
4669,5.34,-2.72,-32.82,-58.594,-680.176,617.676,-6.60,0.45,-31.80,17.25
4679,-2.86,-0.79,-33.10,4.883,-542.969,1087.402,-6.60,0.45,-31.80,17.25
4689,-4.19,4.03,-36.48,-248.047,-17.578,917.969,-5.25,0.00,-33.45,16.96
4699,4.65,3.44,-37.66,-199.707,-174.805,1248.047,-6.60,2.10,-33.75,17.25
4709,8.53,7.62,-32.54,-104.004,-251.465,1733.398,-6.15,2.70,-33.45,17.01
4719,3.56,11.58,-33.17,-393.066,-175.781,1432.617,-6.30,1.65,-34.05,17.01
4729,2.51,10.64,-38.53,-103.027,-635.742,348.145,-6.30,1.65,-34.05,17.25
4740,-1.90,12.28,-34.08,-49.316,-155.273,842.773,-4.20,1.50,-34.65,17.10
4750,3.63,3.15,-36.08,83.008,-379.395,825.684,-5.25,1.05,-33.15,16.82
4760,2.05,-2.14,-32.24,-196.777,-196.777,1437.500,-3.75,1.95,-36.60,16.82
4770,0.98,1.66,-32.34,63.965,20.996,922.852,-4.35,1.35,-34.80,16.96
4779,4.28,-1.64,-33.96,-28.320,-356.445,1347.168,-4.35,1.35,-34.80,17.10
4789,2.56,-6.42,-32.46,-291.016,-92.285,919.922,-3.60,1.35,-34.05,17.10
4799,2.89,-10.39,-26.13,20.996,-324.707,1222.168,-2.85,0.90,-34.80,16.82
4810,0.34,-8.83,-40.59,-103.027,-233.887,1507.813,-2.85,0.90,-34.80,16.82
4820,1.21,-1.54,-39.34,-287.598,-304.687,674.316,-4.20,1.95,-35.40,17.25
4830,-1.74,-1.25,-34.56,-26.855,-373.535,270.508,-3.60,2.10,-34.05,17.10
4840,2.98,-5.46,-33.21,254.883,-279.785,653.320,-3.15,1.65,-34.50,17.01
4850,-4.27,-11.26,-37.26,-146.484,-201.660,1429.199,-3.45,1.95,-33.90,17.29
4860,-2.05,-4.95,-48.03,-83.008,-468.262,1474.121,-3.45,1.95,-33.90,16.96
4870,-0.02,-6.28,-26.25,7.812,-543.945,998.047,-3.00,2.25,-33.90,16.96
4882,-8.08,-8.50,-32.02,29.785,-103.516,1377.441,-2.55,2.25,-34.95,17.25
4892,-1.32,-2.95,-26.24,-62.500,-226.562,1034.180,-2.55,2.25,-34.95,16.82
4902,-0.14,-3.05,-36.63,117.676,-252.930,690.430,-2.55,2.70,-35.70,17.15
4912,-1.83,0.18,-30.56,-140.625,-189.453,1034.668,-0.90,1.65,-34.05,17.25
4922,-0.51,2.84,-30.50,-174.316,188.477,369.141,-1.05,2.70,-34.95,17.01
4932,2.60,-0.04,-31.53,-20.996,-186.523,894.043,-0.45,2.10,-35.55,17.10
4949,-4.53,6.20,-30.95,-123.047,-167.969,726.562,-0.45,2.10,-35.55,17.01
4958,2.66,4.76,-28.38,73.242,-484.863,651.367,0.00,1.05,-33.45,16.96
4968,0.33,-2.31,-32.42,-54.199,-455.078,1552.246,0.75,0.75,-33.15,16.91
4978,0.09,-6.97,-33.18,-205.078,-550.293,1928.223,-0.45,0.15,-33.00,17.10
4988,1.30,1.20,-32.98,-145.508,-245.117,478.516,-0.15,1.35,-33.30,17.25
4998,-0.07,-1.66,-36.41,90.332,-676.758,785.156,-0.75,0.75,-32.70,17.01
5008,-5.05,-5.18,-27.37,204.590,-485.840,437.500,0.15,1.65,-31.50,16.96
5018,-1.75,-7.02,-25.36,-118.652,-187.500,1660.645,-0.15,1.35,-34.05,16.91
5030,-0.04,1.92,-32.31,2.930,-416.992,745.117,-1.05,-0.30,-33.45,17.15
5040,-3.05,2.98,-33.60,-461.426,-44.922,1383.301,1.05,2.70,-33.45,16.91
5050,1.82,5.24,-28.77,-150.879,-58.594,1406.738,-0.45,1.35,-33.75,17.15
5060,-0.08,4.72,-34.08,-74.219,-312.012,1027.344,-0.75,1.95,-32.40,17.15
5070,2.46,10.22,-34.69,-109.863,-70.801,800.293,-0.75,1.95,-32.40,17.25
5080,6.49,2.85,-38.70,328.613,-498.047,1453.613,0.75,1.95,-32.40,17.15
5092,-9.54,6.24,-37.15,161.621,-344.238,374.023,0.75,1.50,-33.90,17.10
5102,-12.30,-1.00,-36.43,138.184,-145.020,1597.656,0.75,1.50,-33.90,17.15
5112,-22.34,-1.86,-32.30,-303.223,279.785,1579.102,0.45,0.45,-33.75,17.15
5122,-10.92,3.44,-33.27,-112.793,236.328,1240.234,1.20,1.35,-32.55,16.91
5132,-5.26,1.50,-30.49,129.883,-40.527,1131.836,-0.15,0.45,-33.30,17.10
5142,-2.82,-5.53,-32.40,-162.109,34.180,1180.176,1.20,-0.45,-32.25,17.25
5152,4.81,-2.48,-25.98,-148.437,-321.777,1016.602,1.20,-0.45,-32.25,17.25
5164,1.92,-2.34,-31.08,-79.590,-222.656,1334.473,0.75,1.95,-31.95,17.01
5174,-1.19,-2.32,-18.66,67.383,-257.324,1052.734,2.10,2.10,-32.55,17.25
5184,-4.31,2.40,-27.61,-258.301,-71.777,1216.797,1.80,0.00,-33.90,17.01
5194,-7.05,3.31,-28.31,-242.676,-6.348,506.836,1.20,1.35,-34.05,16.96
5204,-13.11,7.35,-24.75,-33.691,-35.156,419.922,1.80,0.75,-32.70,16.96
5214,-5.06,-6.81,-41.25,101.563,190.430,1285.645,1.65,0.15,-33.00,17.25
5224,-5.24,-14.39,-27.47,148.926,-166.992,1229.492,1.50,0.75,-33.15,17.01
5236,2.12,-10.40,-22.50,214.355,-323.730,1296.875,1.50,0.75,-33.15,17.25
5246,12.42,-12.83,-21.64,-137.207,-236.816,1314.941,3.15,0.15,-35.25,17.49
5256,18.61,-12.71,-20.80,-40.039,-341.309,986.328,2.10,2.10,-33.00,17.25
5266,2.23,-11.47,-22.57,-156.738,-237.305,1165.527,2.25,0.75,-33.15,17.01
5276,-1.34,-15.13,-25.46,28.320,-151.855,173.340,2.55,1.95,-33.45,17.15
5286,5.63,-12.06,-22.50,242.676,-643.066,502.930,2.55,1.95,-33.45,17.10
5296,-8.08,-21.60,-27.37,3.418,-172.852,1368.652,3.00,1.50,-33.45,16.96
5308,-6.13,-14.37,-22.77,244.629,-276.855,-23.926,3.15,2.55,-33.75,16.91
5318,0.70,-28.27,-23.18,85.449,-301.758,1082.031,3.15,2.55,-33.75,17.15
5328,-0.60,-17.22,64.87,61.523,-50.781,1280.273,3.75,0.75,-34.20,17.10
5337,6.05,-25.40,-69.60,-39.551,121.094,770.020,2.40,0.90,-34.50,17.01
5347,14.03,-23.98,-20.60,302.734,-182.129,37.598,3.45,1.05,-33.90,17.10
5356,3.38,-25.35,-21.15,-108.887,-614.258,445.801,2.40,0.45,-33.30,17.25
5366,0.66,-24.78,-18.86,-223.145,-559.082,1129.883,2.40,0.45,-33.30,16.96
5377,-3.27,-28.44,-34.22,-62.500,-310.059,1766.113,2.40,0.45,-33.75,17.25
5387,-11.31,-8.24,-44.12,-545.410,145.020,1656.250,1.05,1.05,-33.45,17.25
5397,-2.24,-4.17,-22.38,-126.953,57.617,560.547,1.05,1.05,-33.45,17.10
5407,-10.27,-2.27,-11.57,180.176,-1051.270,182.617,0.75,0.00,-35.40,17.25
5417,-14.69,-7.00,-28.57,-67.383,-571.777,680.664,1.65,0.90,-33.75,16.91
5427,-21.61,-5.36,-23.96,-315.430,-4.395,1554.199,1.20,0.90,-34.80,17.34
5437,-19.56,-6.45,-27.46,177.246,-68.848,1029.785,0.75,1.05,-33.90,17.25
5449,-16.82,-8.57,-22.02,-266.602,56.152,1479.980,0.75,1.05,-33.90,17.15
5463,0.90,1.54,-31.79,-301.758,225.098,1109.375,1.65,1.35,-34.80,17.15
5473,12.23,2.18,-18.73,144.043,-423.340,1242.676,1.20,0.45,-33.00,17.25
5483,-5.04,9.05,-26.24,-309.570,-423.828,1031.738,1.80,1.50,-33.90,16.77
5493,-3.34,15.48,-23.92,-143.555,35.645,846.191,1.80,1.50,-33.90,17.34
5503,7.73,16.13,-19.12,135.742,-376.465,1253.418,2.10,1.65,-33.00,17.15
5512,10.16,13.61,-20.89,294.434,-282.227,453.125,2.25,0.30,-33.45,17.01
5524,-3.40,14.89,-41.36,-62.500,-678.223,265.625,2.25,0.30,-33.45,17.25
5534,-7.18,10.60,-21.23,405.273,-518.066,793.457,3.15,0.90,-33.30,17.15
5544,-19.61,2.19,-8.33,-88.379,102.051,1865.234,2.55,1.05,-34.20,16.96
5554,-0.64,13.17,-20.17,-261.230,758.789,1110.352,3.00,-0.30,-33.45,16.96
5564,19.79,7.13,-21.29,262.695,305.176,801.270,3.75,1.05,-31.95,17.29
5573,25.71,9.32,-12.84,177.734,-182.617,351.074,3.75,1.05,-31.95,17.29
5582,9.78,10.56,-32.44,-87.402,-737.305,1193.848,3.00,1.05,-31.95,16.96
5594,-12.69,6.00,-23.00,-19.043,-135.254,1049.805,3.45,1.05,-34.65,17.25
5604,-5.67,0.53,-19.08,255.859,-336.914,1388.672,3.45,1.05,-34.65,17.25
5614,-12.32,-0.19,-22.73,318.359,-73.242,933.105,3.15,0.15,-34.50,16.91
5624,-5.50,-0.83,-16.30,-150.879,-58.105,1648.438,4.35,0.45,-33.00,17.34
5634,5.47,-13.21,-18.34,-8.301,41.016,1562.500,4.20,1.05,-35.40,17.34
5644,8.30,0.89,-26.22,-543.457,62.500,762.695,3.75,-1.50,-32.40,17.25
5653,10.47,-0.58,-21.44,166.016,-341.309,552.246,3.75,-1.50,-32.40,16.96
5665,6.17,1.17,-22.60,-135.742,-170.410,961.426,3.90,-0.15,-33.00,17.15
5675,6.02,1.40,-23.06,150.391,-472.168,876.953,3.15,2.10,-35.55,17.10
5685,-5.92,-1.36,-17.72,-22.461,-245.605,894.043,3.15,-0.45,-34.05,17.25
5695,0.20,-0.78,-21.58,-70.313,-113.281,1167.480,3.60,0.90,-36.00,17.10
5705,7.00,4.05,-13.53,-112.793,82.520,1669.434,3.60,0.90,-36.00,17.25
5715,8.34,2.49,-17.63,162.109,-528.320,960.449,5.55,1.35,-34.05,17.29
5724,2.69,-0.31,-19.66,-111.816,-532.715,703.613,4.80,0.45,-34.05,16.91
5736,-0.25,1.43,-22.05,338.379,-70.313,835.937,4.80,0.45,-34.05,17.25
5746,2.34,-4.61,-21.90,207.031,-347.656,1708.984,5.55,0.15,-33.00,16.91
5756,-3.34,-0.24,-17.39,-11.230,249.512,900.879,5.70,1.05,-34.20,17.25
5766,-0.92,3.42,-21.75,151.855,-81.543,674.316,4.95,0.00,-34.65,17.15
5775,-0.78,3.13,-21.76,331.543,-457.520,197.754,5.10,1.35,-34.50,17.01
5785,11.45,-6.61,-15.89,312.988,-66.406,829.590,5.10,1.35,-34.50,17.15
5794,8.24,3.38,-12.65,-100.586,-243.164,1117.188,5.70,1.50,-33.90,17.15
5806,1.32,-1.79,-24.66,-241.699,-203.613,1362.305,5.25,-0.75,-33.90,17.01
5816,0.44,3.44,-22.36,-286.133,-529.297,1746.582,5.25,-0.75,-33.90,17.25
5826,-6.63,4.90,-28.04,95.215,-64.941,400.391,5.25,-0.30,-34.95,17.10
5836,-7.25,3.34,-26.41,243.164,-243.652,579.102,7.05,1.35,-34.05,17.15
5846,-0.61,0.01,-27.47,161.621,-149.414,1266.602,4.95,-0.75,-34.65,17.25
5856,-0.15,-1.56,-25.68,87.891,-343.262,1082.031,7.05,0.90,-34.80,17.01
5866,10.02,-3.50,-20.10,-80.566,-695.312,1663.574,7.05,0.90,-34.80,16.96
5879,3.95,-2.35,-28.48,271.484,-844.727,1136.230,6.90,0.75,-36.15,16.91
5889,-2.66,6.18,-37.34,37.598,-782.227,817.871,6.15,0.30,-35.70,17.10
5899,3.70,-3.03,-6.82,57.129,-368.652,1392.090,7.20,0.75,-33.15,16.82
5908,-6.90,4.89,-15.84,-128.906,-54.199,693.359,5.85,-0.45,-34.80,17.10
5918,1.11,0.34,-28.69,202.637,-615.234,441.895,5.85,-0.45,-34.80,17.15
5928,3.23,-4.42,-33.44,27.344,-782.227,1452.148,5.55,0.15,-36.00,17.10
5937,1.30,-2.36,-32.52,-108.887,-741.699,1654.785,7.65,-1.05,-33.45,16.91
5948,6.93,0.14,-33.79,79.102,-412.598,1397.461,7.65,-1.05,-33.45,17.25
5958,7.46,6.83,-37.45,42.969,-421.387,1122.070,7.95,0.00,-33.90,17.15
5979,3.68,6.21,-36.09,-104.492,-557.617,786.621,8.25,0.45,-33.75,17.44
5989,-0.88,1.97,-44.50,-98.145,-304.199,1196.777,7.35,1.35,-35.55,17.15
5999,3.40,1.58,-44.85,217.773,-907.715,925.293,7.35,1.35,-35.55,17.34
6008,-7.24,0.98,-39.92,-82.031,-443.848,960.937,7.95,1.05,-35.70,16.96
6018,-3.50,-3.95,-37.12,-27.832,-609.863,1077.637,9.30,0.15,-34.80,17.15
6028,-5.28,0.14,-42.82,-359.863,-299.316,188.965,9.30,0.15,-34.80,17.01
6040,1.37,-5.34,-44.41,-103.027,-410.645,1237.305,9.30,-0.90,-33.75,17.25
6050,3.94,-3.65,-48.29,-39.063,-383.301,1502.930,8.55,1.65,-35.25,17.25
6060,-4.16,-1.10,-44.17,-75.195,-107.910,698.242,9.75,-1.35,-33.00,17.29
6070,1.53,-2.07,-42.74,-128.906,-82.031,896.973,8.55,-1.65,-35.25,17.10
6080,3.31,-3.91,-50.11,80.566,-513.672,356.934,8.55,-1.65,-35.25,17.01
6090,13.86,-4.87,-48.84,7.324,-1090.820,1088.867,8.25,0.15,-37.05,17.10
6099,-1.89,-4.90,-48.95,87.402,-942.871,1063.477,10.95,-0.90,-32.25,17.15
6111,-8.87,-4.47,-47.82,-88.379,-503.906,1223.145,10.05,0.15,-36.00,17.25
6121,-14.01,-4.98,-53.31,125.977,-374.023,1303.711,10.50,0.15,-36.75,17.25
6131,-8.55,-7.76,-51.08,-198.242,-287.598,1730.957,10.50,0.15,-36.75,17.01
6141,2.58,-1.81,-48.56,-442.383,277.832,1254.395,10.50,0.00,-34.65,17.25
6150,6.63,-1.70,-52.60,-47.363,-417.480,1151.367,10.50,-1.65,-36.00,17.25
6160,15.35,-7.75,-46.59,299.805,-605.957,1349.609,10.50,-1.65,-36.00,17.25
6170,9.61,2.23,-55.48,104.004,-1059.082,692.871,10.35,-0.75,-35.70,17.15
6182,-11.73,0.61,-46.34,-121.094,-125.488,716.797,11.40,-0.30,-36.60,17.10
6192,-9.63,2.24,-50.32,103.516,-1000.488,1070.801,12.30,-1.50,-33.45,17.10
6202,-5.24,-8.00,-45.76,79.590,-752.441,625.488,12.30,-1.50,-33.45,17.01
6212,-10.14,-8.80,-47.85,-82.520,-1038.086,1718.262,12.60,-1.50,-34.65,17.25
6222,-5.70,5.92,-48.55,-83.008,-26.855,812.988,10.95,-0.90,-36.30,16.96
6232,3.28,-0.18,-46.75,138.184,-617.676,682.617,10.95,-0.90,-36.30,17.15
6244,1.34,-2.76,-49.92,-5.371,-573.730,1225.098,12.00,-1.65,-36.00,16.82
6254,-1.34,-5.25,-54.91,-196.289,-590.332,962.891,14.70,-2.55,-35.55,17.15
6264,-5.77,3.43,-54.49,-333.496,-121.094,901.855,11.40,-1.50,-37.35,17.10
6274,7.71,-2.79,-44.51,-43.945,-411.133,1076.660,12.75,-2.10,-33.75,17.15
6284,3.97,3.83,-54.56,-341.309,-130.859,780.762,12.75,-2.10,-33.75,17.10
6294,2.15,3.49,-60.47,-336.914,140.137,916.992,13.05,-1.95,-33.90,17.29
6304,9.62,4.88,-51.90,329.590,-415.527,872.070,13.20,-2.55,-36.00,16.82
6316,-4.30,7.87,-53.14,-170.898,-626.953,719.238,13.20,-2.55,-36.00,17.25
6326,-0.90,5.40,-55.08,54.199,-308.105,1040.039,13.20,-2.10,-36.00,17.01
6336,4.03,-1.96,-50.43,285.645,-559.570,1081.055,15.75,-3.45,-34.95,17.10
6346,-1.78,-3.89,-54.66,-30.762,-372.070,978.516,13.95,-2.10,-36.00,17.25
6356,11.03,1.44,-53.12,-106.445,-561.523,799.316,15.90,-3.75,-35.55,17.15
6366,17.55,6.42,-47.19,-182.617,-698.242,1320.801,15.90,-3.75,-35.55,16.96
6376,4.34,2.63,-54.82,70.313,-614.258,1704.590,14.85,-1.95,-34.95,17.15
6388,-17.37,-0.83,-57.43,-54.199,-653.320,596.191,13.80,-3.90,-36.90,16.96
6398,-11.05,8.13,-57.35,-451.660,-290.527,1073.242,15.90,-2.85,-35.55,17.25
6408,1.47,7.18,-59.92,476.562,-481.445,1006.348,15.15,-6.45,-35.55,16.91
6417,6.80,5.80,-56.88,778.809,-48.340,644.531,15.15,-6.45,-35.55,17.15
6427,4.66,1.28,-44.66,212.891,-434.082,442.871,15.30,-4.65,-35.40,17.34
6437,7.87,-10.95,-56.68,-40.527,-685.547,573.242,15.75,-4.35,-36.15,17.10
6447,9.30,-6.50,-78.94,-111.328,-738.770,1002.930,15.75,-4.35,-36.15,17.10
6459,-0.70,11.03,-44.92,-117.188,-663.086,124.023,15.15,-5.25,-36.30,17.25
6469,-7.06,-3.85,-56.16,362.305,-303.223,211.914,16.65,-4.05,-35.25,17.25
6479,13.82,-40.27,-70.47,873.047,82.031,784.180,15.90,-6.90,-35.55,16.96
6495,1.53,-5.18,-56.64,-520.020,-537.598,583.984,16.80,-2.25,-35.70,17.29
6504,-1.75,7.72,-45.69,-260.742,-492.187,618.652,16.50,-3.90,-36.60,17.34
6514,1.25,-5.09,-52.24,-546.875,-402.832,1124.023,17.25,-6.75,-34.65,17.25
6524,-4.62,6.78,-38.39,91.309,-393.555,1224.121,17.25,-6.75,-34.65,17.01
6535,3.97,9.31,-30.02,-9.277,-339.355,966.797,17.40,-4.95,-35.25,17.01
6545,9.63,10.40,-37.40,199.219,-183.594,387.207,16.50,-5.55,-37.35,16.91
6555,10.11,4.26,-48.68,-204.590,-74.219,1381.348,18.90,-6.15,-36.30,17.15
6565,7.82,2.22,-39.47,-347.656,-464.355,977.051,17.25,-6.75,-37.65,17.29
6575,3.98,5.54,-42.28,-234.375,24.414,965.820,17.25,-6.75,-37.65,17.34
6585,0.82,8.72,-44.43,-222.656,-150.391,1333.008,17.25,-5.55,-37.35,17.01
6595,-3.36,3.25,-38.56,135.742,-283.691,1305.664,21.45,-6.30,-34.65,17.15
6607,-6.61,1.78,-35.34,71.289,-277.344,876.465,16.80,-7.95,-38.10,17.25
6617,1.38,-4.98,-38.81,172.363,-411.133,1324.219,19.95,-4.65,-36.15,17.10
6627,10.14,-3.24,-36.55,343.262,-869.141,946.777,17.25,-7.05,-37.65,16.91
6637,4.73,2.49,-29.07,88.867,-433.594,1154.297,19.20,-6.75,-36.15,17.29
6646,6.28,-1.92,-47.53,45.898,-595.215,1293.457,18.00,-8.70,-37.35,17.25
6656,-0.93,3.68,-40.69,53.223,-54.199,988.281,18.00,-8.70,-37.35,17.25
6666,-6.02,-2.40,-42.17,-206.055,191.895,946.777,18.45,-9.15,-37.35,17.15
6678,1.59,-3.47,-44.26,179.199,-447.754,817.871,19.95,-5.85,-38.10,17.15
6688,-1.76,-2.46,-42.94,-18.555,31.250,1258.301,18.15,-9.75,-34.80,17.01
6698,-2.69,-5.99,-30.48,477.539,-243.164,927.734,19.50,-6.75,-37.35,16.91
6708,-7.84,0.03,-33.96,-33.691,-393.555,1055.176,19.50,-6.75,-37.35,17.25
6718,9.34,-3.48,-45.01,190.430,-941.406,993.164,18.90,-7.65,-37.80,17.49
6728,-3.73,0.55,-41.82,-63.477,-90.332,605.469,20.85,-8.10,-36.00,17.34
6738,5.10,-9.04,-38.69,194.824,-658.203,842.285,20.85,-8.10,-36.00,17.10
6750,-6.57,-4.73,-38.39,-98.145,-562.988,664.062,20.25,-8.70,-35.70,17.34
6760,-3.57,-0.05,-37.10,415.039,-285.645,385.254,19.20,-9.15,-37.35,17.01
6770,-2.94,-0.76,-31.64,86.426,-458.496,1034.180,20.55,-7.65,-36.30,17.01
6780,-1.24,-1.89,-36.87,-32.227,46.875,1224.121,19.35,-9.30,-36.30,17.01
6790,-1.86,-0.38,-31.63,214.355,-686.523,1052.246,19.35,-9.30,-36.30,17.34
6800,1.08,0.99,-39.01,395.996,-1272.949,1168.945,21.00,-11.10,-36.60,17.01
6812,2.14,-4.51,-38.89,95.703,-716.309,1404.297,19.50,-9.45,-37.35,17.29
6822,2.79,5.20,-43.51,-14.648,-481.934,968.750,20.85,-9.75,-36.30,17.29
6832,0.16,4.56,-37.55,-49.316,-324.707,1169.922,21.60,-8.85,-37.50,17.25
6842,1.92,1.85,-48.14,-90.820,-364.746,1106.934,21.30,-9.30,-36.30,17.15
6852,18.68,-1.94,-45.28,5.859,-795.410,842.773,20.55,-9.30,-36.75,17.10
6862,10.81,0.11,-44.84,-43.457,-72.754,1074.707,21.00,-9.15,-36.60,16.96
6872,4.17,0.01,-50.69,341.797,-441.895,598.145,21.00,-9.15,-36.60,17.29
6884,9.62,2.96,-44.86,-39.063,-563.965,290.039,21.90,-11.85,-36.60,17.10
6894,9.53,-3.05,-44.27,-36.133,-426.758,948.730,20.25,-9.15,-36.90,17.15
6904,-11.40,1.10,-55.22,33.691,-415.039,1021.973,21.90,-11.55,-36.90,17.25
6914,-13.44,-0.60,-48.82,26.855,-721.191,744.141,21.90,-11.55,-36.90,17.44
6924,-4.14,4.29,-47.25,260.742,-598.145,1475.098,22.05,-10.95,-36.30,17.29
6934,-16.02,4.30,-43.23,143.555,-343.262,1112.793,20.70,-10.35,-38.10,17.10
6944,-5.17,2.69,-41.25,218.262,-533.691,1052.734,20.70,-10.35,-38.10,17.15
6956,2.63,2.44,-48.38,97.168,-520.996,726.562,22.20,-12.75,-37.65,17.01
6966,5.66,8.19,-42.86,117.188,-454.102,576.172,21.90,-10.35,-38.85,17.01
6976,-1.73,5.55,-41.57,48.828,-752.930,1187.500,22.95,-12.75,-38.10,17.01
6986,-0.08,-0.03,-40.87,31.738,-971.680,1213.379,21.30,-10.50,-39.00,17.34
6996,-3.61,-0.64,-45.96,-4.883,-565.918,1235.840,21.30,-10.50,-39.00,17.25
7010,9.98,0.76,-49.29,87.891,-462.402,1676.270,21.60,-13.65,-39.00,17.25
7020,4.97,-2.65,-50.91,-139.648,-306.152,887.207,22.05,-10.50,-37.05,17.25
7032,4.48,4.02,-42.56,-170.410,-608.887,1422.363,22.05,-10.50,-37.05,16.96
7042,0.71,3.90,-46.82,131.348,-513.184,1135.742,22.95,-11.55,-40.65,17.15
7052,-3.23,11.73,-36.22,69.336,-439.941,1053.711,23.40,-13.80,-37.65,17.49
7062,-1.80,12.89,-48.89,-462.891,205.078,1433.105,21.90,-12.30,-38.10,17.15
7072,6.92,5.39,-43.32,-93.262,-498.047,1154.785,23.55,-13.65,-37.05,17.25
7082,7.34,11.23,-42.44,486.816,-662.598,923.828,23.55,-13.65,-37.05,17.25
7091,-11.50,6.09,-46.40,-54.688,-156.250,892.090,23.70,-11.85,-39.15,17.10
7102,-9.95,3.89,-47.07,-377.930,-147.461,1130.371,22.95,-15.90,-38.85,17.25
7112,1.79,-7.47,-51.87,692.383,-1006.836,721.191,24.00,-13.65,-39.00,17.44
7122,-18.08,0.89,-40.37,-549.316,-51.270,658.203,24.00,-13.65,-37.50,17.01
7132,6.48,-7.85,-50.33,1141.602,-1150.391,331.543,24.00,-13.65,-37.50,17.15
7142,-11.44,-0.71,-49.17,-381.836,458.496,1108.398,24.15,-14.70,-38.85,16.96
7152,7.19,-8.65,-42.20,1020.508,-639.648,666.016,25.05,-13.65,-38.55,17.29
7162,1.05,-7.81,-41.52,-179.687,-419.434,431.641,25.05,-13.65,-38.55,17.10
7174,-6.27,0.39,-45.95,-68.359,-426.758,1257.813,25.35,-14.25,-38.85,17.25
7184,4.76,-3.82,-35.06,-7.812,-774.902,1368.652,23.25,-15.30,-39.30,17.15
7194,-4.34,-3.21,-37.82,-189.453,-723.145,1414.063,25.05,-15.30,-38.55,17.34
7204,-6.36,3.90,-32.53,-374.023,-451.172,1707.520,25.05,-15.30,-38.55,17.29
7214,1.15,9.27,-42.60,-23.437,-738.770,692.871,24.00,-14.85,-40.80,17.25
7224,-6.84,8.28,-35.82,288.086,-918.457,868.164,25.05,-16.80,-38.55,17.29
7236,-4.90,4.07,-37.61,344.727,-629.395,730.469,25.05,-16.80,-38.55,17.25
7246,-6.28,5.31,-43.98,110.352,-151.855,980.957,23.40,-15.45,-39.15,17.10
7256,2.31,2.13,-35.85,426.270,-813.965,1304.199,24.15,-18.30,-39.15,17.25
7265,-5.32,-0.18,-36.11,591.309,-467.285,796.387,24.60,-15.90,-41.10,17.29
7275,-6.28,-1.87,-47.19,-8.789,-499.023,1414.551,24.60,-17.40,-38.40,17.29
7285,-2.92,-6.78,-41.52,70.801,-307.129,1907.715,24.60,-17.40,-38.40,17.44
7295,0.87,-2.79,-41.62,319.336,-509.277,324.707,25.05,-16.05,-39.30,17.15
7307,9.06,-8.12,-54.43,-428.223,-931.152,903.809,25.35,-19.05,-39.60,17.25
7317,4.06,1.41,-39.34,337.402,-756.836,492.676,24.75,-16.50,-40.05,16.96
7327,-2.19,-1.15,-42.66,476.074,-373.047,1079.102,25.65,-17.10,-38.10,17.34
7337,-7.40,0.06,-39.66,-451.660,-462.891,1964.844,23.25,-18.00,-40.80,17.25
7347,0.39,3.48,-40.76,40.527,-674.805,778.320,25.65,-17.40,-40.65,17.25
7357,-9.97,4.33,-47.85,-128.418,-282.715,537.598,24.15,-21.45,-40.35,17.25
7367,-0.64,2.11,-39.75,-441.895,-235.840,1011.230,24.15,-21.45,-40.35,17.10
7379,11.74,2.53,-37.24,266.602,-875.488,1494.629,25.05,-19.65,-38.55,17.15
7389,-2.25,6.58,-32.07,-42.480,-389.160,725.098,24.60,-18.60,-41.10,17.10
7399,-0.63,1.60,-41.02,-143.555,-411.133,947.266,24.00,-17.70,-40.05,17.10
7409,10.16,-0.24,-42.15,402.344,-1175.293,340.820,23.70,-19.80,-38.85,17.25
7419,-7.09,-0.55,-38.02,48.340,167.480,922.363,23.70,-19.80,-38.85,17.10
7429,-0.59,-2.08,-40.85,2.441,-489.746,1374.023,27.00,-19.20,-39.30,17.25
7439,4.12,0.11,-40.09,149.414,-656.250,991.211,24.30,-21.60,-40.05,17.10
7451,-0.15,-8.02,-42.02,-20.020,-543.945,1375.488,24.30,-21.60,-40.05,17.44
7461,4.60,-1.72,-50.24,305.176,-379.395,858.887,24.90,-20.70,-38.85,17.25
7471,3.34,5.14,-36.89,-187.012,-284.180,657.715,24.00,-20.40,-39.30,17.29
7481,0.51,-1.10,-38.60,-236.328,-353.516,1851.563,24.30,-18.90,-38.25,17.10
7491,5.91,-1.54,-41.28,24.414,-573.242,875.977,24.60,-21.00,-39.15,17.15
7501,-3.92,0.71,-40.51,41.504,-420.898,1173.340,24.60,-21.00,-39.15,17.25
7511,-2.10,1.66,-40.60,-140.625,-499.023,1707.520,25.35,-21.90,-39.60,17.01
7528,-11.03,3.16,-38.86,-167.480,-174.805,1160.645,24.90,-22.65,-41.40,17.25
7537,-9.28,-2.66,-37.98,-201.660,-449.219,1874.512,24.15,-21.90,-39.15,17.44
7547,1.04,4.67,-39.09,347.168,-809.082,405.762,24.60,-21.45,-41.10,17.25
7556,-6.65,7.27,-44.72,16.113,-340.332,171.875,25.50,-22.50,-39.75,17.25
7566,-6.21,-0.77,-48.81,-208.008,-15.625,1834.961,24.75,-22.05,-38.55,17.01
7576,4.95,1.72,-41.85,290.039,-644.531,864.746,24.75,-22.05,-38.55,17.15
7587,-3.07,5.95,-41.40,-88.379,-678.711,1352.539,24.75,-22.50,-39.75,17.15
7597,1.85,3.68,-44.58,-56.152,-948.730,1434.570,23.25,-23.25,-40.80,17.25
7607,4.27,5.07,-37.67,23.437,-619.629,156.250,24.60,-21.00,-40.35,16.96
7617,-11.60,0.50,-48.84,-376.465,-483.887,1958.008,26.10,-23.85,-39.60,17.10
7627,4.52,-3.94,-49.15,616.699,-6.836,81.055,24.30,-23.70,-40.50,17.25
7637,-1.53,-9.93,-37.53,-144.531,-1085.938,1431.641,23.55,-22.50,-40.50,17.25
7649,-0.62,-6.40,-32.17,796.387,-968.262,1535.645,22.80,-22.80,-40.05,17.25
7659,-2.73,-0.94,-46.37,-189.941,-286.133,668.457,22.80,-22.80,-40.05,17.10
7669,3.55,-2.89,-51.14,420.410,-1302.246,1128.906,23.55,-23.25,-40.80,17.25
7679,-3.53,7.12,-41.13,-332.031,-61.523,1203.613,24.90,-23.10,-39.60,17.29
7689,1.06,-0.93,-29.70,177.246,-1172.363,1999.939,24.60,-25.05,-41.40,17.10
7699,-0.21,11.18,-43.42,271.484,-648.437,601.074,23.40,-22.65,-40.65,17.29
7709,-21.18,3.76,-30.81,-518.066,-249.023,1999.939,23.40,-22.65,-40.65,17.01
7721,-17.82,6.60,-41.31,-810.059,-136.230,1487.793,23.55,-25.20,-41.25,17.10
7731,7.74,0.24,-28.08,708.496,-744.629,586.426,22.80,-23.25,-40.05,17.10
7741,-20.48,11.73,-44.46,133.789,87.402,207.031,22.80,-23.25,-40.05,17.25
7751,-1.27,-5.39,-44.30,146.973,-614.258,822.266,23.70,-26.25,-39.90,17.15
7761,-18.07,-2.81,-48.25,459.473,-751.953,1783.691,23.40,-23.85,-40.35,17.10
7771,-0.89,-3.97,-41.79,-208.984,-200.195,1099.609,25.05,-24.45,-39.75,16.91
7781,-6.43,-7.12,-30.55,758.301,-583.496,976.562,23.25,-28.05,-41.25,17.25
7793,-1.55,-7.17,-47.96,745.605,-814.453,981.934,23.25,-28.05,-41.25,17.25
7803,-18.99,-2.61,-41.40,-242.676,-264.648,1268.066,24.60,-25.80,-40.65,17.34
7813,13.34,-8.89,-28.99,139.160,-702.637,708.984,22.95,-27.45,-39.90,17.49
7823,-11.14,2.83,-40.31,-62.500,375.488,954.102,23.25,-26.85,-41.25,17.25
7833,24.75,-3.82,-37.24,412.598,-590.332,447.754,23.70,-25.80,-39.90,17.25
7843,-23.50,-4.75,-42.27,-432.129,-9.277,1742.676,24.60,-28.65,-41.10,17.25
7855,-21.22,5.10,-33.19,-28.809,-49.316,183.594,22.95,-26.25,-40.35,17.25
7865,13.02,1.80,-34.27,91.309,-400.391,260.254,22.95,-26.25,-40.35,16.96
7875,-8.21,1.94,-42.47,-63.965,-455.566,1878.906,22.95,-26.55,-41.85,16.82
7885,8.60,-0.02,-31.95,80.078,-580.566,-6.836,24.60,-26.55,-40.65,17.49
7895,-9.60,-0.53,-38.12,-49.316,-143.555,1999.939,22.65,-27.75,-41.10,17.15
7905,7.33,-3.44,-33.02,667.480,-411.621,189.941,22.05,-27.15,-42.45,17.15
7915,-11.95,6.31,-38.71,-125.488,-77.148,377.930,22.05,-27.15,-42.45,17.34
7927,-31.66,2.69,-35.35,-104.492,-1.465,571.777,23.55,-28.35,-41.55,17.25
7937,7.24,-6.42,-38.67,644.531,-543.945,-89.355,22.35,-26.40,-41.55,17.25
7947,-25.63,-0.11,-49.12,-803.711,-165.039,355.957,22.35,-26.40,-41.55,17.25
7957,5.16,-2.02,-19.59,128.418,-623.047,603.027,23.70,-29.40,-40.35,17.25
7967,-8.94,1.63,-51.63,359.863,-937.988,1999.939,22.20,-28.65,-42.15,16.96
7977,-0.76,3.62,-35.43,-166.992,23.437,998.047,22.65,-27.45,-41.10,17.29
7987,-3.68,-2.79,-37.80,404.297,-812.500,1999.939,21.45,-28.95,-40.65,17.44
7999,2.52,-6.44,-39.47,551.270,-1038.086,1999.939,21.45,-28.95,-40.65,17.25
8009,4.63,4.40,-45.99,-459.961,-192.871,1008.789,22.65,-27.75,-41.10,16.91
8019,-5.00,6.53,-48.19,329.590,-773.437,1405.762,22.20,-30.15,-40.35,17.34
8029,-11.45,4.48,-43.85,-564.453,-323.242,917.969,22.20,-30.15,-40.35,16.96
8043,9.69,-0.71,-40.21,390.137,-1127.441,1999.939,22.80,-28.35,-40.05,17.15
8053,-4.23,9.08,-41.53,72.754,-313.965,879.883,22.35,-30.00,-40.05,17.34
8065,8.67,-3.63,-39.68,118.164,-708.984,650.391,21.60,-27.60,-43.20,17.29
8075,7.24,-8.72,-41.15,-453.613,-757.812,653.320,21.60,-27.60,-43.20,17.25
8085,-16.37,-4.29,-51.65,319.824,-363.281,805.176,21.30,-27.60,-43.20,17.10
8095,-9.92,-1.50,-35.01,-66.406,-355.957,524.414,20.85,-30.00,-42.75,17.25
8105,-0.39,-12.21,-43.41,-329.590,-560.547,478.027,20.85,-30.00,-42.75,17.10
8115,9.38,-3.35,-41.92,699.707,-708.496,1461.914,21.90,-31.80,-41.85,17.25
8125,-1.77,0.82,-33.53,-423.828,-240.723,-86.426,22.05,-31.20,-42.75,17.34
8137,7.21,2.45,-48.03,-312.012,-410.156,982.910,22.20,-29.85,-42.90,17.29
8147,5.01,0.19,-36.51,71.777,-854.004,1407.227,21.60,-31.20,-40.50,17.25
8157,-4.82,4.70,-31.29,225.098,-895.508,1801.758,21.60,-31.20,-40.50,17.34
8167,-0.44,2.29,-54.30,-286.621,-335.937,7.812,21.00,-29.40,-42.15,17.29
8177,-1.31,3.13,-33.35,530.273,-1257.813,1680.664,22.20,-31.80,-41.10,17.29
8187,-7.41,6.16,-32.16,-496.582,-367.676,682.129,20.70,-31.80,-42.15,17.01
8197,4.31,-0.39,-31.45,-24.902,-714.844,802.246,20.70,-29.40,-42.60,17.49
8209,10.11,0.25,-40.33,-344.727,-825.684,1845.215,20.70,-29.40,-42.60,17.25
8219,11.99,-1.93,-39.63,161.621,-906.250,749.512,21.60,-31.20,-41.55,17.34
8229,14.18,-3.30,-42.97,-355.469,-569.336,856.934,19.95,-31.80,-41.40,17.34
8239,-0.04,1.92,-43.01,230.957,-93.262,1548.340,19.95,-31.80,-41.40,17.25
8249,2.12,-7.00,-28.21,106.934,-846.191,438.965,20.25,-33.00,-41.10,17.01
8259,-9.74,2.82,-26.69,-351.074,-210.449,817.871,18.45,-33.00,-41.85,17.34
8271,-11.23,1.02,-42.00,-351.562,-570.801,789.062,19.65,-31.20,-40.80,17.25
8281,-4.10,7.01,-52.98,199.219,-1165.039,1419.922,21.00,-32.25,-40.35,17.15
8291,-12.03,-0.99,-52.27,103.516,-738.770,1402.832,21.00,-32.25,-40.35,17.10
8301,8.83,-4.71,-49.87,-543.945,55.176,1693.359,19.50,-31.35,-40.35,17.15
8311,8.68,6.66,-52.08,0.000,-987.793,1775.879,19.65,-31.20,-40.50,17.29
8321,11.72,0.22,-33.60,148.437,-920.410,621.094,19.65,-31.20,-40.50,17.25
8330,0.27,-2.05,-34.76,488.770,-112.793,810.547,19.50,-33.00,-41.10,17.01
8342,1.29,-1.40,-39.04,34.668,-1022.461,695.312,19.65,-31.95,-41.55,17.44
8352,-2.05,1.08,-32.11,275.391,-898.926,1767.578,20.85,-33.60,-40.80,17.34
8362,-12.30,-5.33,-55.85,-875.977,-257.812,1000.977,18.00,-33.45,-42.15,16.96
8372,-3.08,-1.47,-51.05,241.699,-35.645,974.121,18.00,-33.45,-42.15,17.29
8382,3.19,-1.31,-32.89,356.934,-556.641,913.574,19.35,-33.15,-40.50,17.10
8392,-6.63,-1.44,-53.69,-645.020,-437.012,1999.939,18.60,-34.35,-40.05,17.01
8402,9.08,3.92,-38.05,265.137,-942.383,335.937,19.50,-32.55,-42.15,17.44
8414,2.11,1.59,-34.94,-114.258,-21.973,1500.977,18.60,-32.40,-40.80,17.25
8424,16.11,1.75,-54.84,416.992,-1469.238,659.180,18.60,-32.40,-40.80,17.01
8434,10.64,-10.85,-45.95,153.320,-1541.504,1220.703,16.65,-35.25,-41.25,16.96
8444,-8.21,0.76,-39.01,-158.203,-75.684,1395.996,18.45,-32.55,-41.10,17.10
8454,4.13,-9.12,-42.89,169.922,-658.691,842.773,18.45,-32.55,-41.10,17.01
8464,3.49,-4.35,-37.78,318.359,-729.492,-59.570,18.45,-34.95,-41.10,17.25
8474,-6.55,-13.16,-23.18,-109.863,-407.227,1455.566,17.25,-33.45,-42.15,17.25
8486,19.67,-10.43,-30.21,783.203,-1324.219,1491.211,19.35,-35.25,-40.05,17.25
8496,-3.50,1.47,-41.15,-449.707,-180.176,1110.840,19.35,-35.25,-40.05,17.25
8506,5.76,2.05,-32.02,50.293,-540.039,988.281,19.35,-33.60,-40.80,17.49
8516,12.54,0.66,-47.01,526.855,-948.242,1910.156,16.80,-33.00,-40.65,17.01
8525,-0.59,0.82,-36.56,-37.598,-24.414,1747.559,16.80,-33.00,-40.65,17.29
8535,12.67,-1.04,-41.54,348.145,-1313.965,524.902,16.80,-33.00,-40.65,17.34
8547,3.51,-2.69,-30.62,160.645,86.914,1576.660,18.15,-34.35,-40.80,17.44
8561,10.15,-3.78,-39.70,569.824,-1206.543,1481.445,17.55,-34.20,-40.35,17.01
8571,-10.94,1.46,-27.76,-166.504,-705.566,1038.086,16.05,-36.15,-39.90,17.01
8581,-6.66,-2.18,-45.66,-192.383,-24.902,472.656,16.05,-36.15,-39.90,16.96
8591,17.92,-5.15,-35.57,377.441,-771.484,841.797,16.65,-34.35,-40.50,17.44
8601,0.66,-4.68,-33.85,-129.883,-711.426,959.473,15.90,-36.00,-40.05,17.25
8611,-9.24,0.51,-40.20,-475.098,-237.793,654.297,16.05,-35.40,-40.35,17.25
8621,8.79,-2.74,-25.56,185.059,-94.238,1539.551,15.75,-33.75,-39.90,17.29
8633,-8.15,-2.24,-30.50,-811.523,-348.633,1477.539,16.05,-35.85,-39.90,17.25
8643,14.06,-0.49,-37.37,532.227,-651.855,564.453,16.50,-37.35,-39.90,17.25
8653,-2.55,-2.61,-46.35,194.336,-1034.668,1267.090,15.45,-33.15,-40.50,17.01
8663,-8.98,3.33,-40.44,-427.246,-354.492,1140.625,15.45,-33.15,-40.50,17.10
8673,-3.76,-3.34,-30.16,96.680,-1.953,1376.953,14.70,-36.00,-39.30,17.01
8683,12.17,-5.25,-25.85,461.914,-1653.320,1706.055,16.80,-36.60,-40.65,16.96
8693,-16.84,-3.37,-51.23,-575.195,-601.562,1373.535,15.75,-35.40,-39.90,17.25
8705,4.41,1.66,-41.27,185.547,-1022.949,1201.660,15.75,-36.15,-39.15,17.25
8715,-12.67,9.84,-34.31,-337.891,-62.500,175.293,15.75,-36.15,-39.15,17.25
8725,0.24,-3.16,-40.86,218.750,-448.730,1749.023,15.15,-35.55,-41.25,17.29
8735,5.21,-1.27,-27.37,245.117,-1690.918,226.074,14.70,-35.25,-40.05,16.96
8745,-25.16,2.44,-40.08,-792.480,-86.426,640.625,14.70,-35.25,-40.05,16.82
8755,-7.44,-1.91,-38.08,-272.949,389.648,1345.703,15.45,-36.00,-40.50,17.29
8765,16.34,0.41,-34.83,-217.773,-533.203,1479.004,16.05,-34.20,-41.10,17.29
8776,14.52,3.21,-46.45,109.375,348.633,1466.797,13.50,-35.55,-40.50,17.29
8786,13.73,-11.45,-29.47,-9.766,-875.488,762.207,14.85,-35.40,-38.85,17.25
8796,-2.44,4.17,-32.70,-275.391,-603.516,1541.504,14.85,-35.40,-38.85,17.25
8806,-3.54,13.37,-41.80,-9.766,-77.148,982.422,14.10,-34.95,-39.15,16.96
8816,18.82,7.99,-36.69,545.410,-1086.426,736.816,14.85,-35.85,-39.60,17.10
8826,8.65,-5.35,-35.01,577.637,-1381.348,460.449,14.85,-35.85,-39.60,17.29
8838,6.73,1.52,-27.57,62.988,-924.316,1020.508,13.95,-35.25,-40.05,17.25
8848,1.46,6.20,-31.31,16.602,-691.895,748.047,13.95,-36.75,-39.00,17.25
8858,-10.65,6.00,-49.76,-136.230,243.652,1715.332,14.40,-34.80,-39.75,17.29
8868,6.04,4.11,-27.84,-290.527,-494.141,1082.031,14.40,-34.80,-39.75,17.25
8878,6.62,4.64,-41.14,6.836,-885.742,545.410,14.85,-35.40,-41.85,17.29
8888,-5.24,2.87,-34.11,-132.324,-204.102,1244.141,13.05,-34.95,-40.65,17.15
8898,-6.11,9.11,-39.92,-104.004,-285.156,474.121,14.70,-36.45,-40.50,17.15
8910,-0.98,11.24,-22.80,-28.809,-787.109,373.047,14.40,-36.75,-40.50,17.01
8920,4.82,-1.09,-37.05,168.945,-804.687,1570.801,13.20,-37.65,-40.05,17.15
8930,5.40,-1.99,-23.73,-196.289,-615.234,672.363,14.10,-35.40,-40.35,17.29
8940,-16.60,-6.27,-116.44,-66.895,-701.172,1317.871,13.95,-36.45,-41.55,17.29
8950,-5.42,1.69,-30.40,-270.020,-466.797,726.074,13.95,-36.45,-41.55,17.25
8960,5.53,-2.77,-35.38,-229.004,-737.305,805.664,11.70,-36.00,-40.05,17.29
8970,-1.77,-2.14,-37.35,4.395,-557.129,1049.316,14.40,-36.00,-41.25,17.10
8982,2.56,-3.84,-32.09,-85.938,-734.863,1093.750,13.95,-36.45,-40.50,17.25
8992,8.52,-2.10,-40.04,-115.723,-910.645,895.508,14.10,-36.60,-40.35,17.01
9002,1.60,0.52,-39.94,-190.430,-11.719,1506.348,14.10,-36.60,-40.35,17.15
9012,4.40,1.47,-36.38,-72.266,-425.293,1145.020,12.75,-36.75,-40.80,17.29
9022,0.77,1.18,-40.50,-312.500,-189.453,676.270,13.05,-35.85,-41.85,17.25
9032,7.27,-5.66,-36.11,-61.523,-517.578,1773.438,13.05,-35.85,-41.85,17.34
9042,6.60,-0.26,-44.76,-242.676,-387.695,1309.570,13.05,-36.60,-40.35,17.15
9054,-9.46,-0.78,-33.48,-52.246,-1147.461,925.293,12.30,-36.15,-40.35,17.44
9064,-1.43,-2.40,-29.88,148.926,-379.395,914.062,12.45,-36.45,-39.75,17.29
9079,6.29,-0.17,-39.29,-359.863,-559.082,1645.996,12.00,-36.75,-39.00,17.29
9088,9.52,0.92,-41.23,85.449,-270.508,455.078,13.05,-36.60,-40.35,17.15
9098,-2.50,-2.06,-37.79,-324.707,-831.055,1538.574,11.85,-36.60,-40.65,17.25
9108,9.88,6.15,-42.69,-263.184,-310.547,399.902,11.85,-36.60,-40.65,17.01
9120,9.80,8.09,-45.00,-93.262,-744.141,666.016,11.70,-36.00,-39.00,17.25
9130,8.30,4.88,-39.63,-109.375,-179.687,317.871,11.25,-36.00,-39.75,17.25
9140,5.35,2.57,-35.92,64.453,-775.879,1333.496,11.40,-37.35,-39.15,16.96
9150,1.47,1.47,-45.60,-133.789,-296.387,960.449,11.10,-37.35,-39.60,17.15
9160,-1.80,5.72,-47.49,-345.215,-835.449,1391.602,11.10,-37.35,-39.60,17.25
9170,2.69,6.54,-43.11,-257.812,-277.832,1493.652,11.70,-37.20,-39.75,17.29
9180,4.26,-0.79,-39.53,-36.621,-475.098,1738.281,11.70,-37.95,-40.50,17.34
9192,10.37,2.95,-29.82,-3.906,-365.723,856.445,11.25,-36.45,-40.05,17.15
9202,11.02,4.31,-41.33,-126.465,-654.785,1051.758,11.70,-37.20,-39.00,17.25
9212,8.04,-2.50,-37.66,1.465,-727.539,1205.566,11.70,-37.20,-39.00,17.10
9222,3.96,4.67,-39.09,-214.355,-764.160,1088.379,12.30,-37.35,-39.90,16.91
9232,-2.91,3.06,-39.52,-79.102,-378.418,807.617,11.25,-36.75,-38.55,17.15
9242,1.70,8.05,-38.91,-198.730,-558.594,977.051,11.25,-36.75,-38.55,17.25
9254,4.11,3.05,-43.41,11.719,-712.891,1448.242,10.50,-36.75,-40.50,17.15
9264,-4.03,3.60,-44.93,-277.832,-816.895,1600.586,10.95,-36.75,-40.50,17.29
9274,0.23,5.63,-40.55,-10.254,-534.180,148.926,11.70,-37.65,-39.30,17.29
9284,-5.52,3.70,-43.19,-171.387,-373.535,820.312,11.10,-37.05,-39.60,17.34
9294,0.59,1.81,-44.01,8.789,-290.039,720.215,11.10,-37.05,-39.60,17.10
9303,-7.53,-3.68,-46.34,-213.867,-245.605,1549.316,11.70,-36.75,-39.00,17.25
9313,5.79,-5.49,-46.24,-27.344,-468.750,784.180,10.05,-37.65,-39.30,17.15
9325,3.51,0.69,-33.92,-243.164,-405.762,1056.641,10.05,-37.65,-39.30,17.15
9335,6.89,-4.71,-44.85,2.930,-577.637,1646.484,10.95,-37.95,-40.05,17.25
9345,15.09,-5.53,-41.68,-96.680,-943.848,203.125,10.50,-37.95,-39.00,17.44
9355,5.66,2.36,-47.15,-461.426,-927.246,1341.309,11.10,-38.55,-38.85,17.15
9365,9.02,-2.65,-42.66,-122.070,-1095.215,351.562,9.30,-37.95,-40.05,16.96
9375,2.53,-9.36,-44.24,-107.422,-746.094,1703.125,9.30,-37.95,-40.05,16.91
9385,3.46,1.45,-46.69,-138.672,-677.734,314.453,10.35,-37.80,-39.90,17.15
9397,0.44,5.45,-51.26,-281.738,-178.223,559.570,12.00,-37.65,-39.00,16.82
9407,-2.44,-0.01,-41.31,-157.227,-706.055,892.578,9.75,-38.70,-39.75,17.25
9417,3.27,-3.33,-39.15,141.602,-783.691,952.637,9.75,-37.95,-39.00,17.15
9427,1.23,-9.90,-48.27,-251.465,-543.457,1151.367,9.15,-37.35,-39.15,17.25
9437,-2.60,-3.04,-47.24,-256.836,-6.836,1094.727,10.35,-38.55,-39.15,17.25
9447,2.14,-1.95,-46.30,237.305,-628.418,216.309,10.50,-39.60,-39.00,17.34
9457,-3.13,-2.15,-48.56,-225.586,-539.551,996.094,10.50,-39.60,-39.00,17.01
9469,-14.64,-2.63,-44.37,-250.000,-105.957,1152.832,8.70,-37.80,-38.85,17.10
9479,1.18,-3.04,-45.21,-60.059,-589.355,868.164,9.75,-37.65,-37.80,17.25
9489,-5.38,3.19,-44.77,-432.129,-274.414,1202.637,9.00,-37.95,-38.55,17.25
9499,3.56,2.63,-33.88,7.812,-702.148,476.074,9.00,-37.95,-38.55,17.29
9508,-9.30,2.20,-43.04,-457.031,99.609,1621.582,8.40,-39.75,-38.10,17.15
9518,4.22,-1.08,-36.35,-182.129,-974.609,1732.422,9.15,-38.25,-39.15,17.25
9528,-3.84,9.91,-52.40,-181.641,130.371,833.008,9.15,-38.25,-39.15,17.10
9540,8.10,6.92,-46.69,-149.414,-505.859,332.520,9.30,-39.15,-37.50,17.15
9550,12.60,-0.44,-49.42,25.391,-931.152,1055.664,8.55,-39.15,-39.00,16.91
9560,6.01,4.38,-40.35,-176.758,-748.535,495.117,7.35,-40.35,-38.25,17.10
9570,4.48,0.64,-45.34,-186.523,-1010.742,765.625,7.65,-39.75,-37.65,17.34
9580,-1.41,3.82,-52.34,-33.203,-563.477,645.996,7.65,-39.75,-37.65,17.34
9595,4.99,-6.64,-45.28,-128.906,-409.180,1022.949,7.20,-39.30,-38.40,17.29
9604,11.66,0.17,-46.79,517.090,-970.215,1043.457,7.35,-38.70,-37.50,17.10
9616,3.10,-0.66,-40.34,300.293,-863.281,427.246,7.35,-38.70,-37.50,17.15
9626,-9.31,-0.42,-57.39,-490.234,-465.332,620.605,7.20,-40.20,-37.65,17.34
9636,4.12,0.73,-49.22,-59.082,-512.207,1379.883,6.15,-41.40,-37.35,17.10
9646,-4.17,6.34,-43.32,-182.617,-44.434,650.391,6.60,-39.15,-37.50,17.15
9656,4.12,-5.40,-45.51,-210.937,-745.117,856.445,6.90,-40.50,-38.10,17.29
9666,7.77,-2.39,-45.73,-130.859,-661.621,970.215,6.90,-40.50,-38.10,17.25
9676,6.58,-1.50,-53.37,-57.617,-642.578,807.617,5.85,-41.55,-37.05,16.96
9688,-3.94,-4.22,-40.83,75.195,-799.805,750.488,5.85,-40.35,-38.55,17.44
9698,-14.86,11.11,-78.65,-487.793,-200.195,762.207,6.15,-40.95,-38.55,17.01
9708,-7.24,-0.76,-39.24,-80.078,-1117.188,1375.977,5.55,-38.70,-38.25,17.25
9718,0.08,-4.37,-45.50,-250.000,-447.754,312.500,5.55,-38.70,-38.25,17.25
9728,5.05,5.03,-50.01,-409.180,-180.176,1999.939,4.95,-40.95,-37.35,17.29
9738,9.79,7.98,-48.53,232.422,-386.719,865.234,4.95,-40.95,-37.35,17.15
9747,5.15,5.60,-48.25,-393.555,-97.168,718.262,4.95,-40.95,-37.35,16.96
9759,-0.87,-0.28,-55.44,-75.195,-280.762,694.336,5.55,-40.80,-36.75,17.10
9769,8.25,-3.21,-47.53,81.055,-1269.531,1127.441,4.80,-41.55,-37.05,17.01
9779,-3.60,-0.43,-42.48,-135.742,-449.707,950.195,5.55,-41.10,-37.80,17.25
9789,1.87,-6.31,-56.68,209.473,-1283.203,834.473,5.55,-41.10,-37.80,17.34
9799,-8.94,5.61,-48.33,214.355,-296.387,333.496,3.60,-41.55,-38.25,16.96
9809,9.12,-10.71,-63.59,314.453,-826.660,851.562,2.10,-42.00,-36.30,17.29
9819,12.03,-0.82,-46.27,-624.512,-541.992,1183.105,2.10,-42.00,-36.30,17.25
9831,0.02,6.93,-52.44,4.883,-899.414,708.496,2.55,-41.70,-37.35,17.15
9841,-9.71,11.47,-45.97,-87.402,-606.934,559.082,4.20,-39.75,-37.35,17.29
9851,-10.67,8.89,-46.93,94.727,-609.375,484.375,3.60,-41.55,-37.05,17.25
9861,-0.95,-1.90,-51.34,-288.086,-296.875,1457.520,2.25,-40.50,-37.65,17.29
9871,-0.76,4.31,-51.99,-57.617,-883.789,797.363,2.25,-40.50,-37.65,17.10
9881,-8.55,4.65,-62.74,-196.289,-741.211,297.852,1.05,-41.40,-36.60,17.15
9891,-8.89,-4.78,-45.96,-493.164,-612.793,1437.988,1.80,-41.70,-36.60,17.25
9903,1.14,-3.05,-47.71,-172.852,-407.715,1999.939,1.80,-41.70,-36.60,17.34
9913,4.18,-5.92,-46.64,-199.219,-741.699,966.309,1.80,-42.60,-37.35,17.25
9923,-3.44,5.56,-50.80,-79.102,-335.449,389.648,0.00,-41.70,-37.35,17.15
9933,19.72,-2.97,-53.03,569.336,-1166.992,1073.242,-0.45,-42.75,-37.05,17.01
9943,-4.88,5.51,-47.62,-48.340,-765.137,481.934,1.05,-42.15,-36.15,17.29
9953,-3.12,-5.34,-56.37,84.961,-802.734,1608.887,1.05,-42.15,-36.15,17.44
9965,0.37,-0.39,-50.16,-386.230,-634.277,1956.543,0.15,-41.55,-37.05,17.34
9975,-3.23,2.37,-50.55,23.926,-684.082,454.590,0.75,-41.40,-37.65,17.29
9985,1.37,1.81,-43.53,-244.141,-573.730,1556.641,-0.75,-40.95,-37.35,17.34
9995,15.47,1.85,-44.32,313.477,-626.953,1038.574,-0.15,-42.30,-36.75,17.15
10005,-1.93,4.01,-52.21,-448.730,-524.902,498.535,-0.15,-42.30,-36.75,17.15
10015,7.72,-3.04,-46.01,-89.844,-875.977,681.152,-1.05,-41.70,-37.35,16.91
10025,10.47,4.61,-56.83,-166.504,-797.363,826.172,-0.90,-43.50,-36.75,17.29
10037,-2.82,9.26,-51.67,430.176,-737.305,206.543,-0.90,-43.50,-36.75,17.15
10047,-26.15,8.61,-57.37,-308.105,-291.992,1042.969,-0.15,-40.80,-36.00,17.34
10057,-8.31,1.95,-46.19,-11.230,-1133.301,702.637,-1.80,-40.95,-35.40,17.15
10067,-4.99,6.66,-47.43,-236.816,-745.605,289.551,-2.40,-42.30,-37.50,17.25
10077,3.59,3.00,-45.24,166.992,88.867,466.797,-1.80,-41.70,-35.40,17.44
10087,20.28,2.16,-47.14,-199.707,-890.137,667.480,-1.80,-41.70,-35.40,16.96
10097,-3.24,10.79,-45.92,-592.285,-852.051,1595.215,-1.65,-40.35,-37.05,17.10
10114,-9.49,6.84,-48.46,-803.711,-977.051,1999.939,-3.60,-41.55,-34.80,17.29
10123,2.81,1.27,-44.94,-118.652,-939.453,545.898,-3.60,-40.80,-37.05,17.15
10133,-10.98,5.86,-49.89,-193.848,-573.730,713.379,-3.15,-41.55,-36.00,17.25
10143,-11.09,-1.79,-37.63,-179.199,-599.609,1166.016,-3.90,-40.80,-36.75,17.25
10153,5.00,-4.33,-55.32,161.621,-981.445,1040.039,-4.80,-40.35,-36.00,17.25
10165,1.11,1.30,-49.09,96.680,-425.293,860.352,-4.80,-40.35,-36.00,17.34
10175,-5.50,2.89,-42.39,-377.930,-506.348,1281.250,-5.55,-41.10,-36.00,17.29
10185,-5.58,5.71,-52.09,-194.336,-690.430,1325.684,-3.75,-41.70,-35.70,17.25
10195,6.14,5.77,-54.27,76.172,-662.109,615.234,-3.90,-40.80,-34.50,17.01
10205,-5.51,3.03,-59.15,-571.289,-454.590,1085.938,-6.45,-41.40,-35.70,17.44
10215,9.90,3.64,-48.96,351.562,-1428.223,426.758,-5.10,-41.10,-34.80,17.10
10225,-16.89,5.42,-45.23,-474.121,-235.840,308.594,-5.85,-41.55,-34.80,16.96
10237,8.78,-1.02,-47.41,210.449,-262.207,625.977,-6.45,-40.20,-34.65,17.29
10247,6.15,6.34,-47.73,-207.031,-494.629,1142.090,-6.45,-40.20,-34.65,17.15
10257,10.08,1.40,-46.69,-83.496,-520.508,282.227,-7.35,-40.35,-35.55,17.15
10267,10.38,11.09,-22.10,-164.551,-628.418,1111.816,-5.55,-39.90,-35.25,17.01
10277,1.19,4.37,-42.68,-341.797,-522.949,1886.230,-6.60,-41.55,-34.50,17.10
10287,14.13,8.78,-55.95,358.398,-272.461,525.391,-6.30,-40.80,-36.75,17.34
10297,-9.98,0.15,-63.85,-179.687,-417.969,750.977,-6.30,-40.80,-36.75,17.25
10309,-7.63,1.74,-52.44,-193.359,-985.840,600.098,-6.45,-39.30,-36.15,17.34
10319,-5.65,-5.32,-54.89,-303.223,-1170.898,1999.939,-6.45,-39.30,-36.15,17.34
10329,-5.02,4.62,-39.56,93.750,-603.516,312.012,-6.45,-39.30,-36.15,17.25
10339,-0.60,5.49,-42.68,-201.660,-121.582,1617.676,-7.20,-39.00,-34.65,16.96
10349,4.79,5.26,-48.03,226.074,-267.578,255.859,-7.20,-39.00,-34.65,17.15
10359,3.11,15.86,-44.32,-224.121,-856.445,181.152,-6.90,-38.55,-34.95,17.15
10373,-10.35,10.47,-45.80,-87.891,-555.176,1146.973,-7.80,-39.90,-35.55,17.15
10382,1.37,7.19,-47.98,-187.012,-901.367,1011.230,-7.05,-39.90,-35.25,17.15
10392,7.56,10.33,-42.18,218.262,-851.562,263.184,-7.65,-39.75,-35.40,17.10
10402,-8.55,8.10,-51.00,-255.371,-682.129,1309.082,-7.65,-39.75,-35.40,17.15
10412,2.11,-0.84,-42.12,181.641,-999.512,196.777,-7.80,-41.10,-34.05,17.10
10422,-2.40,1.50,-49.38,-218.262,-419.434,1283.203,-8.55,-38.70,-34.50,17.29
10432,7.30,4.77,-51.89,89.355,-454.102,1999.939,-8.40,-39.30,-35.70,16.91
10444,-5.21,1.44,-52.66,-495.605,-667.480,1999.939,-8.40,-40.95,-34.20,17.15
10454,13.45,-4.08,-51.76,392.090,-811.523,376.465,-8.40,-40.95,-34.20,17.25
10464,-14.24,-10.58,-49.84,-480.957,-217.285,1480.957,-10.05,-37.95,-35.25,17.01
10474,7.38,-3.80,-56.03,107.422,-849.121,-4.395,-10.50,-38.70,-34.50,17.25
10484,-9.58,-1.12,-48.98,-34.668,-295.898,1098.145,-10.05,-37.95,-34.05,17.34
10494,-12.24,-16.95,-53.25,-551.270,-1070.801,1999.939,-9.60,-37.80,-34.65,17.25
10504,-3.42,-3.23,-56.88,-192.871,-421.387,644.531,-9.60,-37.80,-34.65,17.25
10516,24.21,-1.89,-20.61,85.449,-810.547,-72.754,-10.50,-38.40,-34.80,17.29
10526,-9.46,-0.56,-67.35,-815.430,-31.250,1074.219,-11.70,-37.95,-34.05,17.01
10536,12.99,-8.76,-46.29,-176.270,-894.531,810.059,-11.70,-37.95,-34.05,16.96
10546,8.65,7.11,-47.63,43.945,-732.910,1027.832,-10.05,-36.75,-35.25,16.77
10556,-2.40,7.89,-44.76,-288.086,-1013.672,1999.939,-11.25,-37.65,-34.50,17.49
10566,-4.53,8.42,-47.06,53.711,-696.289,-135.742,-10.95,-37.20,-34.80,17.15
10578,-3.45,6.66,-49.32,105.469,-736.328,686.523,-11.10,-36.60,-34.65,17.10
10588,-10.16,6.63,-54.06,176.270,-397.461,951.172,-11.10,-36.60,-34.65,17.25
10598,-8.54,2.00,-44.21,-152.832,-695.312,962.891,-11.70,-37.20,-35.25,17.01
10608,2.25,2.50,-53.22,166.504,-375.977,544.434,-11.85,-37.35,-34.20,17.34
10618,2.57,-0.98,-50.14,-272.461,-451.660,1999.939,-11.85,-37.35,-34.20,16.91
10640,6.60,-11.20,-45.80,155.762,-851.562,1555.664,-13.05,-36.15,-33.45,17.15
10649,3.30,-1.96,-53.79,-175.293,-779.785,868.652,-13.20,-37.20,-33.00,17.25
10661,-2.47,-6.23,-57.04,260.254,-566.895,912.598,-13.50,-36.00,-34.80,17.25
10671,-7.86,-3.59,-46.79,-461.426,-77.148,1622.559,-14.70,-36.45,-34.05,17.25
10681,13.92,-4.58,-50.12,40.527,-899.902,525.391,-13.05,-34.95,-34.20,17.29
10691,2.87,11.22,-43.96,-268.555,-570.312,715.332,-12.75,-36.00,-35.55,17.29
10701,-11.32,-5.04,-44.69,-274.902,-1071.289,1999.939,-13.20,-36.75,-34.80,17.10
10711,-2.05,1.47,-46.90,83.008,-527.344,-117.188,-14.10,-34.65,-34.65,16.96
10721,8.88,-0.83,-38.66,-261.230,-104.004,512.695,-13.95,-34.35,-34.05,17.25
10733,-3.26,12.34,-59.60,-12.695,-73.730,780.273,-13.50,-34.35,-34.80,17.01
10743,4.68,-0.25,-46.92,227.539,-1380.859,1017.578,-13.50,-34.35,-34.80,17.25
10753,-10.96,2.97,-65.48,-120.117,-599.609,990.234,-13.05,-34.65,-33.45,17.25
10763,-6.57,-2.31,-43.90,-485.840,-377.441,1778.320,-13.95,-33.15,-34.80,17.44
10773,9.79,-2.16,-54.37,85.449,-495.117,471.680,-13.35,-32.55,-33.90,17.29
10783,-6.31,1.01,-47.82,-994.141,-404.785,1033.203,-13.20,-34.05,-33.30,17.29
10795,-0.92,4.56,-68.57,-211.426,-312.012,799.805,-13.20,-34.05,-33.30,17.25
10805,5.44,-2.55,-44.32,69.824,-807.129,1200.684,-13.50,-32.85,-33.00,17.44
10815,13.15,15.81,-46.91,-15.625,-475.586,241.211,-14.85,-34.20,-34.95,17.10
10825,2.79,-0.84,-56.37,-131.348,-501.465,1999.939,-14.85,-34.20,-34.95,17.29
10835,8.19,-2.00,-50.15,-297.852,-705.078,403.809,-13.50,-31.95,-34.05,17.10
10845,-3.10,5.63,-47.71,18.555,-270.508,890.137,-13.05,-33.00,-33.90,17.25
10855,6.04,2.73,-42.10,76.172,-386.230,1155.273,-13.05,-31.05,-34.20,17.25
10867,20.93,6.36,-39.44,502.930,-1516.113,-222.656,-14.85,-33.00,-34.20,17.25
10877,-9.53,1.85,-54.53,-686.523,-1536.621,740.234,-14.85,-33.00,-34.20,17.29
10887,1.98,-8.63,-67.47,-41.504,-1280.273,715.820,-12.45,-30.45,-33.30,17.25
10897,-9.86,-0.60,-45.98,-934.570,62.012,1673.828,-13.35,-31.35,-33.90,16.96
10907,9.37,10.23,-30.56,75.195,-458.008,845.703,-13.95,-31.65,-33.75,17.25
10917,6.69,1.92,-62.78,-208.008,-399.414,288.086,-12.60,-30.60,-32.70,17.25
10929,-7.93,3.62,-49.40,-30.273,-17.578,670.898,-13.80,-29.85,-33.15,17.44
10939,-24.04,13.69,-74.27,327.637,632.324,460.449,-15.30,-29.85,-33.15,17.25
10949,9.59,18.44,-39.28,-138.184,-1283.203,1477.051,-14.40,-29.25,-33.30,17.15
10959,-0.69,6.68,-44.50,-55.176,-449.707,1037.598,-14.40,-29.25,-33.30,17.25
10969,17.76,-2.97,-48.57,-137.695,-1114.258,1501.953,-14.10,-28.65,-31.95,17.25
10979,22.39,-8.92,-51.94,123.535,-1291.504,878.906,-14.10,-28.65,-32.40,16.91
10989,9.57,-19.24,-50.97,-644.531,-451.172,1999.939,-14.85,-30.15,-31.95,17.15
11001,13.83,-21.36,-43.40,-29.297,-747.070,1776.367,-14.55,-28.95,-30.45,17.15
11011,15.92,-17.45,-56.20,44.922,-811.035,1543.945,-15.75,-28.20,-30.45,17.15
11021,12.22,-24.57,-57.10,-156.250,-981.934,1514.160,-15.15,-28.35,-29.55,17.15
11031,3.75,-27.32,-65.83,183.105,-1479.492,1175.781,-15.15,-28.35,-29.55,17.25
11041,-10.62,-29.40,-53.27,20.508,-761.719,1209.961,-16.20,-29.25,-31.05,17.29
11051,-29.27,-25.80,-55.79,208.496,-1059.082,1198.242,-17.55,-27.45,-30.15,17.34
11063,-23.92,-32.01,-41.82,-190.430,-317.383,249.512,-17.55,-26.55,-30.90,17.01
11073,-6.71,-28.14,-58.18,-236.816,-27.832,1221.680,-16.80,-27.75,-31.65,17.01
11083,-4.15,-20.76,-64.18,-704.590,-247.559,1244.629,-16.80,-27.75,-31.65,17.34
11093,1.69,-8.76,-57.18,175.293,-931.152,496.582,-17.55,-28.65,-31.20,17.15
11103,-17.27,-4.11,-52.37,-292.480,-980.469,812.988,-18.75,-27.45,-29.40,17.34
11113,-9.47,-15.11,-43.87,-286.133,-891.113,543.945,-18.75,-27.45,-29.40,17.29
11123,-16.45,-21.68,-45.56,527.344,92.285,666.016,-18.60,-27.60,-30.75,16.91
11135,6.38,-16.66,-58.69,-291.504,-286.621,18.555,-19.65,-27.60,-30.75,17.29
11145,29.44,-6.98,-56.25,-381.348,-35.645,579.102,-19.65,-27.15,-30.30,17.29
11161,34.29,-7.07,-48.59,-289.062,-297.852,552.246,-18.15,-27.15,-29.85,16.96
11170,41.72,11.09,-48.48,-236.328,-1572.266,-296.387,-18.15,-27.15,-29.85,17.10
11180,25.08,3.56,-47.20,-232.910,-755.859,1484.863,-19.50,-26.25,-30.15,17.25
11190,20.26,11.20,-47.36,-166.992,-1171.875,998.535,-20.55,-26.85,-30.75,17.25
11202,-2.70,8.81,-49.65,-105.957,-798.340,798.828,-21.00,-24.60,-30.90,17.29
11212,12.15,15.03,-17.44,-63.965,-668.457,709.961,-21.00,-24.60,-30.90,17.10
11222,4.07,-0.13,-57.73,-442.383,-339.355,1369.629,-20.70,-25.50,-32.40,17.25
11232,7.37,5.15,-37.92,-292.969,-1198.730,1566.895,-21.00,-24.60,-30.90,17.01
11242,0.47,0.16,-50.85,464.844,-678.711,718.262,-21.00,-24.60,-30.90,17.01
11252,-5.86,-0.67,-42.50,-109.375,-921.387,1214.355,-21.45,-24.60,-31.65,17.25
11264,-3.59,2.87,-48.60,-22.949,-218.262,730.469,-20.10,-25.20,-31.80,16.82
11274,4.98,-6.04,-52.39,-365.234,-450.195,1999.939,-23.40,-25.05,-31.95,16.96
11284,8.87,-7.01,-43.98,-280.762,-502.441,729.004,-20.85,-25.20,-31.05,17.25
11294,24.47,-0.05,-35.40,443.359,-1028.320,395.020,-20.85,-25.20,-31.05,17.25
11304,-1.53,6.16,-45.16,236.328,-825.684,1616.699,-21.45,-25.50,-31.95,17.25
11314,-7.81,-7.84,-49.33,-62.988,-869.629,1915.527,-20.10,-23.70,-30.30,17.29
11324,-10.06,-5.13,-37.26,245.117,-970.703,398.437,-20.10,-23.70,-30.30,16.96
11336,-12.52,-9.46,-54.68,143.555,-406.738,898.437,-21.30,-24.00,-32.25,17.29
11346,-10.88,-5.72,-42.18,254.395,-162.598,995.117,-20.10,-24.45,-29.10,16.82
11356,-4.31,-8.37,-43.55,-258.301,42.969,1705.078,-20.70,-25.80,-31.65,17.15
11366,4.13,-7.61,-38.00,-21.973,-125.000,727.051,-21.60,-24.00,-31.05,17.10
11376,10.35,-4.83,-46.46,317.383,-484.375,312.988,-21.60,-24.00,-31.05,17.44
11386,-5.08,-3.57,-48.15,-198.242,74.707,1163.086,-21.45,-24.30,-31.65,17.15
11398,-2.39,2.84,-45.56,-54.688,-452.637,470.215,-22.05,-23.25,-30.30,17.25
11408,-4.08,2.75,-38.37,-28.320,-283.203,1411.621,-21.45,-25.50,-32.40,17.15
11418,1.53,-1.42,-42.47,-124.512,-144.043,514.160,-22.35,-24.90,-31.80,17.49
11428,12.43,12.41,-31.15,-38.574,-771.973,611.328,-22.35,-24.90,-31.80,17.10
11438,21.24,10.37,-25.86,-667.969,-897.949,1455.078,-22.20,-25.05,-30.90,17.25
11448,26.11,9.18,-39.15,-65.430,-598.145,690.430,-21.45,-23.10,-31.65,17.25
11458,18.54,12.94,-28.39,212.402,-737.305,1155.273,-21.45,-23.10,-31.65,17.25
11469,11.03,4.42,-34.18,-98.145,-601.562,1925.781,-22.80,-22.05,-31.05,17.15
11479,7.95,4.18,-37.47,427.246,-542.969,199.219,-21.90,-24.30,-28.95,17.25
11489,2.98,-3.74,-36.38,-354.004,-421.387,1467.773,-22.80,-23.25,-31.50,17.25
11499,1.18,-6.32,-49.97,-381.836,137.207,1999.939,-23.40,-21.90,-30.90,17.10
11509,10.67,-9.24,-37.94,446.289,-88.867,1048.828,-23.40,-21.90,-30.90,17.15
11519,8.68,-6.50,-26.34,101.563,-461.914,1447.754,-23.40,-21.90,-31.20,17.10
11531,5.70,-7.58,-36.66,-34.668,-570.801,814.941,-23.55,-21.60,-31.80,17.25
11541,11.57,-12.85,-31.50,-84.961,-544.922,1984.375,-23.55,-21.60,-31.80,17.25
11551,4.14,-10.92,-36.73,229.004,-467.285,961.914,-22.80,-20.85,-31.50,17.29
11561,2.22,-1.22,-13.66,327.637,-312.012,377.930,-23.55,-19.65,-29.85,17.34
11571,-13.63,-4.18,-37.66,-375.000,-168.457,1559.570,-24.00,-22.80,-31.50,17.15
11581,-1.11,-5.76,-34.65,291.016,-769.043,631.836,-23.25,-20.85,-31.05,17.01
11591,-11.98,0.92,-33.99,-8.301,-136.230,978.516,-23.25,-20.85,-31.05,17.29
11603,-8.99,3.79,-25.40,468.262,-455.566,156.738,-22.95,-21.00,-31.65,16.96
11613,-7.04,2.00,-25.59,-368.652,-358.398,1687.012,-22.65,-22.20,-31.65,17.15
11623,-4.55,-1.31,-42.46,-59.082,-340.820,760.254,-23.40,-21.00,-30.90,17.34
11633,9.05,8.14,-34.49,285.156,-83.008,-68.359,-23.55,-21.60,-31.05,17.25
11643,7.37,-2.00,-29.95,56.641,-259.277,1608.887,-21.60,-22.05,-30.75,17.25
11653,21.58,2.40,-29.56,297.852,-385.254,586.914,-22.80,-20.10,-30.75,17.25
11663,4.06,2.85,-29.82,-192.383,-172.852,1958.008,-22.80,-20.10,-30.75,16.96
11680,-0.73,-1.58,-35.03,-375.000,-698.242,1462.402,-21.90,-21.45,-31.65,17.25
11689,-1.97,-10.27,-32.53,218.262,-761.719,1611.816,-22.35,-19.65,-30.30,17.15
11699,13.49,-9.00,-33.43,-218.750,-393.066,475.586,-22.65,-20.25,-30.45,17.15
11709,-16.34,-6.67,-28.66,-915.527,275.879,1999.939,-23.70,-19.80,-31.95,17.25
11719,12.76,1.05,-22.16,260.254,-407.715,456.543,-23.70,-19.80,-31.95,17.25
11729,2.55,15.24,-49.21,98.633,-299.805,1230.957,-22.95,-20.25,-31.95,16.96
11739,-0.70,6.65,-31.92,94.238,-904.785,1738.770,-22.80,-20.40,-30.75,17.25
11751,-16.75,5.61,-36.55,-262.207,-367.187,1339.844,-22.80,-20.40,-30.75,17.15
11761,-8.46,-3.84,-21.89,206.055,-456.543,412.109,-22.65,-21.00,-30.90,17.44
11771,-17.60,4.94,-14.96,127.930,-548.828,823.730,-23.25,-19.65,-31.50,17.15
11781,-13.78,-8.20,-37.38,-10.254,-475.098,1850.098,-22.20,-19.50,-29.70,17.15
11791,-4.66,-1.95,-39.35,312.500,-318.848,113.281,-22.80,-21.30,-32.55,17.25
11801,-6.73,5.34,-38.63,-289.551,111.816,1091.797,-22.80,-21.30,-32.55,17.29
11811,0.34,-13.97,-38.63,298.340,-552.734,1455.566,-22.65,-20.25,-31.20,16.96
11823,1.79,-7.86,-31.62,198.242,-954.590,1741.211,-23.55,-21.60,-32.25,17.29
11833,3.69,3.69,-46.76,182.617,-592.285,-217.773,-22.20,-20.25,-29.70,17.10
11843,-16.37,2.84,-42.80,-694.824,-124.023,1999.939,-23.40,-19.80,-31.65,17.25
11853,0.30,0.89,-33.00,342.773,-579.102,248.535,-22.95,-18.60,-31.20,17.15
11863,-10.50,12.05,-36.15,-58.594,76.172,653.320,-24.60,-21.00,-31.20,17.29
11873,2.42,2.07,-27.02,145.020,-439.941,1639.648,-24.60,-21.00,-31.20,17.15
11885,7.69,1.04,-32.74,-68.848,-1000.977,1999.939,-24.15,-17.40,-29.70,17.25
11895,10.66,4.04,-31.70,275.391,-348.633,185.547,-22.95,-20.70,-30.90,17.15
11905,-12.71,9.69,-34.49,-116.699,409.668,824.707,-22.65,-19.05,-30.90,17.15
11915,9.42,-2.41,-28.64,208.984,-1006.348,501.953,-22.65,-18.30,-30.90,16.96
11925,5.30,5.36,-32.05,-65.430,-321.777,464.844,-22.65,-18.30,-30.90,17.25
11935,4.48,-11.15,-33.98,428.223,-609.375,1905.273,-22.65,-17.40,-30.90,17.34
11945,5.88,6.48,-31.64,173.828,-88.379,629.395,-22.35,-16.80,-29.85,17.44
11957,1.84,-3.04,-42.31,-50.781,121.582,402.344,-22.35,-16.80,-29.85,17.25
11967,0.29,-6.27,-34.35,363.281,-509.277,1999.939,-22.65,-16.20,-30.90,16.96
11977,9.01,-6.93,-30.25,202.148,-229.492,450.684,-22.35,-18.45,-30.30,17.25
11987,-7.35,-6.51,-45.86,-185.059,-988.281,1999.939,-23.40,-19.05,-30.45,17.34
11997,17.56,-6.31,-24.32,382.324,-464.355,165.527,-23.55,-16.80,-31.05,17.15
12007,-31.53,1.82,-36.11,-741.699,-490.234,1791.504,-23.55,-16.80,-31.05,17.29
12019,-34.09,-1.02,-29.89,-617.676,400.879,672.363,-23.55,-18.00,-30.30,16.96
12029,-16.27,-7.63,-35.28,705.078,-949.219,592.773,-24.00,-17.25,-31.50,16.96
12039,-17.29,5.68,-37.31,-375.977,-279.297,412.109,-24.00,-17.25,-31.50,17.25
12049,-3.11,-1.32,-34.08,89.355,-595.215,1999.939,-22.95,-17.85,-31.20,17.25
12059,-2.37,9.21,-42.21,29.785,-317.383,443.359,-24.00,-16.05,-31.05,17.15
12069,6.08,-5.89,-26.64,-64.941,-1008.301,1999.939,-22.65,-17.10,-29.70,17.01
12079,12.15,-1.98,-40.03,-276.367,-838.379,420.410,-23.55,-16.80,-30.75,16.82
12091,8.62,-2.27,-36.04,174.805,-892.578,530.762,-23.55,-16.80,-30.75,17.10
12101,-28.90,-2.92,-45.77,-792.969,67.383,1953.125,-22.80,-17.70,-29.85,16.96
12111,18.62,-5.53,-42.99,632.812,-1033.203,-525.879,-23.25,-17.70,-31.50,17.25
12121,-17.42,-1.76,-40.83,41.992,211.426,115.723,-22.20,-13.80,-31.20,17.10
12131,13.44,-11.25,-41.09,197.266,-753.906,29.297,-21.90,-15.90,-28.65,17.15
12141,-5.85,-1.00,-39.31,-355.957,-694.336,1533.691,-23.40,-15.90,-31.65,17.01
12153,6.40,-1.71,-37.28,-119.141,-423.828,1999.939,-22.05,-15.30,-28.05,17.15
12163,17.72,-5.40,-46.02,359.863,-1049.316,-133.301,-22.05,-15.30,-28.05,17.01
12173,-36.18,-4.75,-49.66,-451.660,-302.246,673.340,-22.65,-11.55,-30.90,17.15
12183,6.08,-8.63,-38.70,327.637,-868.652,-78.613,-22.35,-14.10,-29.10,17.01
12198,-26.76,-2.59,-46.81,-562.500,361.328,1220.215,-25.65,-13.05,-30.90,17.29
12207,12.76,-0.41,-43.22,18.555,-224.121,-260.742,-24.00,-11.70,-30.30,17.29
12219,11.98,-3.62,-33.75,-47.852,-137.207,891.113,-24.00,-11.70,-30.30,17.25
12229,-3.69,-6.04,-36.53,242.676,-1277.344,1786.133,-22.95,-15.45,-30.90,17.34
12239,1.15,4.60,-49.38,-308.594,-377.441,608.398,-23.70,-11.10,-31.20,17.25
12249,1.49,-3.94,-50.11,403.809,-964.844,1999.939,-23.70,-11.10,-31.20,17.10
12259,-4.18,9.81,-36.57,-339.844,-39.551,783.203,-21.90,-13.50,-31.65,17.25
12269,-0.46,-0.22,-42.25,419.922,-1001.953,1999.939,-21.90,-11.55,-31.95,17.10
12279,9.89,8.77,-39.53,-276.855,-449.707,294.922,-21.30,-11.25,-31.80,17.10
12291,2.48,3.72,-37.13,-73.242,-237.793,452.637,-22.05,-13.20,-33.30,17.10
12301,8.92,-0.93,-36.44,514.160,-1551.758,1999.939,-22.05,-13.20,-33.30,17.34
12311,-2.05,7.14,-49.04,-618.164,-152.344,429.199,-22.20,-12.75,-32.70,17.25
12321,-0.31,-2.12,-46.65,404.785,-1057.129,1999.939,-20.70,-13.80,-31.95,17.29
12331,5.91,4.62,-42.17,-421.387,-252.441,796.387,-21.90,-11.10,-32.40,17.01
12341,16.92,-5.79,-52.27,558.105,-1438.477,1895.508,-20.70,-11.85,-31.95,17.25
12353,20.10,-12.98,-44.85,704.102,-1084.961,-46.875,-21.30,-11.70,-32.25,16.96
12363,-20.15,7.03,-44.58,-183.594,362.793,-54.199,-19.65,-10.50,-32.25,17.25
12373,15.48,-2.66,-28.52,509.766,-1212.402,-248.047,-19.65,-10.50,-29.85,17.15
12383,-24.91,-5.92,-52.79,-142.090,210.937,283.691,-19.65,-10.50,-29.85,17.10
12393,-1.24,-6.73,-33.53,756.836,-656.250,603.516,-21.45,-11.10,-31.65,17.29
12403,-27.60,-1.28,-54.55,-665.039,208.984,557.617,-21.45,-11.10,-31.65,17.25
12413,8.30,1.95,-35.92,-91.797,-62.500,599.609,-21.30,-12.90,-30.75,17.10
12425,12.47,-0.86,-38.35,-150.391,-8.789,975.586,-20.55,-10.50,-31.80,17.29
12435,2.73,3.98,-48.67,206.055,-1195.801,1811.035,-20.85,-10.05,-31.50,17.15
12445,7.03,3.17,-34.63,-361.816,-384.766,1022.949,-20.25,-9.45,-31.65,17.10
12455,-1.60,1.56,-39.21,431.152,-1222.656,1999.939,-20.25,-9.45,-31.65,17.29
12465,-7.37,14.83,-47.98,-60.547,308.594,890.137,-20.85,-10.95,-30.75,17.25
12475,-5.02,3.35,-37.06,325.684,-856.934,1999.939,-20.85,-9.75,-31.50,17.10
12487,3.17,12.33,-32.89,634.277,-1231.934,1999.939,-21.30,-9.75,-31.80,17.10
12497,-0.79,14.79,-39.23,-622.070,-101.074,666.992,-20.70,-11.10,-30.90,17.15
12507,15.35,6.88,-32.28,418.945,-750.488,1999.939,-20.70,-11.10,-30.90,17.15
12517,10.50,15.94,-45.36,395.020,58.594,459.473,-21.45,-8.25,-32.70,17.10
12527,5.20,-1.37,-39.10,101.074,-1105.469,1857.910,-19.95,-8.25,-31.95,17.25
12537,-12.79,0.70,-31.93,654.297,-659.668,72.266,-19.95,-8.25,-31.95,17.44
12547,-28.63,-7.61,-40.89,-370.117,558.105,1080.078,-19.95,-7.50,-31.95,17.10
12559,-14.74,-2.92,-45.48,-483.398,27.344,1184.082,-18.60,-8.55,-33.30,17.44
12569,7.63,-17.86,-55.53,-131.836,-496.094,604.980,-18.00,-7.95,-31.65,17.15
12579,7.25,-2.01,-32.66,385.742,-217.285,1500.488,-19.50,-7.95,-31.95,17.34
12589,9.17,-11.83,-31.44,-688.477,-373.535,977.539,-19.50,-7.95,-31.95,17.29
12599,14.40,-6.64,-40.92,-24.902,-1327.148,1141.113,-18.90,-6.15,-32.25,16.91
12609,1.20,4.53,-46.68,-78.613,-619.629,1999.939,-17.85,-6.45,-31.80,17.29
12619,1.24,-0.76,-34.85,-328.613,-896.973,1117.188,-18.45,-7.05,-31.95,17.25
12631,-4.69,2.50,-34.47,-261.230,-425.781,1332.520,-18.00,-7.05,-31.65,17.15
12641,-2.27,5.16,-45.67,449.707,-487.305,1734.863,-17.40,-5.70,-32.55,17.15
12651,-4.92,5.82,-43.26,-33.203,-111.816,933.594,-18.15,-5.70,-31.80,17.25
12661,6.59,-2.15,-42.45,184.570,-833.008,1821.777,-17.40,-6.45,-31.05,17.10
12671,0.56,3.50,-48.82,-18.555,-365.234,336.914,-17.40,-6.45,-31.05,17.44
12681,-1.73,-5.82,-48.58,320.801,-410.645,1436.035,-18.00,-6.30,-31.20,16.96
12693,0.66,-8.44,-48.91,-187.500,-416.504,559.570,-18.75,-8.70,-31.20,16.96
12703,3.76,-7.69,-40.94,321.777,-958.496,1830.078,-17.40,-8.10,-30.30,17.01
12718,-9.38,-7.31,-25.94,-395.020,-641.113,804.687,-18.00,-7.05,-33.45,17.15
12727,-21.19,-20.79,-55.27,-0.488,-627.930,1843.750,-16.65,-8.10,-32.25,17.25
12737,-6.36,-5.26,-42.24,34.668,-664.551,1187.012,-17.85,-7.35,-32.25,17.15
12747,-3.44,-6.44,-37.91,-418.945,-130.371,818.848,-17.85,-7.35,-32.25,17.15
12757,1.85,-3.20,-43.83,239.746,-326.660,1549.316,-16.65,-7.65,-31.80,17.15
12769,12.14,-4.31,-54.17,667.480,-1126.465,1195.801,-16.50,-5.55,-32.70,16.96
12779,-6.48,-1.51,-45.02,-395.508,-359.863,924.805,-19.20,-4.65,-31.95,17.01
12789,-3.49,10.23,-42.44,128.906,-982.422,914.062,-17.10,-6.15,-31.50,17.34
12799,-7.09,3.69,-45.40,-207.031,-1158.203,1112.793,-17.10,-6.15,-31.50,17.25
12809,2.34,-1.04,0.20,-281.250,-612.305,997.559,-17.55,-3.15,-31.20,17.10
12819,0.27,4.79,-52.68,215.820,-404.785,1652.344,-15.30,-3.90,-30.90,16.96
12829,1.79,-1.54,-41.27,-570.801,-130.371,731.445,-15.30,-3.90,-30.90,16.77
12841,5.39,0.92,-48.69,-437.012,-151.855,890.137,-17.40,-3.75,-33.00,17.10
12851,7.21,-1.27,-40.18,399.902,-848.633,1306.152,-15.90,-3.75,-31.05,17.10
12861,-11.76,-5.78,-42.83,-57.617,-663.086,576.660,-16.50,-5.55,-31.95,17.29
12871,-10.59,-11.02,-42.26,-247.070,-851.562,1047.852,-16.05,-3.90,-31.20,17.10
12881,-18.56,-3.47,-49.82,339.355,-230.957,703.613,-16.05,-3.90,-31.20,17.29
12891,-3.57,-4.10,-44.11,246.582,322.266,-53.711,-16.65,-6.15,-29.85,17.25
12901,7.57,-13.40,-56.50,7.812,33.691,636.719,-14.85,-4.65,-29.70,17.29
12913,25.01,-18.04,-20.53,-333.008,-1653.320,571.777,-16.20,-3.75,-30.30,17.29
12923,9.30,-1.37,-47.85,-516.602,-906.738,135.254,-15.75,-4.65,-30.15,17.15
12933,10.43,-4.03,-12.53,393.555,-689.453,1166.992,-14.55,-4.35,-30.15,17.01
12943,-3.33,8.55,-49.32,-681.641,-150.879,1006.348,-16.20,-2.55,-32.25,17.34
12953,8.44,1.73,-37.48,128.418,-1140.137,1313.965,-15.75,-2.70,-31.20,17.29
12963,-12.11,9.51,-37.02,-208.008,-482.422,1195.801,-15.75,-2.70,-31.20,17.25
12975,-8.27,16.31,-25.69,-48.340,-762.695,416.504,-16.20,-2.85,-33.00,17.25
12985,0.89,-0.37,-44.65,-185.059,89.844,1312.988,-15.45,-2.85,-32.55,17.25
12995,4.21,-5.45,-35.14,823.242,-19.531,1867.676,-15.30,-3.15,-32.70,17.25
13005,-2.20,2.05,-36.71,-90.820,-27.344,598.633,-15.30,-3.15,-32.70,17.29
13015,11.31,0.38,-25.91,186.035,-710.937,387.695,-14.55,-3.90,-31.65,17.25
13025,2.63,-10.91,-42.54,312.012,-698.730,1953.613,-15.15,-4.95,-33.00,17.34
13035,-10.04,-8.58,-32.68,-158.203,-20.996,977.539,-15.15,-4.95,-33.00,17.25
13047,-16.98,-2.06,-49.14,-293.945,-210.937,459.473,-14.85,-2.25,-31.20,17.29
13057,-6.75,-10.38,-32.19,-256.348,-380.371,1456.543,-13.05,-3.15,-30.90,17.25
13067,8.77,-2.60,-41.89,298.828,-987.793,835.937,-13.35,-2.70,-30.15,17.15
13077,4.45,-2.05,-38.58,-846.680,-264.648,624.023,-15.30,-1.05,-29.70,17.25
13087,8.27,-3.97,-36.59,266.113,-473.145,1832.031,-15.30,-1.05,-29.70,17.15
13097,10.44,-4.15,-43.11,9.766,-852.539,786.133,-14.40,-4.05,-30.75,17.15
13107,0.21,-0.04,-31.11,-368.652,-404.297,1092.285,-15.15,-2.10,-31.50,17.10
13119,-2.68,-2.21,-47.03,-316.895,-991.699,1999.939,-15.15,-2.10,-31.50,16.96
13129,0.33,2.48,-31.73,-461.426,-255.859,848.633,-14.85,-3.15,-31.95,17.25
13139,6.97,1.21,-41.52,606.445,-760.254,1446.289,-13.20,-2.85,-33.00,17.10
13149,-4.68,8.10,-33.22,-361.328,-134.766,1414.551,-14.10,-1.05,-31.95,17.25
13159,2.08,5.89,-41.18,-418.457,-30.273,916.992,-14.10,-2.70,-30.45,17.10
13169,23.85,6.05,-45.92,892.578,-933.594,777.344,-14.10,-2.70,-30.45,17.10
13180,20.31,2.76,-37.62,535.645,-1396.484,1061.523,-12.00,-2.10,-32.25,17.10
13190,-5.27,3.60,-41.20,156.738,-1333.496,-55.176,-13.50,-2.10,-30.75,16.91
13200,-22.36,-4.50,-44.03,403.320,-810.059,1935.547,-13.35,-2.25,-30.90,17.10
13210,-9.08,-11.64,-34.19,88.379,-805.176,104.492,-13.80,-1.50,-32.40,17.01
13220,-16.67,-3.40,-41.97,-423.340,85.938,808.105,-13.80,-1.50,-32.40,17.15
13235,-10.68,1.87,-44.26,-665.039,-334.961,870.117,-13.05,-3.15,-30.45,17.10
13244,9.50,-1.02,-42.11,268.066,-175.293,1310.547,-12.45,-1.65,-31.05,17.15
13256,12.54,0.94,-37.07,-200.684,-98.633,832.520,-12.00,-0.90,-30.75,16.96
13266,26.91,-8.55,-43.37,566.895,-1167.969,1023.926,-13.20,-2.85,-30.75,17.25
13276,6.56,-4.97,-33.41,-440.918,-1274.414,1465.820,-12.60,-0.30,-31.95,17.34
13286,-6.32,7.41,-44.72,-497.070,-288.086,788.086,-11.85,-1.05,-33.15,17.34
13296,-9.04,-2.50,-58.11,343.750,-397.461,1604.492,-11.85,-1.05,-33.15,17.34
13306,-4.36,-5.98,-31.79,150.391,-999.023,774.414,-10.65,-1.95,-32.40,17.25
13316,-11.51,11.90,-45.61,-408.691,-319.336,316.895,-10.65,0.00,-32.40,16.96
13328,-4.55,3.52,-48.81,-285.645,-760.742,1188.477,-10.65,0.00,-32.40,17.10
13338,-1.46,11.07,-51.63,-480.469,-245.605,766.602,-9.90,-1.05,-31.20,16.91
13348,24.86,1.58,-40.82,573.242,-1099.609,1330.078,-11.40,-0.75,-33.15,16.96
13358,10.31,-1.25,-50.41,-178.711,-605.957,1216.309,-10.95,0.45,-31.80,17.34
13368,-5.69,0.17,-50.44,-322.266,-747.070,354.004,-10.95,-0.90,-31.50,17.10
13378,-1.24,4.69,-63.23,608.887,-689.941,723.145,-10.95,-0.90,-31.50,17.25
13390,-15.64,0.36,-48.98,-323.242,-298.340,1139.160,-10.65,0.75,-32.40,17.34
13400,2.32,-0.17,-34.17,973.145,-1643.555,707.520,-11.10,0.30,-31.65,17.15
13410,-19.70,-3.87,-90.07,74.707,-1118.652,425.293,-9.60,-1.05,-31.20,17.29
13420,-16.87,-9.85,-17.60,-272.949,-504.395,878.906,-9.60,-0.75,-31.20,17.15
13430,-1.70,-2.92,-41.44,-313.965,128.418,1782.715,-9.60,-0.75,-31.20,17.29
13440,23.71,5.29,-52.05,75.684,-909.668,202.148,-9.15,0.75,-31.65,17.25
13449,-8.32,-12.50,-41.74,-536.621,-376.953,1744.141,-9.15,-0.75,-31.65,17.01
13461,9.36,-0.15,-47.40,-109.863,-1500.977,497.559,-9.15,-0.75,-31.65,17.29
13471,-1.97,6.14,-60.15,-459.473,-846.191,-140.137,-8.55,0.15,-33.00,17.25
13481,11.76,-1.72,-58.56,537.109,-785.645,1651.855,-9.15,0.75,-32.70,16.82
13491,8.74,2.50,-54.85,-56.152,-1500.488,760.742,-7.35,-0.90,-34.50,17.10
13501,-5.40,7.37,-51.96,-27.344,-719.727,307.617,-8.55,0.90,-35.25,17.25
13511,2.04,4.53,-57.60,-395.996,-243.164,1737.305,-8.55,0.90,-35.25,17.25
13521,12.69,3.21,-51.69,-84.473,-846.680,1381.836,-7.35,1.35,-34.05,17.15
13533,7.08,0.44,-54.96,195.312,-472.656,1581.055,-7.20,0.30,-34.65,17.44
13543,-4.05,-3.09,-58.68,-87.402,-1487.305,1120.117,-7.20,0.30,-34.65,17.29
13553,-14.27,-1.56,-53.11,-50.293,-901.855,475.586,-5.25,0.00,-34.20,17.15
13563,-13.02,-3.27,-55.49,-359.375,355.469,1999.939,-5.70,0.75,-33.15,17.01
13573,7.29,-3.27,-62.50,251.465,-1001.465,241.699,-5.25,0.30,-31.95,17.10
13583,0.94,-2.78,-48.10,308.594,-667.969,370.605,-6.15,0.75,-33.15,17.15
13593,2.47,-3.26,-59.38,-309.570,12.207,1999.939,-6.15,0.75,-33.15,17.25
13605,6.10,-4.75,-48.29,-223.633,-875.000,1286.621,-6.60,1.65,-34.50,17.15
13615,0.31,3.44,-49.93,-631.348,-259.766,1236.328,-5.70,2.25,-34.95,17.01
13625,8.27,3.57,-47.35,69.336,-1125.488,300.781,-5.85,1.65,-35.25,17.01
13635,14.83,-29.63,6.03,100.586,-990.234,1363.281,-4.35,1.65,-34.50,17.25
13644,-34.86,9.58,-3.58,-14.160,358.398,1026.367,-3.60,2.85,-34.50,17.15
13654,10.22,-0.40,-34.40,-95.703,-281.738,1053.711,-2.55,3.15,-35.40,17.15
13666,0.89,3.26,-40.68,72.266,-171.875,1393.555,-4.35,1.35,-35.55,17.25
13676,-1.91,-4.87,-54.55,-290.039,-294.922,1769.043,-3.45,1.95,-34.65,17.25
13686,2.93,-2.18,-41.12,-45.898,-973.633,1347.168,-4.80,2.55,-34.80,17.25
13696,-6.27,-4.21,-51.63,-250.000,-732.910,424.805,-1.80,1.95,-36.15,17.25
13706,2.57,-7.59,-70.78,339.844,-1157.227,1923.828,-3.00,2.25,-35.70,17.15
13716,-5.56,-11.28,-49.20,-403.809,-82.031,384.766,-3.00,2.25,-35.70,17.10
13726,-3.71,-3.54,-46.63,-272.461,108.398,1485.840,-1.50,1.05,-36.15,17.15
13738,7.45,-2.87,-43.40,16.113,-578.613,1093.262,-2.10,2.10,-35.25,16.91
13753,9.92,-1.55,-44.29,-478.516,-420.410,1001.953,-2.10,2.10,-35.25,17.25
13762,5.27,-8.66,-34.18,-379.883,-844.238,1022.461,-0.75,2.25,-34.65,17.25
13772,-1.95,-2.50,-40.91,-262.207,-922.852,912.109,-1.65,1.35,-35.25,17.15
13782,-5.25,-6.58,-44.89,-229.492,-410.156,1568.359,-0.90,2.85,-34.80,17.10
13792,-2.55,-3.45,-36.20,3.906,-471.680,300.781,-0.15,3.30,-33.75,17.01
13802,1.10,3.12,-37.45,-203.613,-614.258,1013.672,-0.15,3.30,-33.75,17.25
13814,11.03,4.85,-41.53,-50.781,-314.453,1041.016,-0.90,1.35,-33.30,17.34
13824,17.48,5.00,-46.43,-208.496,-610.840,44.922,-0.75,1.50,-34.20,17.25
13834,11.03,4.57,-35.76,348.633,-783.691,1379.883,-0.75,1.50,-34.20,17.01
13844,1.21,13.44,-44.68,-147.949,-1123.535,513.184,-0.15,2.10,-34.80,17.25
13854,-22.62,3.47,-37.99,-303.223,-1048.340,1270.508,0.75,2.25,-34.65,17.29
13864,-30.75,10.92,-46.01,-46.875,-87.402,-17.578,-0.15,1.35,-35.25,17.10
13876,-9.75,3.88,-36.41,19.531,125.000,487.305,-0.15,1.65,-33.75,17.29
13886,-7.91,-5.13,-41.44,24.414,-282.715,1999.512,-0.15,1.65,-33.75,16.96
13896,5.46,-2.83,-33.90,-333.984,162.598,1298.828,0.30,1.50,-34.95,17.10
13905,1.51,1.78,-43.37,-149.902,-238.770,854.980,0.30,1.50,-34.95,17.29
13915,4.72,-4.83,-32.41,-703.613,-243.164,562.500,0.90,0.90,-34.50,17.25
13925,-1.67,-3.10,-39.17,131.348,-1321.777,1102.539,1.05,0.30,-34.20,17.25
13935,-15.08,-7.92,-43.62,345.215,-1175.293,1999.939,1.05,0.30,-34.20,16.96
13947,-12.01,-12.85,-49.97,62.500,196.777,316.406,0.75,1.50,-33.90,16.96
13957,7.67,-3.03,-29.63,-118.164,36.133,1524.902,0.75,1.50,-33.90,17.01
13967,24.18,-9.76,-34.91,-111.328,-613.770,1225.098,0.15,1.65,-35.25,17.15
13977,16.83,-6.11,-18.73,-120.605,-1040.527,843.262,0.30,2.25,-35.40,17.15
13987,1.05,-7.16,-39.13,-25.879,-761.719,800.293,1.65,1.35,-35.25,17.29
13997,-4.06,-17.92,-40.40,-178.711,-990.723,1999.939,1.05,1.95,-34.65,17.15
14007,-7.15,-23.76,-31.11,-116.211,-511.230,1669.434,1.05,1.95,-34.65,17.25
14019,-12.05,-36.63,-36.57,-136.719,-31.250,1357.910,1.80,1.95,-33.90,17.44
14029,2.19,-37.73,-34.45,189.941,-257.812,452.637,1.50,0.75,-34.20,17.15
14039,12.72,-21.85,-32.56,23.437,-30.762,1894.043,1.50,0.75,-34.20,16.82
14049,-1.49,-21.70,-73.94,-440.918,-846.191,-45.410,0.75,-0.30,-34.95,17.25
14059,-5.84,-29.83,-31.16,-304.199,-812.012,1999.939,0.75,1.95,-35.40,17.25
14069,-24.05,-24.61,-37.62,-364.258,-1479.980,1999.939,0.75,0.75,-34.95,17.25
14079,-21.98,-14.33,-39.99,-289.062,-455.078,259.277,0.15,2.10,-33.75,17.01
14091,-33.79,-14.30,-46.34,-423.340,-660.156,957.520,0.15,2.10,-33.75,17.29
14101,-22.62,-8.69,-43.05,-209.961,-368.652,635.742,0.00,0.75,-33.45,17.25
14111,-7.76,1.12,-45.23,-355.957,-289.062,1534.668,0.00,0.75,-33.45,17.15
14121,0.04,9.66,-41.06,-1018.066,9.766,1113.281,0.90,0.45,-34.50,16.91
14130,0.40,20.80,-46.81,-512.207,229.492,395.020,1.05,1.95,-34.20,17.15
14140,16.24,21.92,-39.56,105.957,-1140.137,-133.301,0.90,0.45,-34.05,17.29
14149,9.02,20.68,-37.67,-46.875,-956.543,1296.387,1.65,0.15,-35.25,17.34
14161,-2.66,22.71,-51.21,212.402,-575.195,650.879,2.40,1.35,-34.80,17.15
14171,-27.26,21.23,-37.44,-369.141,-487.305,733.887,2.40,1.35,-34.80,17.34
14181,-5.12,16.64,-47.48,-250.488,-7.812,1196.777,2.40,0.90,-34.80,17.15
14191,12.21,21.91,-47.20,-374.023,-487.793,1375.977,3.60,1.65,-34.80,17.25
14200,7.44,10.27,-47.27,33.691,-583.984,506.836,3.75,0.30,-34.20,17.29
14210,-2.22,5.81,-51.52,-44.922,-895.996,1479.004,3.60,1.65,-34.05,17.01
14222,-0.44,-0.85,-56.40,-496.582,-1093.750,1160.645,3.60,1.65,-34.05,17.25
14232,2.21,4.49,-60.43,-316.406,-429.199,718.750,3.75,1.05,-35.40,17.25
14242,-3.72,-0.98,-53.07,-190.430,-542.969,1025.879,4.20,0.75,-34.95,17.10
14252,3.95,-3.23,-55.51,-370.117,-1205.078,107.910,4.20,0.75,-34.95,17.01
14267,-0.24,-3.85,-47.94,-259.766,-583.984,542.969,4.80,0.90,-34.50,17.25
14276,0.73,-6.38,-58.50,91.309,-584.961,916.992,5.85,-0.15,-35.25,17.29
14287,-2.89,0.49,-44.52,-389.160,-54.688,616.699,5.55,0.90,-35.55,17.15
14297,5.01,-1.08,-60.90,-57.129,-779.297,28.320,5.55,0.90,-35.55,17.25
14307,10.34,4.69,-46.47,-279.785,-645.020,1444.824,5.55,-0.45,-35.25,16.96
14317,1.91,4.32,-49.39,22.461,-961.914,1317.383,7.20,1.50,-34.65,17.15
14327,-4.14,6.50,-49.05,76.660,-1015.137,621.582,7.20,1.50,-34.65,17.25
14337,-7.00,-2.17,-47.26,-366.699,-473.633,1685.059,6.90,0.00,-35.40,17.25
14347,-2.98,7.23,-45.72,-306.152,-531.250,556.641,6.45,2.25,-36.15,17.25
14359,0.78,6.02,-45.75,150.391,-900.879,1043.457,7.80,1.35,-35.55,17.15
14368,0.25,3.62,-44.58,-233.887,-945.312,933.594,6.30,0.90,-35.25,17.15
14378,7.27,-4.53,-52.60,-203.125,-760.254,738.281,6.30,0.90,-35.25,17.15
14388,1.84,4.83,-47.48,-64.453,-610.352,586.426,9.60,0.30,-36.60,17.01
14398,10.25,-0.27,-39.70,117.188,-958.496,974.609,7.35,0.45,-36.00,17.15
14408,4.10,1.21,-43.38,-54.199,-1134.766,701.660,7.05,0.90,-35.55,17.25
14417,-9.22,-2.80,-48.96,-369.141,-660.156,1850.586,7.80,0.15,-35.55,16.96
14429,-5.39,-0.01,-56.21,-294.922,-291.992,1449.707,7.80,0.15,-35.25,17.15
14439,8.10,3.08,-49.53,-59.570,-769.043,1060.059,8.55,-0.15,-34.80,17.25
14449,4.13,2.12,-46.08,-144.531,-1013.672,384.277,7.20,0.75,-35.70,16.96
14458,-4.89,-4.54,-55.67,-271.484,-343.750,1849.121,7.20,0.75,-35.70,17.15
14468,7.34,2.20,-51.65,-181.152,-877.441,808.105,9.00,0.45,-34.05,17.15
14478,-1.93,-1.66,-53.56,-726.562,-389.648,1657.227,9.30,-0.90,-36.00,17.10
14488,5.80,3.50,-50.50,52.246,-770.508,431.641,10.05,0.45,-37.05,17.25
14500,-1.18,5.00,-51.66,-189.941,-921.875,1000.000,9.30,0.15,-35.55,17.29
14510,-0.54,5.23,-48.01,-219.727,-355.957,533.203,9.30,0.15,-35.55,17.15
14520,6.22,-1.73,-49.06,-96.191,-201.660,1999.939,10.65,0.30,-34.65,17.25
14530,15.97,-4.30,-47.42,55.664,-851.074,1214.844,10.35,0.00,-36.15,17.15
14539,5.72,2.87,-51.31,-257.812,-1230.469,714.844,10.35,0.00,-36.15,17.25
14549,-6.40,-4.40,-57.81,-151.855,-407.715,1526.855,10.65,0.30,-35.70,17.29
14559,0.90,-2.69,-51.92,-136.719,-694.336,986.328,12.75,-1.35,-35.25,17.15
14571,8.84,-7.99,-46.75,-326.660,36.621,1122.070,12.30,-0.30,-34.95,17.34
14581,-9.66,-2.47,-50.49,-282.715,-836.914,1487.305,13.05,-0.75,-35.70,17.01
14591,-1.97,-8.92,-54.12,-58.105,-901.367,1366.211,13.05,-0.75,-35.70,17.25
14601,-7.25,-8.13,-61.71,-641.602,-129.395,1247.559,11.25,-0.90,-36.30,17.25
14611,9.42,-1.71,-51.50,-326.660,-680.176,1359.863,13.05,-0.75,-35.40,17.15
14621,6.59,-2.24,-51.82,-466.797,-304.687,625.977,11.40,-0.30,-36.60,17.10
14633,14.91,0.53,-42.95,-162.109,-816.406,367.187,12.45,-0.90,-36.75,17.15
14643,-1.10,1.15,-44.14,-192.871,-562.988,1387.695,12.45,-0.45,-36.30,17.25
14653,-3.38,-12.24,-54.41,-231.934,-962.402,1358.887,12.75,0.15,-36.30,17.34
14663,-7.92,-3.27,-51.96,10.254,-329.102,1677.246,13.05,0.00,-36.15,16.91
14673,-15.10,-5.54,-55.27,-215.820,-659.668,908.691,13.05,0.00,-36.15,17.10
14683,-6.83,-2.66,-59.18,-30.273,-298.828,858.887,13.50,-0.45,-36.30,17.15
14693,-3.21,2.00,-53.52,-274.902,-544.434,951.172,15.75,-0.30,-36.60,17.25
14705,0.62,4.22,-57.40,-334.473,-471.680,833.008,14.85,-1.50,-35.70,17.29
14715,8.14,7.99,-53.56,-398.437,-503.906,-398.926,14.70,-0.90,-35.55,17.25
14725,12.64,5.14,-50.73,-276.367,-736.328,1481.934,14.70,-0.90,-35.55,17.25
14735,11.23,1.49,-53.22,-48.828,-1091.309,1236.816,15.15,-1.35,-36.30,17.10
14745,-1.25,4.16,-57.18,-375.000,-569.824,1084.961,15.75,-1.95,-36.15,16.96
14755,-4.57,2.93,-58.41,-141.113,-873.047,1068.848,15.75,-1.95,-36.15,17.25
14765,-1.02,-0.05,-52.19,-242.676,-702.637,1776.367,16.20,-2.55,-37.50,17.25
14791,6.86,3.29,-51.45,-84.961,-703.125,1611.816,15.45,-2.10,-36.30,17.25
14800,-17.70,2.00,-66.47,-345.703,-910.156,1146.484,15.45,-2.10,-36.30,17.10
14810,-23.82,9.85,-59.16,-149.414,-262.207,673.828,16.05,-2.70,-36.15,17.25
14820,0.95,2.23,-64.34,-46.387,-747.559,570.312,16.20,-2.55,-36.75,17.25
14830,-1.18,-2.42,-54.43,-113.281,-383.301,1080.078,16.20,-2.55,-36.75,17.15
14840,-3.29,-7.77,-64.18,126.465,-312.988,635.254,16.80,-2.25,-36.15,17.29
14850,-2.05,-5.70,-57.81,-541.992,-653.809,777.832,16.50,-1.95,-36.90,17.10
14862,-5.85,-1.69,-53.66,-225.586,-211.914,823.242,16.50,-3.90,-36.90,17.25
14872,3.39,-0.44,-58.99,15.137,-859.863,339.844,17.55,-3.90,-37.35,17.01
14882,1.30,-7.69,-56.16,-297.363,-319.824,1341.797,17.55,-3.90,-37.35,16.96
14892,0.72,-3.91,-54.18,-307.617,-246.094,500.000,16.50,-2.25,-36.60,17.25
14902,-2.44,-1.08,-56.79,-271.484,-1134.766,1009.766,17.40,-2.85,-37.50,17.15
14912,-0.61,-2.64,-53.34,-254.395,-1013.672,852.051,19.20,-3.90,-36.15,17.15
14922,-2.84,-1.80,-56.92,-113.281,-803.711,1011.230,18.00,-4.35,-35.70,17.29
14934,5.17,-5.28,-51.44,-471.680,-380.859,1557.617,18.45,-3.90,-37.35,17.44
14944,1.09,5.48,-46.06,-114.258,-312.012,645.020,18.75,-4.65,-37.65,17.15
14954,9.24,9.42,-54.06,-280.273,-986.328,1116.211,18.75,-4.65,-37.35,17.34
14964,4.02,1.10,-50.16,-213.867,-604.980,1622.559,18.75,-4.65,-37.35,16.91
14974,-4.95,10.48,-47.23,-17.578,-533.691,810.547,19.50,-3.90,-36.60,17.29
14984,-6.47,6.99,-46.97,-327.637,-597.656,1148.438,18.45,-3.90,-36.90,17.25
14994,-2.47,7.98,-50.89,-68.359,-754.395,1172.363,18.15,-6.15,-38.25,17.29
15006,2.71,7.32,-56.80,-171.387,-640.137,422.852,18.75,-4.65,-38.10,17.15
15016,5.27,3.14,-51.86,-107.910,-1088.867,1042.969,18.75,-4.65,-38.10,17.25
15026,-0.27,-7.15,-53.80,-146.973,-348.145,1952.637,19.95,-4.35,-38.40,17.25
15036,6.18,-5.24,-57.51,366.211,-515.137,696.289,20.25,-6.30,-38.40,17.01
15046,-8.06,-5.49,-53.27,-69.336,-388.672,1105.469,20.25,-6.30,-38.40,17.10
15056,-0.77,-12.18,-49.34,47.852,-755.859,769.043,19.95,-6.30,-38.85,17.25
15068,5.19,-6.20,-56.88,-124.023,-267.578,663.086,18.90,-4.95,-38.25,16.91
15078,-4.15,-7.27,-50.44,-98.633,-548.828,1346.191,19.35,-6.45,-37.05,17.25
15088,3.15,-6.23,-53.68,-11.230,-739.746,909.180,19.65,-6.15,-37.80,17.29
15098,-9.79,-4.21,-47.98,77.148,-432.129,1255.371,19.65,-6.15,-37.80,17.34
15108,-0.35,-0.36,-50.53,-97.168,-542.969,697.266,19.35,-7.35,-37.80,17.25
15118,-3.45,-2.77,-47.08,-149.414,-682.129,1177.246,20.55,-7.65,-38.25,17.29
15128,2.66,-4.69,-42.95,92.285,-332.520,711.426,19.65,-9.75,-36.75,16.96
15140,7.14,-2.38,-52.76,-111.328,-320.312,1064.453,21.00,-7.50,-37.35,17.44
15150,10.71,-4.56,-42.58,-125.488,-232.422,1329.590,19.95,-8.25,-37.65,16.91
15160,11.34,-7.95,-47.99,-217.285,-473.145,1183.105,20.85,-8.85,-38.25,17.34
15170,13.40,1.27,-37.15,-226.562,-799.316,690.430,20.85,-8.85,-38.25,17.49
15180,4.37,5.94,-49.25,-33.691,-709.473,1368.164,20.70,-8.25,-37.35,17.25
15190,6.35,2.63,-41.37,-216.309,-438.477,867.676,21.30,-8.55,-39.00,17.34
15200,3.04,0.15,-47.64,-245.605,-590.820,1029.297,20.10,-9.30,-37.05,17.25
15212,-1.24,-2.35,-55.59,-18.555,-366.211,560.547,19.95,-8.70,-38.40,17.29
15222,0.74,1.50,-50.97,38.086,-287.598,589.844,19.95,-8.70,-38.40,17.25
15231,0.17,-1.52,-47.00,-72.266,-555.664,637.207,20.85,-9.30,-39.00,17.34
15241,-5.63,9.28,-46.89,-103.516,-297.852,1043.945,21.45,-9.15,-38.10,16.96
15251,-4.80,0.02,-48.33,-299.805,-533.203,1446.289,21.45,-9.15,-38.10,17.15
15261,-5.89,3.69,-54.87,-178.223,-478.516,213.379,21.90,-11.55,-38.85,17.15
15273,0.87,3.72,-44.15,-82.031,-484.863,665.527,22.65,-9.45,-37.35,17.25
15283,-4.26,6.92,-48.74,-210.449,-198.730,187.988,21.90,-9.90,-38.40,17.29
15293,-5.98,8.31,-41.28,-41.016,-618.164,1314.453,22.20,-9.45,-37.65,17.25
15309,-9.56,7.32,-46.35,-70.801,-371.582,956.055,22.20,-9.45,-37.65,17.44
15318,-10.03,7.62,-46.92,-42.969,-152.832,543.945,21.30,-10.95,-39.30,17.29
15328,-0.62,2.09,-42.99,86.914,-7.812,1140.137,22.65,-11.55,-38.10,17.29
15338,8.09,-1.11,-46.37,-194.824,-237.793,1482.910,22.65,-11.55,-38.10,17.25
15350,8.34,4.91,-47.55,165.527,-401.855,923.340,22.80,-12.15,-37.80,17.34
15360,6.09,-2.79,-38.28,234.375,-697.754,1566.406,23.40,-12.30,-40.35,17.34
15370,-1.11,8.60,-43.25,-409.668,-334.961,1231.445,24.60,-10.65,-38.85,17.29
15380,0.37,0.11,-44.92,-246.094,-147.949,1236.328,24.60,-10.65,-38.85,16.96
15390,13.69,5.23,-40.39,-150.879,-750.488,985.840,24.00,-11.70,-39.75,17.25
15400,11.22,-7.21,-54.43,-362.305,-441.406,1397.461,24.30,-12.90,-38.25,17.25
15410,0.95,-9.79,-36.11,-29.785,-449.219,1360.352,22.80,-13.20,-40.05,17.34
15421,-8.76,7.13,-39.50,82.031,-631.836,806.152,24.60,-12.30,-39.60,17.25
15431,-9.73,0.85,-40.51,55.664,-422.363,1137.695,24.60,-12.30,-39.60,17.25
15441,-4.44,-3.30,-42.95,11.230,-413.574,1330.566,23.40,-13.50,-39.60,17.15
15451,2.74,4.33,-46.11,160.156,-366.211,-61.035,24.15,-15.00,-37.65,16.82
15461,-12.81,-6.49,-42.60,-372.559,-145.020,944.824,24.15,-15.00,-37.65,17.25
15471,10.44,-9.61,-39.80,297.852,-637.695,1221.680,23.55,-12.45,-39.30,17.25
15483,3.31,-13.64,-48.84,-71.289,-984.863,1124.512,24.30,-14.10,-38.55,17.15
15493,-6.10,-1.41,-40.76,210.449,-436.523,831.543,24.00,-13.20,-39.30,17.01
15503,-1.92,-3.43,-40.47,-383.301,-749.512,1366.699,23.25,-14.10,-38.25,17.25
15513,9.62,-0.25,-25.28,-124.023,-744.141,478.027,23.25,-14.10,-38.25,17.25
15523,0.93,7.82,-43.83,41.504,-808.105,677.734,24.90,-13.05,-39.90,17.10
15533,3.13,4.99,-48.33,-4.883,-882.812,1731.934,25.05,-14.40,-38.25,17.10
15543,-1.15,3.89,-28.76,-182.129,-618.164,1204.102,25.05,-14.40,-38.25,17.49
15555,-5.00,1.76,-34.85,239.746,-417.969,1632.324,25.05,-13.65,-39.75,17.15
15565,-10.39,4.11,-42.93,-65.430,-185.547,1633.789,25.35,-15.90,-39.90,17.15
15575,-6.35,0.65,-43.76,-27.344,-178.711,1297.363,24.60,-14.25,-40.65,17.25
15585,-2.98,4.28,-45.72,353.516,-380.859,1260.742,25.35,-16.65,-40.65,17.10
15595,-7.16,0.61,-45.41,45.410,-363.281,1093.750,25.35,-16.65,-40.65,17.25
15605,-0.76,-7.87,-36.29,-3.906,-236.328,1254.395,24.00,-14.85,-39.30,16.96
15617,-2.49,-8.61,-37.09,-360.840,-370.117,1999.939,23.55,-15.60,-40.50,17.34
15627,9.36,-6.82,-45.43,-18.555,-574.219,996.582,24.15,-16.65,-39.90,17.10
15637,-3.59,2.95,-43.35,168.945,-496.094,796.875,25.65,-16.20,-37.65,17.15
15647,-11.66,1.33,-40.18,-330.078,-270.996,1371.582,25.50,-18.45,-40.05,17.34
15657,-9.95,-4.27,-29.98,-143.555,-457.520,865.234,24.60,-14.70,-41.10,17.44
15667,-4.05,-0.54,-41.83,-28.320,-517.578,65.430,24.60,-17.10,-39.90,17.25
15677,-8.89,-2.20,-36.52,-238.281,46.875,1999.939,24.60,-17.10,-39.90,17.29
15689,2.24,0.44,-37.63,94.238,-243.164,1154.785,25.05,-16.05,-40.05,17.49
15699,5.44,-5.34,-32.69,-174.316,-500.977,1487.793,24.75,-20.10,-39.00,17.25
15709,4.30,-0.83,-32.96,256.836,-523.926,194.824,24.75,-16.05,-40.80,17.10
15719,0.19,3.18,-35.02,77.148,-484.863,455.566,25.05,-16.80,-39.30,17.25
15728,-3.37,10.93,-32.13,-17.578,-219.238,783.203,25.05,-16.80,-39.30,17.25
15738,3.88,-5.10,-39.34,-114.258,-249.023,1675.781,24.15,-18.60,-41.10,17.15
15748,-1.66,1.61,-39.80,-138.184,-360.352,665.527,24.90,-18.60,-38.85,17.25
15760,-3.07,-5.23,-35.40,-73.242,-579.590,1042.969,24.30,-18.90,-40.05,17.25
15770,3.76,-2.85,-38.18,138.672,-815.918,166.992,24.90,-20.70,-39.60,17.49
15780,-3.98,1.21,-37.42,-72.754,-247.070,892.090,24.00,-18.45,-39.75,16.96
15790,3.56,-1.46,-34.65,21.973,-274.414,1296.875,24.60,-19.50,-39.60,17.01
15800,1.76,0.60,-35.93,314.453,-687.988,380.371,24.60,-19.50,-39.60,17.10
15810,-5.15,11.47,-38.00,-107.422,-326.660,697.266,24.60,-19.80,-40.65,17.01
15827,-2.23,2.66,-31.44,246.094,-642.578,341.309,24.30,-20.40,-39.30,17.29
15836,-3.58,-5.57,-38.71,-258.301,-77.637,1677.246,24.30,-20.40,-39.30,17.25
15846,0.40,0.02,-40.41,-194.336,-610.352,821.289,24.60,-18.60,-39.90,17.25
15856,-2.39,6.15,-31.33,112.793,-737.305,411.621,24.60,-21.00,-38.85,16.96
15866,-5.98,2.74,-32.14,-389.160,-443.359,1924.805,23.55,-19.20,-40.50,17.01
15876,-2.56,-1.92,-35.82,-13.184,-654.785,1208.008,24.00,-21.60,-39.30,17.10
15886,0.48,8.90,-38.22,177.246,-490.723,724.121,24.00,-21.60,-39.30,17.15
15897,0.35,2.30,-38.87,45.410,-402.344,1102.539,24.75,-20.10,-39.75,17.25
15907,7.63,14.34,-39.80,126.953,-732.422,-33.203,24.90,-22.20,-41.10,17.25
15917,-3.15,3.10,-36.71,-560.059,-407.715,1716.309,24.60,-21.45,-40.35,17.25
15927,3.46,4.23,-37.53,163.574,-764.648,1527.344,24.90,-20.70,-41.40,17.10
15937,-4.20,11.18,-38.45,235.352,-330.566,274.902,24.90,-20.70,-41.40,17.34
15947,-2.46,-2.88,-39.91,-187.500,-275.391,1938.965,24.90,-22.20,-41.40,17.10
15957,3.39,2.71,-38.18,202.148,-976.074,395.996,24.75,-22.05,-39.75,17.44
15968,-6.47,-0.72,-44.31,-504.883,-320.312,1999.939,24.75,-22.05,-39.75,17.25
15978,17.37,-8.18,-41.00,993.164,-1032.715,523.926,25.05,-20.40,-40.80,17.01
15988,-21.94,2.76,-43.47,-319.824,-296.875,89.355,24.30,-22.05,-39.75,17.01
15998,6.09,-7.54,-35.12,-114.258,-825.195,734.375,24.75,-24.00,-40.50,16.96
16008,-6.11,-1.21,-39.15,-142.090,-239.258,683.105,24.00,-22.50,-40.50,17.29
16018,-4.53,-7.46,-46.24,-137.207,-814.453,1274.902,24.00,-22.50,-40.50,17.10
16030,3.28,-4.30,-35.46,26.855,-516.602,1904.785,24.90,-22.65,-41.10,17.29
16040,1.22,1.85,-30.74,433.594,-846.680,146.484,24.90,-22.65,-41.10,17.25
16050,-22.89,-4.79,-44.43,-929.687,-400.879,1151.855,24.90,-22.65,-41.10,17.15
16060,4.04,-9.95,-32.86,466.797,-916.504,934.570,24.30,-22.50,-41.25,17.29
16070,-7.56,1.86,-43.16,150.879,-401.855,729.492,24.30,-22.50,-41.25,16.91
16080,-9.03,1.24,-41.44,-265.137,-289.551,1999.939,25.65,-24.60,-39.90,17.25
16090,6.44,2.56,-34.15,182.617,-747.070,186.523,22.95,-23.40,-41.40,17.01
16102,12.69,3.31,-36.56,448.242,-684.570,53.223,24.30,-25.65,-41.55,17.25
16112,-11.09,7.80,-38.24,-505.859,-7.324,242.187,23.40,-22.65,-41.10,17.49
16122,-1.50,-2.13,-34.99,442.383,-1145.508,1318.359,24.00,-25.20,-40.50,17.29
16132,-3.96,0.23,-38.50,1.465,-591.797,563.965,23.55,-25.20,-40.80,17.25
16142,-3.34,-0.43,-43.52,-324.219,-489.746,1999.939,23.25,-23.70,-40.80,17.29
16152,13.16,-0.37,-35.60,607.910,-682.129,292.969,23.25,-25.65,-40.50,16.91
16162,-16.34,-2.72,-39.07,-600.586,46.387,1999.939,24.75,-25.95,-40.05,17.25
16174,-7.08,1.68,-32.82,-434.082,-242.676,283.691,24.75,-25.95,-40.05,17.10
16184,6.50,-4.98,-35.56,787.598,-1096.191,1078.125,24.15,-26.55,-40.35,17.25
16194,-2.57,1.22,-47.48,31.738,-423.828,109.863,22.35,-25.95,-40.50,16.96
16204,-2.45,0.30,-39.17,-229.980,-874.512,1999.939,24.60,-25.50,-40.35,17.01
16214,13.57,-0.40,-43.73,-9.277,-667.480,385.254,23.70,-27.00,-39.90,17.34
16224,-21.42,-4.92,-45.56,-802.246,361.328,1995.117,23.70,-27.00,-39.90,17.10
16236,-8.01,5.50,-47.53,-348.145,-306.641,774.414,23.40,-25.05,-41.40,17.25
16246,8.21,-8.85,-41.40,251.953,-1033.691,1300.781,23.55,-27.60,-40.50,17.01
16256,8.37,5.95,-47.66,-361.816,-807.617,537.598,23.55,-27.60,-40.50,17.01
16266,-11.63,-0.81,-43.69,-479.004,-830.078,1999.939,22.80,-26.40,-40.50,17.34
16276,6.22,-1.73,-38.49,292.480,-807.129,1030.762,23.70,-27.45,-41.40,17.34
16286,-32.08,4.71,-45.34,-1189.941,574.219,1300.293,23.25,-26.40,-40.80,17.25
16296,9.53,-7.33,-36.42,93.262,-689.941,-520.508,22.20,-27.75,-40.65,17.25
16308,10.67,0.06,-50.98,686.523,-919.922,739.258,22.20,-27.75,-40.65,17.15
16318,-8.48,5.11,-35.39,-298.340,46.387,37.598,23.25,-27.15,-41.25,17.25
16328,14.92,-8.11,-39.24,778.809,-1007.812,886.719,22.20,-28.20,-41.85,17.01
16343,-8.39,-1.97,-48.90,-291.992,-276.367,400.879,21.60,-27.60,-40.80,17.25
16352,0.91,-9.99,-44.90,-94.238,-1003.418,1999.939,22.20,-27.45,-40.35,17.25
16362,4.53,4.06,-48.47,-236.328,-598.633,1428.711,22.95,-28.95,-41.10,17.15
16372,-4.78,-5.32,-43.78,-198.730,-1618.164,1999.939,21.60,-28.05,-41.25,17.15
16384,-24.44,-1.10,-41.66,-673.828,381.348,1999.939,21.60,-28.05,-41.25,17.10
16394,16.27,-5.34,-51.56,109.863,-593.750,-354.492,22.20,-30.60,-41.40,17.29
16404,-20.16,-2.13,-45.24,-599.609,541.016,-313.477,22.05,-28.80,-42.45,16.91
16414,21.98,0.82,-43.89,862.793,-1057.617,-296.875,22.05,-30.75,-39.75,17.25
16424,-9.26,2.34,-47.54,-587.402,-298.340,98.633,22.05,-29.55,-41.55,17.34
16434,4.74,-9.87,-36.88,762.695,-1707.031,-499.023,22.05,-29.55,-41.55,17.10
16446,9.85,-14.21,-43.18,896.484,-1299.805,988.281,21.45,-30.60,-38.85,17.15
16456,-9.67,-4.51,-52.13,-447.266,469.238,1165.039,21.00,-30.15,-40.65,17.10
16466,4.70,-7.95,-38.64,358.887,-785.645,750.977,21.00,-30.15,-40.65,17.15
16476,-1.96,-0.72,-39.47,-356.934,-151.855,1075.684,21.30,-31.65,-40.05,17.25
16486,8.84,-12.92,-42.42,552.734,-1080.078,1052.734,20.70,-31.80,-42.15,17.01
16496,-5.67,3.04,-48.91,-283.203,-202.148,1230.957,21.00,-28.95,-41.40,17.15
16506,2.22,-10.19,-41.23,221.680,-1104.980,1999.939,22.05,-31.65,-40.80,17.10
16520,2.95,7.70,-65.44,-143.555,-132.324,549.316,22.05,-31.65,-40.80,17.34
16530,-1.51,-1.21,-34.62,33.203,-1245.605,1999.939,20.85,-30.75,-40.80,17.10
16540,14.20,5.08,-25.76,-466.797,-505.371,420.410,21.60,-32.40,-40.05,17.15
16550,-0.34,8.69,-48.09,400.391,-1354.492,1999.939,21.60,-32.40,-40.05,17.25
16560,14.69,2.00,-31.70,-14.648,-327.148,546.387,20.10,-29.55,-40.80,17.10
16570,-0.47,3.05,-46.85,68.359,-1148.438,1999.939,21.30,-31.20,-40.50,16.96
16580,21.66,1.11,-37.72,83.984,-764.648,433.594,18.90,-31.95,-40.80,17.25
16592,13.96,-0.08,-36.66,7.324,-674.316,566.406,20.70,-30.15,-40.65,17.25
16602,-29.32,-9.91,-44.34,-83.496,14.648,972.656,19.50,-33.00,-40.65,17.01
16612,8.88,1.92,-40.11,-6.348,-334.961,782.715,18.75,-31.05,-40.65,17.29
16622,-13.78,-3.59,-37.74,125.000,-75.684,1747.070,19.35,-31.65,-41.55,17.44
16632,9.35,-1.75,-35.76,-75.195,-108.887,1040.039,19.35,-31.95,-41.25,17.01
16642,-7.95,-8.33,-39.68,-127.441,-1096.680,1999.939,19.35,-31.95,-41.25,17.25
16654,-4.41,1.55,-33.55,-423.340,-743.652,1886.719,18.45,-32.25,-40.35,16.91
16664,11.11,-1.79,-38.04,-484.863,-323.730,496.094,18.75,-33.00,-41.40,17.25
16674,1.55,-1.27,-32.22,-121.094,-1601.563,1999.939,18.75,-33.00,-41.40,17.25
16684,2.04,2.38,-36.09,-125.000,-651.855,547.852,19.50,-33.45,-39.90,17.25
16694,-16.60,-2.62,-30.82,36.621,-787.109,1822.266,19.35,-33.15,-40.50,17.10
16704,1.28,-0.05,-36.45,-254.883,-485.840,611.816,18.60,-31.65,-40.05,17.15
16714,-21.65,-4.27,-35.05,5.371,-317.871,1999.939,18.15,-33.15,-40.05,17.25
16726,9.82,3.66,-27.73,293.457,-1229.492,1999.939,18.15,-33.15,-40.05,17.25
16736,9.93,0.66,-46.51,-287.109,62.988,1295.898,18.45,-31.05,-41.10,17.15
16745,-6.47,9.05,-18.53,-201.660,85.938,233.398,18.90,-34.05,-40.05,17.29
16755,19.05,-6.25,-38.05,135.254,-882.812,119.141,18.90,-34.05,-40.05,17.25
16765,-16.23,0.38,-42.63,-257.812,85.449,327.637,18.45,-33.45,-40.65,16.91
16775,24.73,-7.84,-36.68,561.035,-516.113,-530.273,19.95,-34.95,-41.10,17.10
16785,-32.88,-6.20,-32.15,127.930,-35.645,336.914,17.10,-33.15,-41.25,17.15
16797,-11.99,-2.90,-28.11,554.199,-1024.414,1720.215,18.75,-33.00,-41.40,17.25
16807,-1.43,5.90,-31.22,-569.336,-143.555,248.047,18.75,-33.00,-41.40,17.44
16817,5.06,-5.25,-35.11,637.695,-1659.668,946.777,18.15,-35.25,-39.75,17.15
16827,-1.15,-1.66,-27.42,-1058.594,363.281,1951.172,17.25,-33.45,-39.90,17.34
16837,20.41,-13.47,-37.63,126.465,-960.937,-325.195,18.00,-33.75,-40.35,17.25
16847,-7.63,6.76,-17.05,-131.836,-278.809,604.492,18.00,-33.75,-39.60,16.96
16864,-14.05,4.92,-39.27,-65.430,-256.836,-58.594,16.20,-32.85,-39.30,17.29
16873,17.18,-1.42,-28.31,227.051,-647.949,-660.156,17.55,-34.65,-39.15,17.25
16883,-15.31,2.16,-38.59,9.277,-447.754,1999.939,17.55,-34.65,-39.15,17.25
16893,14.83,0.33,-26.47,-76.172,-474.609,153.809,15.45,-33.60,-39.75,17.15
16903,-7.53,2.50,-41.24,444.336,-695.801,827.637,16.05,-35.85,-39.90,17.29
16913,4.08,-4.77,-21.88,-404.297,4.395,708.008,17.85,-35.25,-40.50,17.15
16923,12.33,1.52,-43.53,421.875,-1547.852,1843.262,15.90,-34.05,-38.55,17.25
16935,13.48,-8.53,-33.95,319.336,-1228.027,1202.148,15.90,-34.05,-38.55,17.15
16945,-4.50,1.78,-34.57,-141.602,299.316,1328.613,16.50,-35.85,-40.35,17.15
16955,21.95,-13.35,-25.23,-400.391,-446.289,313.965,16.80,-32.55,-39.90,17.01
16965,-0.91,8.96,-35.79,302.734,-557.129,628.906,16.80,-32.55,-39.90,17.15
16975,5.21,-0.85,-4.67,-293.457,89.355,-19.531,16.20,-35.25,-39.30,17.25
16985,-6.52,-2.85,-38.44,491.699,-927.246,1999.939,16.05,-34.95,-39.90,17.10
16995,-14.26,4.02,-42.87,-352.051,724.609,596.680,15.75,-35.40,-38.85,17.10
17007,-2.64,11.48,-43.66,-484.863,301.758,1344.727,15.45,-36.45,-39.30,17.10
17017,19.54,-1.10,-33.14,298.340,-1541.504,1953.613,15.45,-36.45,-39.30,17.10
17027,-8.58,6.92,-42.98,-148.437,-334.473,688.477,14.55,-35.85,-39.15,17.01
17037,11.88,-16.52,-41.26,-85.449,-920.898,404.785,13.80,-37.35,-38.85,17.25
17047,-15.56,2.18,-27.52,231.445,138.672,1336.914,14.70,-34.80,-40.05,17.34
17057,4.20,-0.18,-35.40,190.430,-210.449,236.328,15.30,-34.65,-38.40,16.96
17069,4.11,-2.45,-42.70,-837.891,-25.391,937.988,15.30,-36.60,-38.40,17.34
17079,2.63,-0.68,-33.69,370.605,-744.629,1999.939,15.15,-36.45,-40.05,17.34
17089,-5.08,9.18,-31.20,44.922,-6.836,577.637,16.50,-33.75,-38.85,17.29
17099,13.63,-3.08,-36.94,10.254,-1355.469,1550.781,16.50,-33.75,-38.85,17.15
17109,-23.76,3.39,-28.10,9.277,69.824,799.805,15.30,-36.15,-38.85,17.44
17118,-16.49,-7.79,-51.19,441.406,-470.215,1999.939,14.40,-35.25,-38.55,17.25
17128,-14.02,5.49,-33.89,-19.043,307.129,495.605,15.30,-36.60,-38.40,17.25
17140,-8.03,13.55,-41.42,74.707,132.812,795.898,13.35,-34.95,-38.85,17.25
17150,14.56,-6.09,-35.85,-20.508,-174.316,294.434,13.35,-34.95,-38.85,17.25
17160,-5.09,-0.27,-39.74,312.012,-831.055,18.066,15.75,-34.65,-38.40,16.91
17170,-2.92,0.47,-26.94,-433.105,49.316,398.926,13.35,-35.85,-39.60,17.10
17180,8.55,-5.21,-41.31,395.508,-1075.684,1999.939,13.35,-35.85,-39.60,17.25
17190,-8.72,9.43,-37.71,-258.301,-65.430,763.184,12.30,-36.15,-39.60,17.25
17200,6.44,-3.17,-47.43,-153.809,-1094.238,615.723,13.80,-36.60,-39.15,17.29
17212,0.77,-2.43,-46.22,-165.527,-758.301,1331.055,14.55,-35.40,-39.15,17.29
17222,-1.52,7.62,-35.98,332.031,-814.453,835.449,13.35,-37.05,-39.60,17.25
17232,3.94,2.83,-30.95,-358.887,-30.762,778.809,13.35,-37.05,-39.60,17.25
17242,9.84,3.35,-26.68,264.160,-1287.109,1636.230,13.35,-35.85,-39.15,17.25
17251,1.58,2.47,-39.58,-158.203,-224.609,1437.012,14.10,-33.75,-39.15,17.25
17261,-11.79,3.21,-41.37,277.344,-1141.602,536.133,12.75,-37.20,-37.50,17.29
17271,-2.12,6.23,-41.59,-298.828,-264.160,18.066,13.50,-38.40,-38.55,17.25
17283,-0.39,6.27,-34.76,-401.367,133.789,814.941,12.75,-36.45,-38.25,17.15
17293,3.43,-3.52,-37.58,325.195,-1229.004,1915.039,13.35,-36.15,-39.60,17.25
17303,4.45,-2.06,-24.60,158.203,-600.098,1095.703,13.35,-36.15,-39.60,17.15
17313,14.23,-1.73,-44.43,-58.594,-854.980,402.344,13.05,-37.05,-38.40,17.15
17323,-2.02,-1.30,-35.02,259.766,-847.656,672.852,12.60,-36.60,-39.15,17.10
17333,8.41,1.24,-37.80,-377.441,-816.406,745.605,12.30,-36.60,-38.85,17.25
17345,-10.88,3.42,-39.99,-386.230,32.715,1547.852,11.70,-37.20,-37.80,17.01
17355,10.31,-7.65,-33.97,223.633,-1128.418,956.055,11.70,-37.20,-37.80,17.25
17365,-12.86,-1.34,-52.47,-33.203,179.199,1106.445,12.45,-36.75,-37.80,17.29
17380,5.55,-1.28,-46.17,-148.437,-669.922,-54.199,12.75,-36.00,-36.30,16.96
17389,3.73,-3.25,-28.25,75.195,-233.398,1999.939,12.75,-36.00,-36.30,16.96
17399,7.25,5.05,-34.24,-122.559,-690.918,332.031,12.75,-36.45,-39.75,17.10
17409,6.61,7.60,-40.03,0.488,-1315.430,707.520,11.10,-35.85,-39.60,17.34
17421,15.86,3.73,-36.60,4.883,-963.867,1999.939,12.45,-37.95,-38.25,17.29
17431,-1.37,6.40,-49.40,-166.992,-373.535,785.645,10.05,-37.20,-37.80,17.25
17441,3.08,-7.86,-39.11,-128.418,-1306.152,1051.758,10.05,-37.20,-37.80,17.10
17451,-20.32,-2.21,-33.64,-343.750,160.156,1208.984,11.85,-37.80,-37.65,17.29
17461,5.26,-9.38,-54.89,-136.719,-29.297,877.441,11.85,-39.00,-37.65,17.25
17471,1.60,-2.91,-31.82,-0.977,-331.055,794.922,10.65,-35.85,-40.35,17.01
17481,15.01,1.21,-44.80,-333.008,-356.445,625.000,9.60,-37.80,-38.85,17.25
17493,5.24,6.45,-38.77,-338.867,168.945,1130.371,10.35,-38.25,-38.85,17.01
17503,19.96,-5.18,-35.64,72.266,-1437.988,1455.566,10.65,-35.85,-37.65,17.25
17513,-9.44,-0.22,-48.24,-544.434,130.859,1064.453,10.65,-35.85,-37.65,17.44
17523,16.08,2.15,-26.63,151.367,-1089.355,94.238,10.65,-35.85,-37.65,17.25
17532,-9.57,9.10,-29.21,-526.367,404.297,925.293,11.10,-36.60,-38.40,17.15
17542,12.06,-5.60,-35.73,499.512,-1406.738,669.922,10.05,-36.00,-38.25,17.01
17554,16.93,-0.86,-52.13,125.000,-718.262,1208.984,10.95,-37.20,-38.55,17.29
17564,-2.18,17.68,-36.56,229.980,-271.973,-248.047,10.95,-37.20,-38.55,17.10
17574,17.38,6.73,-33.12,188.477,-1143.066,-117.188,9.90,-37.35,-37.65,17.25
17584,-3.10,5.32,-42.67,-177.246,-402.832,721.191,10.35,-36.60,-36.90,17.34
17594,8.15,5.44,-41.69,-140.625,-615.234,508.301,10.35,-36.60,-36.90,17.34
17604,-7.81,2.83,-60.10,-513.672,-448.242,1999.939,9.60,-38.25,-37.65,17.25
17614,5.31,-1.40,-42.34,-183.594,-875.488,1237.793,9.75,-36.75,-37.50,17.25
17625,2.05,7.06,-47.41,-249.023,-1045.410,605.957,11.70,-36.45,-38.55,17.01
17635,-8.52,13.05,-41.85,-149.414,-394.043,486.328,9.75,-37.20,-39.00,17.15
17645,3.56,7.76,-44.88,-136.230,-638.184,1496.582,9.75,-37.20,-39.00,17.25
17655,9.02,3.58,-42.44,-119.141,-298.828,1080.566,10.50,-37.20,-37.80,17.29
17665,-0.56,5.40,-48.12,98.633,-489.258,845.703,10.05,-37.65,-37.80,17.34
17675,0.76,-3.15,-48.84,-118.164,-641.113,1192.383,9.30,-37.95,-38.25,17.29
17685,-3.95,0.81,-50.47,-227.051,-592.285,1100.586,9.90,-37.05,-37.65,17.01
